ax,ay,az
-0.1229489453125,0.0848734228515625,1.194392314453125
-0.1774133203125,0.09198104248046875,1.2654188623046876
-0.3189234375,-0.060710234375,1.110831669921875
-0.17133470703125,0.0103659619140625,0.9604225097656249
-0.022773398437500002,-0.0063001806640625,0.872929599609375
-0.08769298828125,-0.077376376953125,0.84491220703125
-0.20342978515625,-0.04134809814453125,0.9739396728515625
-0.2124261328125,-0.01561361328125,0.9724650732421874
-0.17084841796875,-0.11634573974609375,0.765283828125
0.057707441406250004,0.012816865234374999,0.7788009912109375
-0.07164544921875,-0.04723026611328125,0.8368019091796874
-0.117599765625,0.0025230712890624996,0.9188879541015624
-0.21023783203125002,-0.067572763671875,0.8456495068359375
-0.20026890625,-0.02223105224609375,0.7807671240234375
-0.133161015625,0.10913736572265625,0.78986048828125
-0.2542469921875,0.09786321044921875,0.8825144970703125
0.01685916015625,0.0348749951171875,1.0643817822265624
-0.06532369140625,-0.0033590966796874996,1.17817171875
-0.17668388671875,-0.05360261474609375,1.1961126806640625
-0.1346198828125,-0.07320984130859375,1.1007552392578126
-0.13291787109375,0.04786478271484375,0.9501003125
-0.115654609375,0.03168882080078125,0.859658203125
-0.16914640625,0.04149243408203125,0.98254150390625
-0.1686601171875,0.0613447509765625,0.992863701171875
-0.131215859375,0.0780108935546875,1.122628466796875
-0.10325423828125,0.1505576318359375,1.176697119140625
-0.29096181640625,0.07139345458984375,1.15752732421875
-0.0587587890625,0.127519140625,1.12312
-0.21169669921875,0.09639266845703125,0.9960586669921875
-0.13340416015625,0.099088662109375,0.9562444775390625
-0.17668388671875,0.03904153076171875,0.8136998486328125
-0.04344068359375,-0.0661022216796875,0.802148818359375
-0.148722265625,-0.1229631787109375,0.880794130859375
-0.13778076171875,-0.046740085449218746,1.0049062646484375
-0.08283009765625,-0.00948635498046875,1.0865007763671874
-0.15382830078125,-0.01953505859375,1.0260421923828125
-0.1832487890625,0.08609887451171874,0.979100771484375
-0.1229489453125,-0.03497574951171875,0.9675497412109375
-0.05802935546875,0.033404453125,1.076424345703125
-0.2260422265625,0.05031568603515625,1.2133163427734375
-0.082586953125,0.02482629150390625,1.2253589062499999
-0.07942607421875,-0.0543378857421875,0.9886856689453125
-0.015235917968750002,-0.035711020507812496,0.84884447265625
-0.13340416015625,-0.0455146337890625,0.8505648388671875
-0.072861171875,-0.10703230712890625,1.1145181689453125
-0.2279873828125,-0.12320826904296875,1.286800556640625
-0.051464453125000004,-0.2837424365234375,1.20668064453125
-0.127325546875,-0.12369844970703125,0.9677955078125
-0.13948277343749999,0.01110123291015625,0.8854636962890625
-0.1433730859375,-0.1170810107421875,0.818860947265625
-0.25497642578125,-0.0798272802734375,0.8535140380859375
-0.191515703125,-0.011201987304687501,0.84097994140625
-0.041738671875,-0.03399538818359375,0.8348357763671875
0.0842101953125,0.0544822216796875,0.73480876953125
-0.01085931640625,0.07065818359375,0.83704767578125
-0.011345605468749999,-0.02027032958984375,0.922574453125
-0.11857234375,0.195164072265625,1.027271025390625
-0.10957599609375,-0.00777072265625,1.1828412841796876
-0.32597462890625,-0.01291761962890625,1.22634197265625
-0.257651015625,0.06992291259765625,1.0393135888671874
-0.0344443359375,0.0799716162109375,0.9041419580078125
-0.15164,0.00472888427734375,0.8068183837890625
-0.2085358203125,0.07629526123046874,0.9488714794921875
-0.14410251953125,0.138303115234375,0.94125271484375
-0.2202067578125,0.1784979296875,0.8962774267578125
-0.020341953125,0.14246965087890626,0.9913891015625
0.06597435546875,0.008405239257812499,0.9513291455078126
-0.0752926171875,-0.0915916162109375,0.96877857421875
-0.08137123046875,-0.02860340087890625,1.0781447119140626
-0.06386482421875,-0.06830803466796875,1.1845616503906249
-0.28950294921874997,-0.16193254150390626,1.0221099267578124
-0.17862904296875,-0.08742508056640624,1.0464408203125
-0.2600824609375,0.01845394287109375,1.0820769775390624
-0.325731484375,-0.00997653564453125,0.9940925341796875
-0.0850183984375,0.06158984130859375,0.9080742236328125
0.008349101562499999,-0.09967959716796874,0.9847534033203125
-0.13024328125,0.12188206298828125,1.1644087890625
-0.27151025390625,0.080461796875,1.04742388671875
-0.172064140625,0.05913893798828125,0.8943112939453125
-0.15577345703125,0.071638544921875,0.8485987060546875
0.09369283203125,-0.0513968017578125,0.7837163232421875
-0.01085931640625,-0.0661022216796875,0.8655566015625
-0.10082279296875,0.14590091552734374,1.1415524951171876
-0.3573402734375,0.0446786083984375,1.2211808740234376
-0.206104375,0.159871064453125,1.2182316748046875
-0.38578818359375,0.19687970458984375,0.9442019140625
-0.24281919921875,0.1505576318359375,0.860149736328125
-0.14021220703125,-0.079337099609375,0.738249501953125
0.0618408984375,-0.1278649853515625,0.510178095703125
0.06937837890625,-0.14894275390625,0.37205726562499997
0.07375498046875,-0.18006922607421874,0.482160703125
0.024396640625,-0.23644000244140626,0.4408719140625
0.01929060546875,-0.2160975048828125,0.1751982177734375
-0.015235917968750002,-0.21193096923828125,0.15996068847656247
-0.06629626953125001,-0.22271494384765625,0.0788577099609375
-0.097175625,-0.22345021484375,0.07566274414062499
-0.06848457031249999,-0.2406065380859375,0.1997748779296875
-0.0704297265625,-0.27124282958984375,0.35116710449218747
-0.08744984375,-0.36682805908203125,1.5392028564453124
-0.044170117187499996,-0.39599380859375,2.129718558349609
0.32759787109375,0.9669535278320313,2.129718558349609
-0.477453671875,1.165721787109375,2.129718558349609
-0.70819783203125,0.5728482739257813,2.129718558349609
-0.4575158203125,0.06257020263671875,0.595704873046875
-0.06921400390625,-0.0543378857421875,0.1570114892578125
0.0501699609375,-0.19379428466796875,-0.002245268554687513
0.198488125,-0.10948321044921874,0.213292041015625
0.13454111328125,-0.060710234375,0.6691890869140625
0.154722109375,0.12531332763671876,1.4232010205078125
-0.1944334375,0.5902496875,2.129718558349609
-0.87645384765625,0.6743156713867188,2.129718558349609
-0.22482650390625,-0.03693647216796875,2.0990591748046876
0.0637860546875,-0.2788406298828125,1.182595517578125
0.09515169921875,-0.27614463623046875,0.9065996240234375
0.07035095703125,-0.3111925537109375,0.72497810546875
0.12043873046875,-0.27467409423828126,0.5979167724609376
0.11873671875,-0.31928053466796874,1.0196522607421874
-0.07456318359375,-0.4807950634765625,1.2233927734375
-0.4059691796875,-0.30506529541015626,1.278936025390625
-0.160393203125,-0.1268846240234375,1.286800556640625
-0.1472633984375,-0.3109474633789063,1.0383305224609374
-0.16647181640625,-0.13007079833984375,0.6785282177734375
-0.0412523828125,-0.1587463671875,0.428583583984375
-0.051950742187499996,-0.1200220947265625,0.3526417041015625
-0.07845349609375,-0.07713128662109375,0.2499112646484375
-0.092312734375,-0.07026875732421875,0.22361423828125
-0.08331638671875,-0.081297822265625,0.188715380859375
-0.05073501953125,-0.0651218603515625,0.0633744140625
-0.01669478515625,-0.0553182470703125,0.0921291064453125
0.01758859375,-0.055073156738281254,0.13415519531249998
0.035824433593749996,-0.08252327392578125,0.36517580078125
0.102202890625,-0.1151202880859375,0.4765080712890625
0.22012798828125,-0.077376376953125,0.959439443359375
0.09806943359375,0.253005390625,1.61367013671875
-0.48426171875,0.16477287109375,1.691823916015625
-0.45313921875,-0.420502841796875,1.659382724609375
0.5598008984375,-0.351877548828125,2.129718558349609
0.71808798828125,-0.1337471533203125,2.129718558349609
0.18219744140625,0.7113243115234374,2.129718558349609
-0.2659179296875,0.5615741186523437,1.7780879931640625
-0.32013916015625,0.4319213330078125,1.318258681640625
-0.72959455078125,0.394177421875,1.96954017578125
-0.6637023828125,0.7360784350585937,2.129718558349609
0.10439119140625,0.487311748046875,1.795045888671875
0.0467659375,0.375550556640625,1.0206353271484374
-0.2007551953125,0.0008074389648437498,0.796741953125
-0.59586505859375,-0.0009081933593750001,1.0874838427734375
-0.539698671875,-0.27442900390625,0.91569298828125
0.120681875,-0.4268751904296875,1.3789630322265625
0.13040765625,0.2554562939453125,1.945455048828125
-0.30652306640625,0.2927100244140625,0.9070911572265625
-0.19637859375,0.08707923583984375,0.3806590966796875
-0.096203046875,0.08658905517578125,0.2717844921875
0.15691041015625,-0.046740085449218746,0.3767268310546875
0.120681875,-0.1710008837890625,1.1683410546875
-0.34810078125,0.01404231689453125,1.4998802001953124
-0.56182482421875,0.09492212646484376,1.3440641748046875
-0.4750222265625,0.01747358154296875,0.768724560546875
-0.033958046875,0.03659062744140625,0.6532142578125
0.0209926171875,-0.04036773681640625,0.5925099072265625
-0.252788125,0.0201695751953125,0.48707603515625
-0.29363640625,0.07433453857421875,0.5728485791015625
-0.24306234375,0.023845930175781252,0.467906240234375
-0.23455228515625,0.06281529296875,0.4411176806640625
-0.156502890625,0.08266760986328126,0.3752522314453125
-0.159420625,0.101049384765625,0.4607790087890625
-0.13486302734375,0.1319307666015625,0.48904216796875
-0.080641796875,0.15864561279296874,0.61094240234375
-0.06021765625,0.18168410400390625,0.76626689453125
-0.13000013671875,0.237319609375,0.87637033203125
-0.13097271484375,0.20129133056640625,0.747097099609375
-0.19637859375,0.1201664306640625,0.5868572753906249
-0.18689595703125,0.09737302978515625,0.42342248535156246
-0.1355924609375,0.08413815185546875,0.3118444482421875
-0.08088494140625,0.1152646240234375,0.5177968603515625
-0.044170117187499996,0.19393862060546874,0.9218371533203125
-0.080641796875,0.32677758056640627,1.2703341943359374
-0.10568568359375,0.2780046044921875,1.4094380908203126
0.032177265625,0.0191892138671875,1.4703882080078126
-0.13291787109375,0.0966377587890625,1.6434078955078124
-0.5606091015625,0.22285927978515624,1.63333146484375
-0.39794541015625,-0.00777072265625,1.3099026171875
-0.0334717578125,0.0373258984375,1.14671359375
-0.020828242187500002,0.04712951171875,0.8033776513671875
0.0078628125,-0.03595611083984375,0.5831707763671875
-0.13486302734375,-0.05115171142578125,0.529839423828125
-0.1579617578125,-0.0602200537109375,0.3229039453125
-0.13340416015625,-0.03399538818359375,0.22558037109375
-0.046358417968749996,0.0059543359375,0.2705556591796875
0.006403945312499999,0.0466393310546875,0.44971951171875
0.0093216796875,0.13732275390625,0.864082001953125
0.01758859375,0.3260423095703125,1.420497587890625
-0.06775513671875,0.40569666748046873,1.708536044921875
-0.308225078125,0.07065818359375,1.6547131591796875
-0.2805066015625,0.04590406005859375,1.441633515625
-0.26907880859375,0.04443351806640625,1.2182316748046875
-0.27442798828125,0.04051207275390625,1.0579918505859376
-0.2561921484375,0.06551128662109375,0.9405154150390624
-0.21023783203125002,0.004973974609375,0.92650671875
-0.143859375,-0.020515419921875,0.8028861181640625
-0.22750109375,-0.1317864306640625,0.8982435595703124
-0.28026345703125,-0.0425735498046875,1.0948568408203125
-0.28901666015625,0.11207844970703125,1.3032669189453125
-0.2668905078125,0.02678701416015625,1.3091653173828126
-0.3057936328125,0.0255615625,1.28925822265625
-0.13437673828125,0.04590406005859375,1.2332234375
-0.1501811328125,0.055462583007812497,1.10640787109375
-0.3155194140625,-0.01169216796875,1.151137392578125
-0.26275705078125,-0.00997653564453125,1.1386032958984376
-0.36585033203125,-0.0955130615234375,1.0973145068359376
-0.1949197265625,0.02433611083984375,1.0555341845703126
-0.140941640625,0.0182088525390625,1.02186416015625
-0.189570546875,-0.07909200927734375,1.0348897900390626
-0.0247185546875,-0.03129939453125,1.158510390625
-0.13534931640625,-0.03889719482421875,1.2536220654296875
-0.220693046875,-0.10507158447265624,1.252884765625
-0.33764556640625,-0.16928525146484374,1.1100943701171875
-0.12465095703125,-0.01781942626953125,0.8967689599609375
-0.23698373046875,-0.11536537841796875,0.7866655224609375
-0.16355408203125,-0.1901179296875,0.7947758203124999
-0.0937716015625,-0.2259011181640625,0.9242948193359375
-0.009400449218749999,-0.04379900146484375,1.2226554736328126
-0.21607330078125,0.015022678222656249,1.3096568505859374
-0.32889236328125,-0.1249239013671875,1.2708257275390624
-0.15771861328125,-0.0803174609375,1.0702801806640625
-0.27831830078124997,-0.1308060693359375,0.82525087890625
0.0039725,-0.02174087158203125,0.710723642578125
-0.08185751953125,-0.05997496337890625,0.6347817626953125
-0.143859375,-0.03129939453125,0.565229814453125
-0.12635296875,0.01894412353515625,0.5443396533203125
-0.13194529296875,0.05913893798828125,0.62470533203125
-0.170118984375,0.15717507080078125,0.76626689453125
-0.205131796875,0.2054578662109375,0.9031588916015625
-0.2411171875,0.253005390625,1.0825685107421874
-0.23528171875,0.2907493017578125,1.23027423828125
-0.24816837890625,0.21795747314453126,1.2246216064453126
-0.2386857421875,0.08217742919921875,1.058729150390625
-0.105928828125,-0.03644629150390625,0.9282270849609375
-0.08963814453125,-0.03938737548828125,0.910286123046875
-0.17036212890625,-0.05752406005859375,0.864082001953125
-0.07310431640625001,-0.0955130615234375,0.8259881787109375
0.036797011718749995,-0.03301502685546875,1.0078554638671875
-0.22044990234375,0.013552136230468751,1.113780869140625
-0.224583359375,0.087324326171875,1.1828412841796876
-0.21169669921875,0.07188363525390624,1.2902412890625
-0.19905318359375002,0.17433139404296874,1.2968769873046875
-0.1871391015625,0.136342392578125,1.1990618798828125
-0.17327986328125,-0.00605509033203125,1.08478041015625
-0.18884111328125,-0.02737794921875,1.0658563818359374
-0.1443456640625,-0.02076051025390625,0.9985163330078125
-0.09498732421875,-0.03742665283203125,0.9095488232421876
-0.21655958984375,-0.0435539111328125,0.88030259765625
-0.1988100390625,0.075559990234375,0.9159387548828125
-0.07115916015625,-0.01978014892578125,0.82131861328125
-0.082586953125,-0.02125069091796875,0.8989808593749999
-0.298499296875,0.04198261474609375,1.087729609375
-0.2955815625,0.03144373046875,1.0560257177734376
-0.17084841796875,-0.0009081933593750001,0.93928658203125
-0.1550440234375,-0.0494360791015625,0.8323781103515625
-0.06580998046875,-0.1278649853515625,0.8510563720703125
-0.09790505859375,-0.20408807861328124,0.9528037451171875
-0.24184662109375,-0.00262382568359375,1.1683410546875
-0.39113736328125,0.02531647216796875,1.1695698876953124
-0.221665625,-0.01291761962890625,1.0550426513671876
-0.039307226562500006,0.11967625,1.167849521484375
-0.0840458203125,0.04835496337890625,1.1388490625
-0.12854126953125,0.07923634521484375,1.2113502099609375
-0.30530734375,0.07482471923828125,1.2462490673828124
-0.2722396875,-0.06340622802734375,1.075441279296875
-0.10495625,-0.00801581298828125,1.085271943359375
-0.21899103515625,0.11967625,1.1159927685546875
-0.21607330078125,-0.042328459472656246,0.9277355517578125
-0.26251390625,-0.00458454833984375,0.86653966796875
-0.30166017578125,0.030708459472656248,0.7999369189453125
-0.27977716796875,0.09394176513671874,0.8235305126953125
-0.17960162109375,0.012816865234374999,0.80165728515625
-0.1005796484375,0.1549692578125,1.0108046630859375
-0.10325423828125,0.116735166015625,1.1317218310546875
-0.3048210546875,0.08756941650390625,1.1422897949218749
-0.25205869140625,0.02923791748046875,1.05725455078125
-0.2756437109375,-0.012427438964843749,0.966320908203125
-0.23528171875,-0.03546593017578125,0.92552365234375
-0.09523046875,-0.08252327392578125,0.863098935546875
-0.19273142578125,-0.0543378857421875,0.882760263671875
-0.22361078125,0.026296833496093748,0.7640549951171876
-0.19175884765625,-0.02860340087890625,0.773148359375
-0.2955815625,0.17040994873046875,0.866048134765625
-0.26470220703125,0.1407540185546875,0.947642646484375
-0.02836572265625,0.15692998046875,1.04349162109375
-0.1589343359375,0.1927131689453125,1.126560732421875
-0.1842213671875,-0.0028689160156250004,1.1631799560546874
-0.20148462890625,0.0525214990234375,1.136391396484375
-0.3694975,0.0103659619140625,1.0174403613281249
-0.29363640625,0.0731090869140625,0.8903790283203125
-0.13778076171875,-0.00262382568359375,0.77609755859375
-0.15139685546875,-0.013407800292968751,0.71514744140625
-0.11468203125,0.00472888427734375,0.723503505859375
-0.06021765625,-0.08154291259765625,0.781012890625
-0.052680175781250005,0.0368357177734375,0.9872110693359375
-0.30555048828125,0.03266918212890625,1.1762055859375
-0.2464663671875,-0.10654212646484375,0.9660751416015625
-0.2056180859375,0.026296833496093748,1.0039231982421875
-0.298499296875,-0.01193725830078125,0.8309035107421875
-0.21850474609375,-0.040122646484374996,0.76430076171875
-0.201241484375,-0.03987755615234375,0.74857169921875
-0.18349193359375,-0.0219859619140625,0.923065986328125
-0.2338228515625,-0.03105430419921875,1.0063808642578125
-0.36585033203125,-0.104826494140625,0.9921264013671875
-0.16112263671875,0.07237381591796875,0.983033037109375
-0.21072412109375,0.0672269189453125,0.9166760546875
-0.2785614453125,0.13756784423828125,0.9523122119140625
-0.0772377734375,0.1044806494140625,1.0078554638671875
-0.2396583203125,0.03512008544921875,1.002694365234375
-0.29169125,0.07457962890625,1.077407412109375
-0.16160892578125,-0.02321141357421875,0.9193794873046874
-0.2450075,-0.03203466552734375,0.876861865234375
-0.366579765625,0.08315779052734375,1.0191607275390624
-0.3009307421875,-0.02737794921875,0.9149556884765625
-0.187625390625,0.01551285888671875,0.80952181640625
-0.27807515625,-0.048945898437499996,0.862115869140625
-0.2707808203125,-0.10654212646484375,0.8852179296875
-0.25157240234375,-0.0592396923828125,0.9370746826171875
-0.19856689453125,-0.029338671875,0.99040603515625
-0.3271903515625,0.09737302978515625,1.023338759765625
-0.179844765625,0.08756941650390625,0.9284728515625
-0.18981369140625,0.1392834765625,0.923065986328125
-0.32743349609375,0.13511694091796875,0.9245405859375
-0.17327986328125,0.06281529296875,0.9788550048828125
-0.29874244140625,0.1446754638671875,1.111814736328125
-0.30409162109375,0.05423713134765625,1.1002637060546876
-0.24306234375,0.02580665283203125,1.15556119140625
-0.24962724609375,0.14492055419921876,1.1312302978515625
-0.3660934765625,0.00399361328125,0.9562444775390625
-0.37265837890625,-0.0053198193359375,0.930930517578125
-0.32281375,0.134381669921875,0.91176072265625
-0.30749564453125,0.00619942626953125,0.8952943603515625
-0.28415376953125,0.050070595703125,0.9481341796875
-0.21899103515625,0.0182088525390625,0.8918536279296875
-0.25789416015625,-0.02762303955078125,0.8419630078125
-0.25643529296875,-0.0210056005859375,0.78396208984375
-0.1589343359375,0.0044837939453125,0.84097994140625
-0.29485212890625,-0.006790361328125,0.9277355517578125
-0.29922873046875,-0.00997653564453125,1.0447204541015624
-0.29825615234375,0.0525214990234375,1.1218911669921874
-0.41788326171875,-0.02076051025390625,1.0516019189453125
-0.43368765625,0.01404231689453125,0.9795923046875
-0.1764407421875,0.050070595703125,0.9695158740234375
-0.2411171875,0.0843832421875,0.8778449316406249
-0.11832919921875,0.016738310546875,0.9606682763671874
-0.11200744140625,0.0701680029296875,1.146222060546875
-0.4045103125,-0.02517213623046875,1.180629384765625
-0.22725794921875,0.10668646240234375,1.0958399072265625
-0.1871391015625,0.0003172583007812497,0.899472392578125
-0.2124261328125,0.14197947021484375,0.8997181591796874
-0.143859375,0.0466393310546875,0.914709921875
-0.36293259765625,0.096147578125,0.9591936767578125
-0.214857578125,0.04541387939453125,1.0181776611328126
-0.27418484375,-0.061690595703125004,0.910286123046875
-0.17668388671875,-0.038161923828125,1.073475146484375
-0.25157240234375,-0.0661022216796875,1.19488384765625
-0.2873146484375,-0.10188541015625,1.0968229736328126
-0.1754681640625,-0.06732767333984375,1.043000087890625
-0.21801845703125,0.07188363525390624,1.0658563818359374
-0.1579617578125,0.01992448486328125,0.9478884130859375
-0.19029998046875,-0.01487834228515625,1.0112961962890625
-0.28123603515625,0.0936966748046875,1.1317218310546875
-0.2766162890625,0.11771552734375,1.0992806396484376
-0.2630001953125,0.04002189208984375,1.0226014599609374
-0.3038484765625,0.19442880126953124,0.9599309765625
-0.226528515625,0.010856142578125,0.840488408203125
-0.26518849609375,-0.00605509033203125,0.820335546875
-0.21899103515625,0.01747358154296875,0.75840236328125
-0.19175884765625,0.07139345458984375,0.7414444677734375
-0.25497642578125,-0.03914228515625,0.8058353173828126
-0.213885,-0.06389640869140625,0.85474287109375
-0.2036729296875,-0.00360418701171875,0.8026403515625
-0.13607875,-0.08105273193359375,0.715638974609375
-0.1346198828125,-0.10972830078125,0.72104583984375
-0.12124693359375,-0.12516899169921875,0.79575888671875
-0.2668905078125,-0.03399538818359375,0.9795923046875
-0.279047734375,-0.05801424072265625,1.0997721728515626
-0.3135742578125,0.120656611328125,1.2093840771484374
-0.42663646484375,0.14099910888671874,1.120662333984375
-0.4312562109375,0.0917359521484375,0.98942296875
-0.36001486328125,0.140263837890625,0.920116787109375
-0.33642984375,0.106931552734375,0.867522734375
-0.29047552734375,-0.10213050048828125,0.8893959619140624
-0.16914640625,-0.1121792041015625,0.860149736328125
-0.28123603515625,-0.0023787353515625003,0.8616243359375
-0.17960162109375,0.024581201171875,0.9921264013671875
-0.3967296875,-0.0651218603515625,1.1445016943359374
-0.44706060546875,0.0289928271484375,1.3332504443359374
-0.4434134375,0.10202974609375,1.3111314501953124
-0.46602587890625,0.09737302978515625,1.1995534130859375
-0.41642439453125,0.1628121484375,1.079373544921875
-0.3145468359375,-0.03693647216796875,0.9950756005859375
-0.2873146484375,-0.083258544921875,0.9454307470703125
-0.25351755859375,-0.12320826904296875,0.8500733056640625
-0.13437673828125,-0.1190417333984375,0.7566819970703125
-0.13632189453125,-0.16830489013671876,0.7613515625
-0.2464663671875,-0.12663953369140624,0.9124980224609375
-0.33375525390625,-0.138158779296875,1.0943653076171875
-0.37703498046875,-0.092081796875,1.1845616503906249
-0.39940427734375,0.01012087158203125,1.13393373046875
-0.3466419140625,0.06404074462890624,1.0186691943359376
-0.2902323828125,0.087324326171875,0.9473968798828125
-0.282938046875,-0.046249904785156254,0.9316678173828125
-0.3067662109375,0.0191892138671875,0.9734481396484375
-0.24816837890625,0.0525214990234375,1.038084755859375
-0.299471875,-0.03154448486328125,1.0444746875
-0.397702265625,-0.0376717431640625,1.0385762890625
-0.34737134765625,0.04002189208984375,0.9975332666015625
-0.27005138671875,-0.0523771630859375,0.89209939453125
-0.39940427734375,0.04933532470703125,0.8948028271484375
-0.34396732421875,0.02139502685546875,0.9095488232421876
-0.28609892578125,0.0182088525390625,0.925032119140625
-0.43393080078125,0.12041152099609376,0.9407611816406249
-0.393811953125,0.08413815185546875,0.819844013671875
-0.29169125,0.1157548046875,0.662553388671875
-0.27540056640625,0.0897752294921875,0.5988998388671875
-0.18543708984375,0.0525214990234375,0.5767808447265625
-0.1944334375,-0.092081796875,0.799199619140625
-0.2153438671875,-0.0592396923828125,1.0781447119140626
-0.32281375,-0.0778665576171875,1.3126060498046874
-0.378250703125,-0.1092381201171875,1.33546234375
-0.30919765625,-0.06046514404296875,1.12410306640625
-0.2172890234375,-0.21928367919921876,0.9075826904296875
-0.18884111328125,-0.13301188232421876,0.863098935546875
-0.3057936328125,-0.0827683642578125,0.910286123046875
-0.31187224609374997,-0.07075893798828126,0.9891772021484375
-0.2022140625,-0.0259074072265625,0.890624794921875
-0.1929745703125,0.00521906494140625,0.827708544921875
-0.15869119140625,0.0137972265625,1.0189149609375
-0.2649453515625,0.0054641552734375,1.2821309912109375
-0.368524921875,0.1642826904296875,1.4458115478515625
-0.37314466796875,0.2476134033203125,1.4566252783203124
-0.42858162109375,0.05864875732421875,1.2555881982421875
-0.28318119140625,0.03904153076171875,1.0565172509765626
-0.30506419921875,0.0368357177734375,0.9218371533203125
-0.2756437109375,-0.03301502685546875,0.867522734375
-0.21801845703125,-0.12149263671875,0.8515479052734375
-0.23552486328125,-0.14771730224609375,0.9360916162109375
-0.27637314453125,-0.0582593310546875,1.1007552392578126
-0.3203823046875,-0.1273748046875,1.1769428857421875
-0.314060546875,-0.025662316894531252,1.221918173828125
-0.32597462890625,-0.0082609033203125,1.119679267578125
-0.35393625,-0.01683906494140625,1.0034316650390624
-0.3339983984375,0.00521906494140625,1.042017021484375
-0.3437241796875,0.08168724853515624,1.104933271484375
-0.37119951171875,0.065756376953125,0.9972875
-0.284883203125,-0.06046514404296875,0.91176072265625
-0.2532744140625,-0.06340622802734375,0.9095488232421876
-0.23017568359375,-0.13742350830078126,0.8913620947265625
-0.20926525390625,-0.169530341796875,0.8893959619140624
-0.28464005859375,-0.16462853515625,0.954032578125
-0.32646091796875,-0.13154134033203124,0.9901602685546875
-0.29825615234375,-0.0097314453125,1.0024485986328124
-0.382141015625,-0.0033590966796874996,0.9424815478515625
-0.2678630859375,0.050070595703125,0.915201455078125
-0.280992890625,0.0025230712890624996,0.921099853515625
-0.31089966796875,0.03928662109375,0.9842618701171875
-0.25084296875,-0.05311243408203125,1.079865078125
-0.34202216796875,-0.11193411376953125,1.0378389892578126
-0.20804953125,-0.0945327001953125,0.8318865771484375
-0.20829267578125,-0.10458140380859375,0.6760705517578125
-0.20002576171875,-0.140119501953125,0.6623076220703125
-0.25157240234375,-0.0621807763671875,0.6736128857421875
-0.36876806640625,-0.06095532470703125,0.8392595751953125
-0.32597462890625,-0.045024453125,0.9992536328125
-0.42031470703125,0.0701680029296875,1.0614325830078124
-0.42566388671875,0.1471263671875,0.95698177734375
-0.34980279296875,0.13707766357421874,0.7969877197265625
-0.2955815625,0.10668646240234375,0.6627991552734375
-0.2425760546875,0.1299700439453125,0.628146064453125
-0.1958923046875,0.08854977783203125,0.7886316552734375
-0.2561921484375,0.0701680029296875,0.9213456201171875
-0.3126016796875,0.06502110595703126,1.025304892578125
-0.36147373046875,-0.05090662109375,1.063644482421875
-0.35977171875,-0.14232531494140624,1.1093570703125
-0.3515048046875,-0.14820748291015626,1.1454847607421874
-0.35077537109375,-0.14281549560546875,1.103458671875
-0.3660934765625,-0.20310771728515625,1.0661021484375
-0.30700935546875,-0.08619962890625,1.0503730859375
-0.39089421875,-0.02615249755859375,1.038084755859375
-0.3500459375,0.03708080810546875,1.0584833837890626
-0.25205869140625,0.04296297607421875,1.0304659912109375
-0.40718490234375,-0.057278969726562504,0.949608779296875
-0.1920019921875,-0.046740085449218746,0.907336923828125
-0.2795340234375,-0.19918627197265626,0.8014115185546875
-0.28853037109375,-0.2160975048828125,0.8159117480468749
-0.28074974609375003,-0.24575343505859376,0.7964961865234375
-0.33375525390625,-0.2366850927734375,0.8844806298828125
-0.366579765625,-0.11781628173828125,0.995812900390625
-0.35977171875,-0.06144550537109375,1.1056705712890624
-0.370470078125,-0.01683906494140625,1.0889584423828125
-0.44535859375,-0.00777072265625,1.1110774365234375
-0.37314466796875,-0.02027032958984375,1.074458212890625
-0.37581925781250003,-0.05164189208984375,0.9808211376953125
-0.257651015625,-0.03203466552734375,0.9277355517578125
-0.22628537109375,-0.063651318359375,0.832623876953125
-0.31770771484375,-0.05458297607421875,0.788877421875
-0.31381740234375,-0.00703545166015625,0.9036504248046875
-0.33618669921875,-0.04428918212890625,0.9459222802734375
-0.45921783203125,-0.0018885546875000003,0.8490902392578125
-0.314060546875,-0.07051384765625,0.653705791015625
-0.1229489453125,-0.12075736572265625,0.617332333984375
-0.20099833984375,-0.08423890625,0.7812586572265625
-0.26421591796875,0.03610044677734375,0.921099853515625
-0.3320532421875,-0.01095689697265625,1.1135351025390625
-0.3388612890625,0.07457962890625,1.2167570751953125
-0.31235853515625,0.02433611083984375,1.1862820166015624
-0.2610550390625,0.050070595703125,1.279919091796875
-0.33570041015625,0.07776580322265625,1.2093840771484374
-0.37071322265625,0.042227705078125,1.146222060546875
-0.3578265625,0.0064445166015625,1.0638902490234374
-0.30992708984375,-0.1249239013671875,0.937811982421875
-0.23941517578125,-0.17320669677734374,0.7640549951171876
-0.19662173828125,-0.1092381201171875,0.6283918310546874
-0.16136578125,-0.022476142578125,0.6745959521484375
-0.2873146484375,-0.10360104248046875,0.8151744482421874
-0.3155194140625,-0.1366882373046875,1.00810123046875
-0.32281375,-0.0803174609375,1.13589986328125
-0.32281375,-0.17810850341796874,1.170798720703125
-0.21753216796875,-0.1386489599609375,1.1828412841796876
-0.32062544921875,-0.08693489990234375,1.1735021533203125
-0.43830740234375,0.0010525292968750002,1.1705529541015625
-0.465782734375,-0.02125069091796875,1.0633987158203124
-0.27637314453125,-0.187176845703125,0.8731753662109375
-0.09061072265625,-0.1808044970703125,0.8773533984374999
-0.14556138671875,-0.3070260180664062,0.996795966796875
-0.2027003515625,-0.2528610546875,1.102967138671875
-0.2396583203125,-0.02419177490234375,1.2147909423828125
-0.40961634765625,-0.015368522949218751,1.240596435546875
-0.44803318359375,0.05129604736328125,1.3649543359375
-0.48790888671875,0.17335103271484376,1.3986243603515625
-0.49617580078125,0.1015395654296875,1.2305200048828124
-0.2581373046875,-0.0661022216796875,0.9926179345703126
-0.259596171875,-0.042328459472656246,0.7689703271484375
-0.14556138671875,-0.1523740185546875,0.82131861328125
-0.22434021484375,-0.21389169189453125,1.0987891064453126
-0.3408064453125,-0.0033590966796874996,1.459820244140625
-0.46553958984375,-0.22222476318359374,1.5165923291015626
-0.47332021484375,-0.155805283203125,1.2673849951171876
-0.4964189453125,-0.03252484619140625,1.0009739990234374
-0.37800755859375,-0.19183356201171875,0.7006472119140625
-0.17036212890625,-0.1543347412109375,0.5664586474609374
-0.21072412109375,-0.144040947265625,0.5354920556640625
-0.1774133203125,-0.18031431640625,0.4566009765625
-0.0889087109375,-0.18987283935546875,0.5384412548828125
-0.2912049609375,-0.10458140380859375,0.7532412646484374
-0.370470078125,0.0093856005859375,0.9999909326171875
-0.35320681640625,-0.0562986083984375,1.3661831689453126
-0.5336200585937501,0.08021670654296875,1.5858985107421875
-0.4438997265625,0.1985953369140625,1.550262353515625
-0.34542619140624997,0.02531647216796875,1.3180129150390625
-0.33083751953125,-0.03889719482421875,1.057746083984375
-0.32500205078125,-0.1553151025390625,0.8839890966796875
-0.3923530859375,-0.1523740185546875,0.757910830078125
-0.317950859375,-0.2151171435546875,0.6254426318359375
-0.2785614453125,-0.14673694091796874,0.4922371337890625
-0.212912421875,-0.142080224609375,0.43374468261718746
-0.14215736328125,-0.14036459228515624,0.400074658203125
-0.23066197265625,-0.10311086181640625,0.4165410205078125
-0.2853694921875,-0.09722869384765626,0.5114069287109375
-0.31333111328125,-0.1102184814453125,0.71907970703125
-0.35077537109375,-0.0567887890625,0.999745166015625
-0.456056953125,-0.083258544921875,1.224867373046875
-0.46213556640625,-0.05703387939453125,1.26369849609375
-0.214857578125,-0.1866866650390625,1.1646545556640624
0.005431367187500001,-0.1876670263671875,0.9559987109375
0.0545465625,-0.18791211669921876,0.89996392578125
-0.09109701171875,-0.24330253173828126,1.0157199951171876
-0.304334765625,-0.1200220947265625,1.010558896484375
-0.35028908203125,-0.083258544921875,0.9835245703125
-0.41812640624999997,-0.0415931884765625,0.9815584374999999
-0.39162365234375,-0.014633251953124999,1.02383029296875
-0.37946642578125,0.10962754638671875,1.0914161083984375
-0.43295822265625,0.07261890625,0.8871840625
-0.366579765625,-0.0038492773437499997,0.8223016796875
-0.3330258203125,-0.155805283203125,0.917167587890625
-0.3656071875,-0.1464918505859375,0.9852449365234375
-0.21801845703125,-0.29035987548828124,0.962388642578125
-0.162338359375,-0.14085477294921875,0.938795048828125
-0.4108320703125,-0.13252170166015625,0.80165728515625
-0.37265837890625,-0.08840544189453126,0.7856824560546875
-0.3038484765625,-0.089140712890625,0.887675595703125
-0.33861814453125,-0.14036459228515624,1.0179318945312499
-0.46602587890625,-0.07271966064453125,0.9577190771484375
-0.3408064453125,-0.159726728515625,0.8643277685546875
-0.1550440234375,-0.26339993896484376,0.882760263671875
-0.294608984375,-0.10286577148437501,0.9518206787109375
-0.29193439453125003,-0.24722397705078125,1.102967138671875
-0.30944080078125,-0.21291133056640624,1.2784444921875
-0.413263515625,-0.19526482666015624,1.20274837890625
-0.45289607421875,-0.2386458154296875,1.0737209130859375
-0.16525609375,-0.15359947021484374,1.0280083251953125
-0.34493990234375,-0.1788437744140625,1.0604495166015624
-0.34810078125,-0.1308060693359375,1.1410609619140626
-0.41982841796875,-0.09281706787109376,0.9316678173828125
-0.41593810546875,-0.12124754638671875,0.8844806298828125
-0.14021220703125,-0.13987441162109376,0.878827998046875
-0.3865176171875,-0.151883837890625,0.94518498046875
-0.30530734375,-0.159726728515625,0.9798380712890625
-0.35174794921875,-0.132276611328125,1.001219765625
-0.32257060546875,-0.10507158447265624,1.0879753759765625
-0.3145468359375,-0.20849970458984374,1.0464408203125
-0.4400094140625,-0.13105115966796876,1.1155012353515625
-0.4614061328125,-0.19036302001953126,1.069542880859375
-0.34202216796875,-0.20849970458984374,0.85081060546875
-0.346155625,-0.09281706787109376,0.7257154052734375
-0.32475890625,-0.16095218017578125,0.6475616259765625
-0.23017568359375,-0.21291133056640624,0.573094345703125
-0.17230728515625,-0.0817880029296875,0.70138451171875
-0.338375,-0.10801266845703125,0.8360646093749999
-0.214857578125,-0.15114856689453124,0.9609140429687499
-0.29436583984375,-0.0494360791015625,1.084288876953125
-0.45338236328125,-0.040122646484374996,1.2575543310546875
-0.3660934765625,-0.07860182861328124,1.1808751513671876
-0.31333111328125,-0.1631579931640625,1.1651460888671874
-0.34834392578125,-0.05605351806640625,1.1961126806640625
-0.26081189453125,-0.20457825927734374,0.97271083984375
-0.3057936328125,-0.20948006591796875,0.830657744140625
-0.21850474609375,-0.19575500732421874,0.713672841796875
-0.22044990234375,-0.22271494384765625,0.7237492724609375
-0.1326747265625,-0.20114699462890626,0.8783364648437499
-0.288773515625,-0.11585555908203125,1.1518746923828125
-0.37119951171875,-0.0190448779296875,1.2339607373046875
-0.3738741015625,-0.16634416748046876,1.05135615234375
-0.30798193359375,-0.1337471533203125,1.0624156494140624
-0.28950294921874997,-0.07811164794921875,1.001219765625
-0.36755234375,-0.1935491943359375,1.002694365234375
-0.30530734375,-0.18202994873046874,1.043000087890625
-0.28950294921874997,-0.21438187255859376,0.989914501953125
-0.3164919921875,-0.189137568359375,0.878827998046875
-0.3242726171875,-0.068553125,1.0171945947265626
-0.20975154296875,-0.14428603759765624,1.16735798828125
-0.32889236328125,-0.0729647509765625,1.1838243505859376
-0.34250845703125,-0.0631611376953125,1.1970957470703125
-0.4380642578125,-0.11536537841796875,1.0978060400390626
-0.249870390625,-0.2768799072265625,0.9223286865234375
-0.3164919921875,-0.13252170166015625,0.828691611328125
-0.25497642578125,-0.0592396923828125,0.7827332568359375
-0.24768208984375,-0.29085005615234377,0.7915808544921875
-0.25205869140625,-0.083258544921875,0.95894791015625
-0.32208431640625,-0.14477621826171874,0.99630443359375
-0.34007701171875,-0.13791368896484374,1.01399962890625
-0.28464005859375,-0.0308092138671875,1.113780869140625
-0.2955815625,-0.06977857666015624,1.1312302978515625
-0.3349709765625,-0.08497417724609375,1.1250861328125
-0.29144810546875,-0.0494360791015625,1.1489254931640625
-0.27515742187500003,-0.16634416748046876,1.0815854443359374
-0.32402947265625,-0.01732924560546875,1.0486527197265625
-0.33108066406250003,-0.02517213623046875,0.8751414990234375
-0.37654869140625,-0.045024453125,0.874895732421875
-0.30068759765624997,-0.05703387939453125,0.9238032861328125
-0.24573693359375,-0.123453359375,0.796250419921875
-0.14629082031250001,-0.034240478515625,0.8658023681640625
-0.314060546875,-0.10948321044921874,1.0031858984375
-0.25157240234375,-0.12663953369140624,1.096085673828125
-0.32694720703125,-0.07419020263671874,1.2629611962890626
-0.4225030078125,0.09835339111328124,1.2192147412109375
-0.43441708984375,0.0868341455078125,1.0530765185546875
-0.46164927734375,-0.02321141357421875,0.9700074072265625
-0.2309051171875,-0.18448085205078124,0.98647376953125
-0.3184371484375,-0.13791368896484374,0.96681244140625
-0.40645546875,-0.124433720703125,0.867522734375
-0.2416034765625,-0.20653898193359374,0.75643623046875
-0.2017277734375,-0.23889090576171876,0.661570322265625
-0.19175884765625,-0.061690595703125004,0.6996641455078125
-0.206104375,-0.16046199951171874,0.85277673828125
-0.3116291015625,-0.09820905517578125,0.9832788037109375
-0.3816547265625,7.216796875000007e-05,1.030220224609375
-0.38505875,-0.09918941650390625,1.0855177099609374
-0.20148462890625,-0.0317895751953125,1.2133163427734375
-0.3952708203125,-0.01585870361328125,1.2152824755859375
-0.405482890625,-0.06732767333984375,1.128526865234375
-0.3913805078125,-0.04698517578125,0.98647376953125
-0.36487775390625,-0.044534272460937496,0.8176321142578125
-0.12635296875,-0.09869923583984375,0.74070716796875
-0.2367405859375,-0.06389640869140625,0.80362341796875
-0.1443456640625,-0.042083369140625,0.883743330078125
-0.31478998046875,-0.106787216796875,0.9085657568359375
-0.35904228515625003,-0.0955130615234375,0.9808211376953125
-0.30214646484375,-0.06977857666015624,1.01006736328125
-0.279047734375,-0.09183670654296874,0.9186421875
-0.37703498046875,-0.0582593310546875,1.1073909375
-0.3145468359375,-0.0464949951171875,1.21061291015625
-0.292663828125,-0.151883837890625,1.166374921875
-0.24233291015625,-0.061690595703125004,1.13393373046875
-0.2892598046875,-0.100905048828125,0.9940925341796875
-0.37533296875,-0.13105115966796876,0.9360916162109375
-0.18592337890625,-0.163648173828125,0.8889044287109376
-0.22190876953125,-0.08105273193359375,0.9390408154296875
-0.19662173828125,-0.1386489599609375,0.8891501953125
-0.09595990234375,-0.18202994873046874,0.9100403564453124
-0.37338781249999997,-0.018554697265625,0.9677955078125
-0.3111428125,-0.08595453857421875,1.1703071875
-0.37314466796875,-0.15163874755859374,1.30695341796875
-0.38676076171875,-0.01683906494140625,1.2983515869140625
-0.30652306640625,0.04320806640625,1.0638902490234374
-0.36001486328125,-0.05874951171875,0.7640549951171876
-0.2736985546875,-0.06585713134765625,0.6800028173828125
-0.14750654296875,-0.140119501953125,0.6947488134765625
-0.2347954296875,-0.1043363134765625,0.807064150390625
-0.32086859375,-0.1259042626953125,0.8537598046875
-0.3524773828125,-0.1190417333984375,0.9606682763671874
-0.34785763671875003,-0.0827683642578125,0.8967689599609375
-0.22239505859375,0.05864875732421875,0.842454541015625
-0.12708240234375,0.024581201171875,0.8063268505859374
-0.18543708984375,0.0059543359375,0.757419296875
-0.23552486328125,0.0544822216796875,0.81935248046875
-0.27880458984375,0.063795654296875,0.94715111328125
-0.3709563671875,0.034384814453125,1.104933271484375
-0.2795340234375,0.00178780029296875,1.159001923828125
-0.28755779296875,-0.00948635498046875,1.1921804150390625
-0.39818855468750003,-0.02664267822265625,1.135408330078125
-0.330594375,-0.060710234375,0.9402696484374999
-0.17814275390625,-0.07173929931640625,0.81738634765625
-0.1482359765625,-0.04821062744140625,0.9385492822265625
-0.24670951171875,-0.1023755908203125,1.0270252587890625
-0.27418484375,-0.11732610107421874,1.099034873046875
-0.27685943359375,-0.14085477294921875,1.202256845703125
-0.3748466796875,-0.16462853515625,1.2147909423828125
-0.42663646484375,-0.12222790771484375,1.214053642578125
-0.38919220703125,-0.037916833496093746,1.1833328173828126
-0.47186134765625,-0.08840544189453126,1.009575830078125
-0.2328502734375,-0.1945295556640625,0.792318154296875
-0.2192341796875,-0.138158779296875,0.636010595703125
-0.25935302734375,-0.104826494140625,0.567195947265625
-0.1735230078125,-0.1749223291015625,0.574077412109375
-0.26616107421875,-0.1660990771484375,0.62077306640625
-0.3281629296875,-0.05556333740234375,0.8215643798828125
-0.36098744140625,-0.03742665283203125,0.9837703369140625
-0.23819945312500002,0.06306038330078124,1.136391396484375
-0.31868029296875,0.2137909375,1.2025026123046876
-0.37849384765625,0.24883885498046876,1.27352916015625
-0.34299474609375,0.14688127685546876,1.223884306640625
-0.28512634765625,0.0564429443359375,1.1056705712890624
-0.3388612890625,0.04002189208984375,1.0103131298828125
-0.21753216796875,-0.0817880029296875,0.9665666748046875
-0.28950294921874997,-0.096983603515625,0.9095488232421876
-0.28123603515625,-0.044534272460937496,0.84884447265625
-0.24306234375,-0.07443529296875,0.926998251953125
-0.35977171875,-0.09820905517578125,1.0265337255859375
-0.3349709765625,-0.0121823486328125,1.0688055810546875
-0.31576255859375,-0.044044091796875,1.073475146484375
-0.34493990234375,-0.051886982421875,0.954524111328125
-0.29169125,-0.06585713134765625,0.8262339453125
-0.279047734375,-0.068553125,0.7458682666015625
-0.226528515625,-0.067572763671875,0.7281730712890625
-0.252788125,-0.0239466845703125,0.787402822265625
-0.29387955078125,0.01257177490234375,0.9992536328125
-0.34104958984375,0.016738310546875,1.056763017578125
-0.30871136718750003,0.08609887451171874,0.9990078662109375
-0.2912049609375,0.1044806494140625,0.9744312060546875
-0.08283009765625,-0.0455146337890625,1.0221099267578124
-0.2192341796875,0.010856142578125,1.26566462890625
-0.4798851171875,-0.01634888427734375,1.3455387744140626
-0.34348103515625,-0.0631611376953125,1.2836055908203126
-0.36001486328125,0.019434304199218752,1.1169758349609376
-0.2552195703125,-0.0700236669921875,1.1282810986328125
-0.30846822265625,-0.0847290869140625,1.1277895654296874
-0.31989601562500003,-0.0396324658203125,0.9793465380859375
-0.20342978515625,-0.11757119140625,0.7790467578125
-0.1939471484375,-0.15997181884765624,0.5664586474609374
-0.1229489453125,-0.17222633544921875,0.5232037255859375
-0.049519296875,-0.2062938916015625,0.54999228515625
-0.203186640625,-0.02615249755859375,0.74857169921875
-0.33472783203125,-0.03350520751953125,0.977626171875
-0.32986494140625,0.0299731884765625,1.21061291015625
-0.49860724609375,0.0878145068359375,1.2924531884765624
-0.22239505859375,0.08854977783203125,1.0860092431640624
-0.11832919921875,0.2466330419921875,1.0142453955078126
-0.26664736328125,0.06649164794921875,0.97467697265625
-0.18543708984375,0.03119864013671875,1.13196759765625
-0.3213548828125,0.0309535498046875,1.1951296142578125
-0.3709563671875,-0.10188541015625,1.1132893359375
-0.2571647265625,-0.04428918212890625,0.974185439453125
-0.27588685546875,-0.18104958740234375,0.8181236474609375
-0.26227076171875,-0.18055940673828125,0.842454541015625
-0.2824517578125,-0.2371752734375,0.8154202148437499
-0.25011353515625,-0.15850127685546875,0.71514744140625
-0.237226875,0.0025230712890624996,0.728418837890625
-0.2814791796875,0.103010107421875,0.7198170068359375
-0.2454937890625,0.08903995849609375,0.9007012255859375
-0.3203823046875,0.0456589697265625,1.160968056640625
-0.44511544921875,-0.0170841552734375,1.24010490234375
-0.26081189453125,0.075559990234375,1.2369099365234375
-0.3767918359375,0.04541387939453125,1.1125520361328125
-0.35709712890625,-0.04036773681640625,0.8692431005859375
-0.304334765625,-0.1033559521484375,0.7232577392578124
-0.224583359375,-0.012672529296875,0.6915538476562499
-0.16015005859375,0.0593840283203125,0.7672499609375
-0.22944625,-0.0332601171875,0.8549886376953125
-0.20829267578125,-0.10703230712890625,1.0147369287109376
-0.27491427734375,-0.05164189208984375,1.165883388671875
-0.3602580078125,-0.067572763671875,1.2265877392578124
-0.366579765625,-0.08840544189453126,1.242562568359375
-0.41812640624999997,-0.013162709960937501,1.16244265625
-0.39575710937499997,0.12923477294921876,1.001711298828125
-0.3116291015625,0.0358553564453125,0.8380307421875
-0.21510072265625,0.0182088525390625,0.7650380615234375
-0.16015005859375,-0.02076051025390625,0.8358188427734374
-0.3797095703125,-0.05360261474609375,0.94911724609375
-0.3189234375,-0.07762146728515625,0.90389619140625
-0.26907880859375,-0.09281706787109376,0.840488408203125
-0.29169125,0.09418685546875,0.89799779296875
-0.44730375,-0.00213364501953125,0.8825144970703125
-0.162338359375,-0.0435539111328125,0.8299204443359375
-0.21412814453125,0.04933532470703125,0.843437607421875
-0.299471875,-0.140119501953125,0.9714820068359376
-0.3446967578125,-0.09036616455078125,1.0776531787109376
-0.27005138671875,-0.1195319140625,1.1250861328125
-0.1141957421875,-0.0798272802734375,1.214053642578125
-0.49568951171875,-0.028358310546875,1.300071953125
-0.17692703125,-0.1837455810546875,1.2895039892578124
-0.3291355078125,0.020659755859375,1.2482152001953124
-0.4555706640625,-0.10654212646484375,0.9773804052734375
-0.277102578125,-0.1587463671875,0.8515479052734375
-0.2591098828125,-0.28790897216796874,0.7672499609375
-0.15188314453125001,-0.1523740185546875,0.702367578125
-0.0840458203125,-0.027868129882812502,0.704825244140625
-0.1579617578125,-0.1013952294921875,0.633061396484375
-0.18592337890625,-0.0317895751953125,0.6932742138671875
-0.23260712890625002,-0.06267095703125,0.8903790283203125
-0.18227621093750002,-0.10213050048828125,1.178663251953125
-0.26251390625,-0.07811164794921875,1.456871044921875
-0.4351465234375,0.04247279541015625,1.61760240234375
-0.40961634765625,0.03144373046875,1.3838783642578125
-0.34688505859375,0.0672269189453125,1.0555341845703126
-0.38457246093749997,-0.02223105224609375,0.846386806640625
-0.2143712890625,-0.1092381201171875,0.7640549951171876
-0.13778076171875,0.05178622802734375,0.722520439453125
-0.1093328515625,0.014777587890624999,0.7635634619140625
-0.1034973828125,-0.049926259765625,0.9429730810546875
-0.28269490234375,-0.030319033203124998,1.153103525390625
-0.36293259765625,-0.0018885546875000003,1.2430541015625
-0.45630009765625,-0.02419177490234375,1.224867373046875
-0.268349375,0.12874459228515625,1.10837400390625
-0.33959072265625,0.02678701416015625,0.955507177734375
-0.28585578125,-0.14477621826171874,0.890624794921875
-0.216802734375,-0.11781628173828125,0.868014267578125
-0.3865176171875,-0.1660990771484375,0.8694888671875
-0.29290697265625,-0.1509034765625,0.8616243359375
-0.2299325390625,-0.07713128662109375,0.9636174755859375
-0.23260712890625002,-0.10605194580078126,1.0275167919921875
-0.1851939453125,-0.1690401611328125,0.978117705078125
-0.1550440234375,-0.10164031982421876,0.9419900146484375
-0.23406599609375,-0.169530341796875,0.8043607177734375
-0.25108611328125,-0.17761832275390624,0.7660211279296875
-0.2124261328125,-0.08619962890625,0.83311541015625
-0.3262177734375,-0.1219828173828125,0.986965302734375
-0.29242068359375,-0.16487362548828124,1.0358728564453126
-0.31624884765625,-0.08840544189453126,1.1204165673828126
-0.33642984375,-0.008751083984375,1.1764513525390625
-0.30457791015625,0.036345537109375,1.159984990234375
-0.27418484375,0.06355056396484375,1.12606919921875
-0.268349375,0.02286556884765625,1.05725455078125
-0.24768208984375,0.06845237060546874,1.0368559228515626
-0.29582470703125,-0.0023787353515625003,0.903404658203125
-0.19953947265625,-0.05850442138671875,0.7987080859375
-0.1083602734375,0.0387964404296875,0.8112421826171875
-0.26421591796875,-0.193059013671875,0.9965502001953125
-0.21412814453125,0.01110123291015625,1.0496357861328125
-0.12246265625,-0.08546435791015625,1.024321826171875
-0.3592854296875,-0.1352176953125,1.0584833837890626
-0.37168580078125,0.0843832421875,1.189968515625
-0.23795630859375,-0.02223105224609375,1.0019570654296874
-0.259596171875,-0.0724745703125,0.9115149560546875
-0.27880458984375,0.0059543359375,0.8815314306640625
-0.26178447265625,-0.19722554931640626,0.8205813134765625
-0.30068759765624997,-0.10580685546875,0.8864467626953125
-0.23260712890625002,-0.21291133056640624,0.890624794921875
-0.15966376953125,-0.2396261767578125,1.0147369287109376
-0.29679728515625,-0.03840701416015625,1.1644087890625
-0.3330258203125,-0.10286577148437501,1.1666206884765624
-0.3495596484375,-0.0651218603515625,0.9803296044921875
-0.26664736328125,-0.0396324658203125,0.8736668994140625
-0.20634751953125,-0.059484782714843754,0.818860947265625
-0.18495080078125,-0.0055649096679687505,0.74070716796875
-0.14653396484375,-0.03840701416015625,0.7613515625
-0.15188314453125001,-0.11830646240234374,0.8810398974609375
-0.3349709765625,0.0010525292968750002,1.101984072265625
-0.44268400390625,-0.0175743359375,1.242562568359375
-0.2785614453125,-0.04723026611328125,1.2388760693359375
-0.2892598046875,0.0211499365234375,1.083305810546875
-0.234309140625,-0.0582593310546875,0.907336923828125
-0.29922873046875,-0.06389640869140625,0.914218388671875
-0.2707808203125,0.02580665283203125,0.84491220703125
-0.19564916015625,-0.0219859619140625,0.814928681640625
-0.159420625,-0.029338671875,0.8245135791015625
-0.18106048828125,-0.0464949951171875,0.9552614111328125
-0.21023783203125002,-0.02076051025390625,0.9891772021484375
-0.27102396484375,-0.048455717773437504,1.0034316650390624
-0.28391062499999997,-0.05360261474609375,1.0167030615234376
-0.22361078125,0.04443351806640625,1.0621698828125
-0.36487775390625,-0.1974706396484375,0.927981318359375
-0.12805498046875,-0.1533543798828125,0.911269189453125
-0.11298001953125,-0.0974737841796875,0.902421591796875
-0.33132380859375,-0.17467723876953126,0.8952943603515625
-0.168173828125,-0.13154134033203124,0.9193794873046874
-0.16452666015625,-0.157766005859375,0.97271083984375
-0.15528716796875,-0.051886982421875,1.0928907080078125
-0.07602205078125,-0.06046514404296875,1.0958399072265625
-0.20464550781250002,-0.029338671875,1.0142453955078126
-0.08769298828125,-0.122472998046875,0.9346170166015625
-0.2367405859375,-0.1396293212890625,0.9921264013671875
-0.2425760546875,-0.00581,0.99237216796875
-0.1871391015625,-0.0719843896484375,0.9026673583984375
-0.23819945312500002,0.01404231689453125,0.903404658203125
-0.38627447265625,-0.06267095703125,0.938303515625
-0.3578265625,-0.12320826904296875,0.82918314453125
-0.34737134765625,-0.10065995849609374,0.7365291357421875
-0.1827625,0.087324326171875,0.7318595703125
-0.15966376953125,-0.01438816162109375,0.635027529296875
-0.17668388671875,-0.006790361328125,0.7301392041015625
-0.26859251953125,0.0829127001953125,0.8667854345703125
-0.21510072265625,0.05325677001953125,0.8658023681640625
-0.1550440234375,0.01575794921875,0.8279543115234375
-0.098148203125,-0.01634888427734375,0.8825144970703125
-0.1744955859375,0.06281529296875,0.9717277734375
-0.3320532421875,0.08707923583984375,1.166374921875
-0.43101306640625,0.05913893798828125,1.2870463232421876
-0.39113736328125,0.03315936279296875,1.2548508984375
-0.407428046875,0.05497240234375,1.1636714892578124
-0.37654869140625,0.06649164794921875,0.9714820068359376
-0.20975154296875,0.10864718505859375,0.816894814453125
-0.1560166015625,-0.032279755859375,0.7719195263671875
-0.21364185546875,0.09786321044921875,0.82328474609375
-0.11468203125,0.055462583007812497,0.9127437890625
-0.23114826171875,-0.07468038330078125,0.983033037109375
-0.3126016796875,-0.01953505859375,1.0009739990234374
-0.15917748046875,-0.0612004150390625,0.9284728515625
-0.16549923828125,-0.08938580322265625,0.837539208984375
-0.08380267578125,-0.19403937500000001,0.777572158203125
-0.1871391015625,-0.2170778662109375,0.916184521484375
-0.34104958984375,-0.1406096826171875,1.1508916259765625
-0.45702953125,-0.11879664306640625,1.252393232421875
-0.3524773828125,0.01159141357421875,1.09854333984375
-0.245980078125,0.0010525292968750002,0.9798380712890625
-0.247925234375,-0.049926259765625,0.915201455078125
-0.24379177734375002,0.04002189208984375,0.799199619140625
-0.11638404296875,0.07678544189453125,0.8033776513671875
-0.09304216796875,-0.057769150390625,0.8495817724609375
-0.21412814453125,-0.068553125,0.9321593505859375
-0.18227621093750002,-0.10115013916015625,1.0343982568359376
-0.30555048828125,-0.0602200537109375,1.105916337890625
-0.30530734375,-0.0886505322265625,0.9842618701171875
-0.28074974609375003,-0.0935523388671875,0.86457353515625
-0.29752671875000003,-0.0543378857421875,0.926015185546875
-0.317950859375,0.05227640869140625,1.1211538671875
-0.36244630859375,0.09492212646484376,1.1258234326171874
-0.244034921875,0.1348718505859375,1.260749296875
-0.28853037109375,0.15423398681640624,1.2836055908203126
-0.304334765625,0.20472259521484376,1.2162655419921875
-0.24476435546875,0.1554594384765625,1.1061621044921874
-0.25983931640625,-0.10801266845703125,1.055779951171875
-0.12270580078125,-0.23791054443359375,0.9626344091796875
-0.18106048828125,-0.1317864306640625,0.846386806640625
-0.14191421875,-0.15457983154296875,0.8360646093749999
-0.19856689453125,-0.19281392333984376,0.8456495068359375
-0.1978374609375,-0.14477621826171874,0.93437125
-0.352963671875,-0.112669384765625,1.101984072265625
-0.39867484375,-0.047965537109375,1.122628466796875
-0.22628537109375,-0.06585713134765625,0.936828916015625
-0.2027003515625,-0.01879978759765625,0.9051250244140625
-0.06848457031249999,-0.11781628173828125,0.9311762841796875
-0.1599069140625,-0.14330567626953125,1.0088385302734375
-0.22677166015625,0.0309535498046875,1.193409248046875
-0.36974064453125,0.0250713818359375,1.1528577587890625
-0.23819945312500002,-0.10703230712890625,0.9473968798828125
-0.037848359375,0.06600146728515625,0.914709921875
-0.129270703125,-0.1788437744140625,0.7812586572265625
-0.1044699609375,-0.098944326171875,0.7950215869140624
-0.269321953125,-0.04526954345703125,0.9183964208984375
-0.3485870703125,-0.1161006494140625,1.0668394482421875
-0.29825615234375,-0.0768861962890625,1.040542421875
-0.277102578125,-0.014633251953124999,0.9606682763671874
-0.22823052734375,0.1314405859375,1.0049062646484375
-0.29825615234375,-0.0474753564453125,0.974185439453125
-0.24525064453125,0.06011929931640625,1.044966220703125
-0.40718490234375,-0.0097314453125,1.1010010058593749
-0.1744955859375,-0.07566074462890625,1.1390948291015626
-0.1890842578125,-0.02027032958984375,1.043983154296875
-0.2065906640625,-0.12663953369140624,0.9660751416015625
-0.14969484375,-0.15801109619140624,0.8871840625
-0.26616107421875,-0.09183670654296874,0.8908705615234375
-0.25692158203125,-0.2180582275390625,0.8834975634765625
-0.2921775390625,-0.17810850341796874,0.9233117529296875
-0.2406308984375,-0.0641414990234375,0.9695158740234375
-0.07748091796875001,-0.052867343750000004,0.9606682763671874
-0.17230728515625,-0.032279755859375,1.1322133642578125
-0.37217208984375,-0.06732767333984375,1.1813666845703126
-0.42128728515625,-0.0180645166015625,1.1626884228515626
-0.34007701171875,0.00423870361328125,1.029237158203125
-0.14653396484375,-0.1298257080078125,0.893573994140625
-0.10082279296875,-0.18987283935546875,0.757910830078125
-0.2338228515625,-0.23693018310546876,0.7817501904296875
-0.23357970703125,-0.21095060791015624,0.7318595703125
-0.12805498046875,-0.19036302001953126,0.6524769580078125
-0.08428896484375001,-0.1308060693359375,0.6709094531249999
-0.18349193359375,-0.09624833251953124,0.8662939013671875
-0.284883203125,-0.0680629443359375,0.9631259423828125
-0.39697283203125,-0.0651218603515625,0.9621428759765625
-0.34299474609375,0.00570924560546875,0.9085657568359375
-0.22361078125,-0.01046671630859375,0.8576920703124999
-0.31333111328125,0.067717099609375,0.937811982421875
-0.21169669921875,-0.09967959716796874,0.9267524853515625
-0.14458880859375,-0.05654369873046875,0.8338527099609375
-0.10301109375,0.061834931640625,0.655671923828125
-0.127325546875,-0.10115013916015625,0.5568737500000001
-0.1180860546875,-0.0857094482421875,0.5512211181640625
-0.13826705078125,-0.06659240234375,0.6972064794921875
-0.1453182421875,-0.07419020263671874,0.9820499707031249
-0.22677166015625,-0.1229631787109375,1.335953876953125
-0.3826273046875,-0.1611972705078125,1.4128788232421874
-0.2566784375,-0.169530341796875,1.3455387744140626
-0.2873146484375,-0.12467881103515625,1.0884669091796875
-0.377278125,-0.1200220947265625,0.8653108349609375
-0.212912421875,-0.1430605859375,0.870963466796875
-0.21169669921875,-0.16438344482421874,0.8171405810546875
-0.10519939453125,-0.21095060791015624,0.72694423828125
-0.0198556640625,-0.06487677001953125,0.82328474609375
-0.230418828125,-0.14477621826171874,0.8572005371093749
-0.14361623046875,-0.21585241455078125,0.923065986328125
-0.1404553515625,-0.1729616064453125,1.101984072265625
-0.37314466796875,-0.0964934228515625,1.2339607373046875
-0.28269490234375,-0.05997496337890625,1.2639442626953126
-0.317950859375,-0.0837487255859375,1.24108796875
-0.42809533203125,0.0074248779296875,1.2575543310546875
-0.48304599609375,-0.09183670654296874,1.0692971142578125
-0.4098594921875,-0.159726728515625,0.9002096923828125
-0.38141158203125003,-0.1023755908203125,0.7394783349609375
-0.2104809765625,0.03144373046875,0.6532142578125
-0.117599765625,0.02874773681640625,0.6274087646484375
0.00810595703125,0.04345315673828125,0.69351998046875
-0.0704297265625,0.07580508056640625,0.8485987060546875
-0.164283515625,-0.11438501708984375,1.0343982568359376
-0.17279357421875,-0.053847705078125,1.390022529296875
-0.34688505859375,0.03217900146484375,1.68838318359375
-0.5858961328125,-0.1268846240234375,1.6021191064453124
-0.46359443359375,-0.17124597412109374,1.28139369140625
-0.323786328125,-0.1288453466796875,1.0339067236328126
-0.3344846875,-0.22712656982421875,0.8365561425781249
-0.2960678515625,-0.16634416748046876,0.89603166015625
-0.37654869140625,-0.11732610107421874,0.854251337890625
-0.284883203125,-0.14109986328125,0.6401886279296874
-0.1944334375,-0.1626678125,0.5109153955078125
-0.038091503906250004,-0.18595139404296876,0.45561791015625
-0.002835546875000001,-0.15654055419921875,0.4376769482421875
0.040930468750000004,-0.09379742919921875,0.646824326171875
0.0010547656249999988,-0.10188541015625,1.040542421875
-0.29922873046875,-0.1082577587890625,1.345784541015625
-0.30919765625,-0.0001729223632812504,1.5254399267578125
-0.2017277734375,-0.00997653564453125,1.553211552734375
-0.15625974609374998,0.01649322021484375,1.55468615234375
-0.3690112109375,-0.0817880029296875,1.5116769970703126
-0.27880458984375,-0.12811007568359375,1.4792358056640624
-0.3923530859375,-0.36094589111328124,1.2216724072265626
-0.49423064453125,-0.29085005615234377,1.1268064990234374
-0.43101306640625,-0.2111956982421875,0.942727314453125
-0.1710915625,-0.098944326171875,0.784453623046875
0.0076196679687500005,-0.10164031982421876,0.789368955078125
0.04214619140625,-0.085219267578125,0.8574463037109374
-0.072861171875,-0.2543315966796875,0.9992536328125
-0.143859375,-0.35555390380859375,1.2020110791015626
-0.25205869140625,-0.34501501953125,1.2988431201171875
-0.330594375,-0.19820591064453125,1.0778989453125
-0.4234755859375,-0.1690401611328125,0.8132083154296875
-0.35393625,-0.204823349609375,0.6886046484375
-0.30603677734375,-0.25457668701171876,0.642892060546875
-0.31746457031249997,-0.10262068115234375,0.9193794873046874
-0.26251390625,0.032424091796875,1.134425263671875
-0.2814791796875,0.09835339111328124,1.2113502099609375
-0.33983386718749997,0.03904153076171875,1.134425263671875
-0.2571647265625,-0.120512275390625,0.8441749072265625
-0.0179105078125,0.00178780029296875,0.7483259326171875
0.0316909765625,-0.05752406005859375,0.771673759765625
0.07180982421875,-0.12811007568359375,0.894557060546875
-0.1803310546875,-0.22271494384765625,1.0732293798828125
-0.27418484375,-0.3151139990234375,1.1022298388671874
-0.30895451171875,-0.28349734619140626,0.945676513671875
-0.3505322265625,-0.17565760009765624,0.8962774267578125
-0.36001486328125,-0.09379742919921875,0.741690234375
-0.38092529296875,-0.07271966064453125,0.663536455078125
-0.354908828125,0.00570924560546875,0.6396970947265626
-0.2211793359375,0.010856142578125,0.7345630029296875
-0.16063634765625,0.08242251953125,0.938795048828125
-0.207076953125,0.06404074462890624,1.1656376220703124
-0.14945169921875,0.028502646484374998,1.2624696630859376
-0.1861665234375,0.13560712158203125,1.3273520458984376
-0.23892888671875,0.032424091796875,1.08871267578125
-0.251815546875,-0.03399538818359375,0.9449392138671875
-0.20415921875,-0.07443529296875,0.79772501953125
-0.15431458984375,-0.1509034765625,0.7276815380859375
0.0404441796875,-0.26634102294921874,0.7650380615234375
-0.0752926171875,-0.2842326171875,1.1209081005859376
-0.51757251953125,-0.0808076416015625,1.398870126953125
-0.6846128125,-0.12565917236328125,1.4099296240234376
-0.40232201171875,-0.01830960693359375,1.391005595703125
-0.2192341796875,-0.04134809814453125,1.232731904296875
-0.28220861328125,-0.0602200537109375,1.0825685107421874
-0.263486484375,-0.18742193603515625,0.9090572900390625
-0.24768208984375,-0.17663796142578125,0.8402426416015625
-0.1365650390625,-0.15286419921875,0.685163916015625
-0.1239215234375,-0.16879507080078124,0.577026611328125
-0.0011335351562500005,-0.2190385888671875,0.6342902294921875
-0.06970029296875,-0.279330810546875,0.7829790234375
-0.11930177734375,-0.217568046875,0.938303515625
-0.19759431640625,-0.1915884716796875,0.98450763671875
-0.14653396484375,-0.1062970361328125,1.0936280078125
-0.15431458984375,0.02678701416015625,1.15359505859375
-0.3524773828125,0.019434304199218752,1.2506728662109374
-0.57787236328125,0.02531647216796875,1.3502083398437499
-0.42809533203125,-0.07124911865234375,1.2688595947265624
-0.24233291015625,-0.0724745703125,1.1779259521484375
-0.1608794921875,0.018699033203125,0.8778449316406249
-0.02982458984375,-0.1396293212890625,0.688113115234375
-0.04441326171875,-0.1626678125,0.6893419482421875
-0.15625974609374998,-0.1866866650390625,0.64436666015625
-0.13948277343749999,-0.2572726806640625,0.7788009912109375
-0.213885,-0.16977543212890625,0.9992536328125
-0.3500459375,-0.0327699365234375,1.0395593554687501
-0.33642984375,-0.077376376953125,0.8977520263671875
-0.1939471484375,-0.11046357177734376,0.718096640625
-0.218747890625,0.059874208984374996,0.7891231884765625
-0.2386857421875,0.11256863037109376,1.0582376171875
-0.39600025390625,0.136342392578125,1.3263689794921876
-0.38627447265625,0.06257020263671875,1.4988971337890624
-0.47477908203125,0.02360083984375,1.458837177734375
-0.21510072265625,-0.0533575244140625,1.1872650830078124
-0.166228671875,-0.280311171875,0.8441749072265625
-0.09304216796875,-0.1631579931640625,0.697943779296875
-0.07164544921875,-0.19722554931640626,0.6303579638671875
-0.1569891796875,-0.187176845703125,0.7173593408203125
-0.26907880859375,-0.09796396484375,0.842454541015625
-0.3446967578125,-0.13105115966796876,0.9218371533203125
-0.20586123046875,0.00276816162109375,0.9572275439453125
-0.29509527343749997,-0.14330567626953125,1.043983154296875
-0.2289599609375,-0.13693332763671875,1.110831669921875
-0.30530734375,-0.11536537841796875,1.2629611962890626
-0.38919220703125,-0.16830489013671876,1.31481794921875
-0.4779399609375,-0.23349891845703125,1.244528701171875
-0.34785763671875003,-0.19036302001953126,0.9385492822265625
-0.09595990234375,-0.1268846240234375,0.550483818359375
0.042389335937499995,-0.1955099169921875,0.3295396435546875
0.008835390624999998,-0.18595139404296876,0.2209108056640625
-0.003808124999999999,-0.17761832275390624,0.18232544921875
-0.03031087890625,-0.16536380615234375,0.2130462744140625
-0.0276362890625,-0.1700205224609375,0.4214563525390625
0.01783173828125,-0.20163717529296876,0.872929599609375
0.023910351562499998,-0.0719843896484375,2.00689669921875
-0.65178830078125,0.22359455078125,2.129718558349609
-0.9102509375,0.159871064453125,2.129718558349609
-0.7240022265625,0.24491740966796874,1.5544403857421876
-0.4049966015625,0.21354584716796876,0.945676513671875
-0.27880458984375,0.0152677685546875,0.6283918310546874
0.00421564453125,-0.12663953369140624,0.37107419921875
0.13356853515625,-0.10286577148437501,0.4769996044921875
0.1542358203125,-0.09404251953125001,0.574077412109375
0.13162337890625,-0.15261910888671876,1.0348897900390626
-0.32013916015625,-0.18423576171875,1.5969580078125
-0.5635268359375,-0.03252484619140625,1.9270225537109376
-0.343237890625,0.212810576171875,1.638738330078125
-0.48401857421875,-0.0038492773437499997,1.411649990234375
-0.1219763671875,-0.048455717773437504,1.287783623046875
-0.1774133203125,-0.1523740185546875,1.0621698828125
-0.15431458984375,-0.27712499755859377,1.1970957470703125
-0.32208431640625,-0.4707463598632812,1.331530078125
-0.31381740234375,-0.45898202392578125,0.9223286865234375
-0.23892888671875,-0.3156041796875,0.5236952587890625
-0.2250696484375,-0.280311171875,0.4484906787109375
-0.15917748046875,-0.2611941259765625,0.26097076171875
-0.0966893359375,-0.24477307373046875,0.233936435546875
0.05624857421875,-0.19624518798828125,0.4529144775390625
0.10317546875,-0.2102153369140625,0.63060373046875
0.00616080078125,-0.2749191845703125,0.8810398974609375
-0.2153438671875,-0.10580685546875,1.395920927734375
-0.6510588671875,-0.1587463671875,1.6999342138671876
-0.7288651171875,-0.12933552734375,1.4885749365234375
-0.56231111328125,0.10570610107421875,1.3273520458984376
-0.40086314453125,0.10325519775390625,0.9011927587890625
-0.10276794921875,0.026296833496093748,0.5443396533203125
0.0008116210937499993,-0.06389640869140625,0.477736904296875
0.09272025390625,-0.067572763671875,0.462007841796875
-0.02544798828125,0.0059543359375,0.541636220703125
-0.1988100390625,-0.024436865234375,0.3904897607421875
0.041903046875,-0.0719843896484375,0.490025234375
0.09539484375,-0.01438816162109375,0.77216529296875
0.14864349609375,0.1858506396484375,1.49963443359375
-0.43782111328125,0.23143744140625,1.937590517578125
-0.52729830078125,-0.12026718505859375,1.6522554931640625
-0.31308796875,0.008895419921875,1.642670595703125
-0.44073884765625,-0.091101435546875,1.4585914111328124
-0.43198564453125,0.0780108935546875,1.248460966796875
-0.4662690234375,0.00276816162109375,0.91176072265625
-0.28585578125,-0.0925719775390625,0.694503046875
-0.03225603515625,-0.14967802490234375,0.6165950341796875
0.12870564453125,-0.23104801513671874,0.6475616259765625
0.034122421875,-0.11536537841796875,0.742181767578125
-0.20464550781250002,-0.00311400634765625,0.7881401220703125
-0.24233291015625,-0.05556333740234375,0.8195982470703125
-0.10544253906250001,-0.010221625976562499,0.888658662109375
-0.21023783203125002,0.0373258984375,1.027271025390625
-0.25254498046875,-0.01144707763671875,1.0117877294921875
-0.1735230078125,-0.23349891845703125,0.9306847509765624
0.15982814453125,-0.30114385009765626,1.1808751513671876
-0.292663828125,-0.3469757421875,1.396903994140625
-0.65859634765625,-0.24281235107421875,1.445074248046875
-0.57981751953125,-0.2837424365234375,1.16932412109375
-0.23917203125,-0.2643803002929688,1.08871267578125
0.01783173828125,-0.1484525732421875,1.0481611865234375
0.047738515625,-0.18595139404296876,1.1238572998046874
-0.10811712890625,-0.13742350830078126,1.0609410498046874
-0.29047552734375,0.0010525292968750002,0.793301220703125
-0.24622322265625,0.05276658935546875,0.5640009814453125
-0.12173322265625,-0.04379900146484375,0.4416092138671875
0.0482248046875,-0.1768830517578125,0.3782014306640625
0.10390490234375,-0.23300873779296874,0.6559176904296875
-0.04830357421875,-0.3680535107421875,1.066593681640625
-0.496905234375,-0.00311400634765625,1.3357081103515624
-0.5975670703125,0.1157548046875,1.5618133837890624
-0.45386865234375,0.190262265625,1.453921845703125
-0.22361078125,0.09026541015625,1.259274697265625
-0.057543066406249996,0.02972809814453125,1.1798920849609376
-0.1093328515625,0.09247122314453125,0.9326508837890625
-0.09839134765625,-0.1033559521484375,0.682214716796875
-0.07893978515625,-0.12565917236328125,0.730384970703125
-0.21947732421875,-0.09575815185546875,0.8250051123046875
-0.17327986328125,-0.15114856689453124,0.84786140625
-0.04878986328125,-0.14575657958984375,0.969761640625
-0.18106048828125,-0.04477936279296875,1.0884669091796875
-0.1832487890625,-0.0288484912109375,1.0597122167968749
-0.23309341796875,-0.09428760986328125,1.0604495166015624
-0.32889236328125,0.091245771484375,0.995812900390625
-0.24330548828125,-0.00458454833984375,0.9380577490234375
-0.32402947265625,-0.00777072265625,1.1100943701171875
-0.40815748046875,-0.07909200927734375,1.12606919921875
-0.24233291015625,-0.0504164404296875,1.0334151904296875
-0.037362070312499995,-0.01561361328125,0.9940925341796875
-0.12562353515625,-0.04183827880859375,1.04939001953125
-0.04538583984375,-0.05482806640625,1.0117877294921875
-0.25084296875,-0.09477779052734375,1.10837400390625
-0.24427806640625,-0.1229631787109375,1.1218911669921874
-0.2445212109375,-0.06683749267578125,0.9407611816406249
-0.29874244140625,-0.09673851318359375,0.7360376025390625
-0.21558701171875,-0.14502130859375,0.684180849609375
-0.1676875390625,-0.214626962890625,0.7404614013671875
-0.1900568359375,-0.19232374267578126,0.9400238818359374
-0.26056875,-0.1474722119140625,1.1211538671875
-0.172064140625,-0.2555570483398438,1.1268064990234374
-0.12829812499999999,-0.153844560546875,1.111814736328125
-0.138996484375,-0.14624676025390626,1.0174403613281249
-0.1258666796875,-0.1611972705078125,1.04939001953125
-0.06021765625,-0.1111988427734375,1.118696201171875
-0.0855046875,-0.21977385986328124,1.0476696533203125
-0.18154677734375,-0.2058037109375,1.0393135888671874
-0.29631099609375,-0.1366882373046875,0.868997333984375
-0.32791978515625,-0.161687451171875,0.7556989306640625
-0.19370400390625,-0.07320984130859375,0.7316138037109375
-0.20683380859375,0.079481435546875,0.878827998046875
-0.222638203125,0.0917359521484375,0.9985163330078125
-0.2221519140625,-0.0011532836914062497,0.9402696484374999
-0.25692158203125,-0.0504164404296875,0.7741314257812499
-0.24816837890625,-0.10654212646484375,0.6571465234375
-0.088422421875,-0.1141399267578125,0.7316138037109375
-0.02350283203125,-0.08252327392578125,0.98254150390625
-0.2970404296875,-0.14918784423828124,1.213070576171875
-0.29971501953125,-0.12860025634765626,1.2270792724609374
-0.10495625,0.021885207519531248,1.0668394482421875
-0.1861665234375,0.1113431787109375,1.097068740234375
-0.1633109375,0.05913893798828125,1.15556119140625
-0.32257060546875,0.096147578125,1.2823767578125
-0.32111173828125,0.01575794921875,1.239613369140625
-0.15236943359375,-0.0631611376953125,0.970253173828125
0.013941425781249999,-0.1778634130859375,0.784453623046875
0.01734544921875,-0.25506686767578124,0.993846767578125
-0.2698082421875,-0.1901179296875,1.26566462890625
-0.32159802734375,-0.25261596435546874,1.3760138330078124
-0.28901666015625,-0.13448242431640625,1.3502083398437499
-0.271267109375,-0.0808076416015625,1.150154326171875
-0.21583015625000002,-0.07517056396484376,0.9208540869140625
-0.18057419921875,-0.1509034765625,0.80362341796875
-0.09912078125,-0.1484525732421875,0.71121517578125
-0.1365650390625,-0.21830331787109375,0.6903250146484375
-0.221665625,-0.21585241455078125,0.8176321142578125
-0.1015522265625,-0.20359789794921876,0.9105318896484375
-0.19029998046875,-0.3109474633789063,0.9842618701171875
-0.28366748046875,-0.2690370166015625,1.0417712548828124
-0.17230728515625,-0.25604722900390625,0.934862783203125
-0.2328502734375,-0.3133983666992187,0.9169218212890625
-0.2639727734375,-0.1631579931640625,0.9449392138671875
-0.047574140625,-0.22345021484375,0.9041419580078125
-0.1443456640625,-0.24697888671875,1.056763017578125
-0.17619759765625,-0.16928525146484374,1.0997721728515626
-0.1608794921875,-0.1896277490234375,0.9316678173828125
-0.17717017578125,-0.05850442138671875,0.9587021435546875
-0.1453182421875,-0.1131595654296875,0.843437607421875
-0.09644619140624999,-0.0906112548828125,0.7994453857421875
-0.0412523828125,-0.20997024658203126,0.8132083154296875
-0.11152115234375,-0.15310928955078124,0.917167587890625
-0.1321884375,-0.03056412353515625,0.880794130859375
-0.1472633984375,0.017718671875,0.8540055712890625
-0.09936392578125,0.010611052246093749,1.01203349609375
-0.1988100390625,-0.08350363525390625,1.1604765234375
-0.21558701171875,-0.02762303955078125,1.3809291650390625
-0.2377131640625,0.06355056396484375,1.463752509765625
-0.2114535546875,-0.0964934228515625,1.233714970703125
-0.232363984375,-0.06095532470703125,1.0604495166015624
-0.1064151171875,-0.21879349853515626,0.97664310546875
-0.07748091796875001,-0.1729616064453125,0.87243806640625
-0.16890326171875,0.053992041015625,0.8844806298828125
-0.10033650390625,-0.1273748046875,0.9297016845703125
-0.2912049609375,-0.159726728515625,1.0747039794921875
-0.24525064453125,-0.1749223291015625,0.962388642578125
-0.1103054296875,-0.13546278564453124,0.8205813134765625
-0.14969484375,-0.20310771728515625,0.913235322265625
-0.26907880859375,-0.19600009765625,1.0919076416015625
-0.30798193359375,-0.14673694091796874,1.090187275390625
-0.27515742187500003,-0.2317832861328125,0.9852449365234375
-0.131215859375,-0.1719812451171875,0.91765912109375
-0.1530988671875,-0.1979608203125,0.8812856640625
-0.25497642578125,-0.13129625,1.0307117578125
-0.07067287109375,-0.13693332763671875,1.030220224609375
-0.1744955859375,-0.25310614501953127,0.9346170166015625
-0.20804953125,-0.1631579931640625,1.1209081005859376
-0.1832487890625,-0.2327636474609375,1.1037044384765624
-0.0932853125,-0.218548408203125,1.085271943359375
-0.28123603515625,-0.196980458984375,1.1017383056640626
-0.28318119140625,-0.26732138427734375,1.0324321240234375
-0.12829812499999999,-0.25898831298828123,0.880794130859375
-0.0723748828125,-0.2935460498046875,0.950591845703125
-0.21218298828125,-0.2641352099609375,1.079373544921875
-0.2756437109375,-0.1680597998046875,1.2310115380859374
-0.177899609375,-0.1935491943359375,1.137374462890625
-0.1744955859375,-0.10703230712890625,1.009084296875
-0.13413359375,-0.096983603515625,1.141306728515625
-0.14118478515625,-0.14109986328125,1.1725190869140625
-0.19710802734375,0.03315936279296875,1.1626884228515626
-0.27685943359375,0.09149086181640625,0.9129895556640625
-0.2649453515625,0.01698340087890625,0.731368037109375
-0.15577345703125,-0.22173458251953124,0.5708824462890625
-0.13802390625,-0.1955099169921875,0.6667314208984375
-0.0859909765625,-0.24477307373046875,0.6323240966796875
-0.109819140625,-0.26732138427734375,0.66599412109375
0.0010547656249999988,-0.2058037109375,0.751029365234375
-0.0821006640625,-0.1906081103515625,0.963371708984375
-0.16914640625,-0.1038461328125,1.2609950634765625
-0.28585578125,-0.1366882373046875,1.4694051416015625
-0.3865176171875,-0.09869923583984375,1.50946509765625
-0.22531279296875,0.00399361328125,1.1376202294921876
-0.18932740234375,-0.106787216796875,0.8019030517578125
-0.0791829296875,-0.3180550830078125,0.55982294921875
-0.0509781640625,-0.31364345703125,0.61192546875
-0.02933830078125,-0.16585398681640626,0.739232568359375
-0.004051269531250002,-0.16070708984375,0.8783364648437499
-0.170118984375,-0.17565760009765624,1.0727378466796875
-0.17327986328125,-0.13987441162109376,1.1936550146484375
-0.13802390625,-0.14526639892578125,1.207172177734375
-0.18786853515625002,-0.0641414990234375,1.2167570751953125
-0.1492085546875,-0.05556333740234375,1.138357529296875
-0.1803310546875,-0.175412509765625,1.0407881884765624
-0.21753216796875,-0.0994345068359375,1.0865007763671874
-0.183735078125,-0.1582561865234375,1.075441279296875
-0.19637859375,-0.13105115966796876,0.9901602685546875
-0.125380390625,-0.13325697265625,0.8972604931640625
-0.0947441796875,-0.055073156738281254,0.98647376953125
-0.16112263671875,-0.1523740185546875,1.0184234277343749
-0.11978806640625,-0.1896277490234375,1.0919076416015625
-0.13510617187500001,-0.10188541015625,1.1621968896484376
-0.1978374609375,-0.1170810107421875,1.146222060546875
-0.15042427734375,-0.02419177490234375,1.1415524951171876
-0.28269490234375,-0.1665892578125,1.0122792626953125
-0.17668388671875,-0.05801424072265625,1.0137538623046876
-0.25886673828125,-0.0523771630859375,0.9744312060546875
-0.18081734375,-0.100905048828125,0.9375662158203125
-0.17084841796875,-0.1587463671875,0.8893959619140624
-0.15285572265625,-0.187176845703125,0.938795048828125
-0.05413904296875,-0.16781470947265625,1.0604495166015624
-0.13097271484375,-0.23129310546875,1.200290712890625
-0.23795630859375,-0.1141399267578125,1.3760138330078124
-0.3135742578125,-0.0504164404296875,1.239613369140625
-0.237226875,-0.057769150390625,0.99630443359375
-0.20294349609375,-0.10752248779296875,0.7640549951171876
-0.0159653515625,-0.0999246875,0.6623076220703125
-0.2036729296875,-0.0915916162109375,0.7134270751953125
-0.18251935546875,-0.212666240234375,0.7640549951171876
-0.33229638671875,-0.17761832275390624,0.902421591796875
-0.21266927734375,-0.2643803002929688,0.8992266259765624
-0.137051328125,-0.09918941650390625,0.886692529296875
-0.13243158203125,-0.02762303955078125,0.8933282275390625
-0.08137123046875,-0.21879349853515626,0.84786140625
-0.076751484375,-0.0121823486328125,0.962388642578125
-0.031769746093749995,-0.0371815625,1.0963314404296876
-0.25838044921875,-0.08423890625,1.1862820166015624
-0.16647181640625,-0.07664110595703125,1.2182316748046875
-0.17522501953125,-0.08791526123046875,1.179646318359375
-0.12635296875,-0.17810850341796874,1.013508095703125
-0.20537494140625,-0.08963089355468751,0.9881941357421875
-0.23649744140625,-0.08595453857421875,1.0240760595703124
-0.296554140625,-0.09036616455078125,1.1012467724609376
-0.2172890234375,-0.1778634130859375,0.94125271484375
-0.16063634765625,-0.09183670654296874,1.0265337255859375
-0.09741876953125,-0.16046199951171874,1.08084814453125
-0.21023783203125002,-0.2170778662109375,1.0039231982421875
-0.0665394140625,-0.12271808837890624,0.9950756005859375
-0.20026890625,-0.16879507080078124,0.989914501953125
-0.1920019921875,-0.069533486328125,1.1204165673828126
-0.13000013671875,-0.1935491943359375,1.003677431640625
-0.2017277734375,-0.07026875732421875,1.0516019189453125
-0.19613544921875,-0.16879507080078124,0.9537868115234375
-0.25059982421875,-0.17271651611328126,1.0594664501953126
-0.09936392578125,-0.075415654296875,1.0771616455078126
-0.218747890625,-0.25310614501953127,1.0801108447265624
-0.19127255859375,-0.10654212646484375,1.148188193359375
-0.080641796875,-0.15556019287109374,1.048898486328125
-0.26640421875,-0.18693175537109374,1.0565172509765626
-0.11832919921875,-0.0886505322265625,0.970253173828125
-0.22579908203125,-0.212666240234375,0.8294289111328125
-0.0461152734375,-0.095022880859375,0.92355751953125
-0.055354765624999996,-0.0994345068359375,0.814928681640625
-0.1492085546875,0.0309535498046875,0.973202373046875
-0.16306779296875,-0.116590830078125,1.0565172509765626
-0.23455228515625,-0.19330410400390624,1.09657720703125
