ax,ay,az
-0.17522501953125,0.1358522119140625,0.95698177734375
-0.2805066015625,0.06404074462890624,1.162934189453125
-0.4682141796875,0.10031411376953125,1.29712275390625
-0.325731484375,0.05717821533203125,1.2034856787109376
-0.29679728515625,-0.0817880029296875,0.9331424169921875
-0.23917203125,-0.05556333740234375,0.799199619140625
-0.044899550781250006,-0.03105430419921875,0.937811982421875
-0.08307324218750001,0.008895419921875,1.0255506591796875
-0.267376796875,0.0035034326171875,1.0432458544921874
-0.14167107421875,0.1417343798828125,0.9488714794921875
-0.04684470703125,0.0358553564453125,0.8694888671875
-0.33813185546875,-0.042328459472656246,0.8839890966796875
-0.25886673828125,0.0515411376953125,0.9638632421875
-0.27880458984375,0.02531647216796875,0.978117705078125
-0.39356880859375,-0.0249270458984375,0.8567090039062499
-0.09790505859375,-0.04306373046875,0.6807401171875
-0.05365275390625,-0.07468038330078125,0.66009572265625
-0.1200312109375,-0.065612041015625,0.7532412646484374
-0.315033125,0.2299668994140625,0.9835245703125
-0.29047552734375,0.108892275390625,1.202256845703125
-0.26616107421875,0.13560712158203125,1.2944193212890625
-0.29922873046875,0.2397705126953125,1.0614325830078124
-0.0869635546875,0.18438009765625,0.9341254833984375
-0.19832375,-0.0023787353515625003,0.9700074072265625
-0.1774133203125,-0.05458297607421875,1.060695283203125
-0.23066197265625,-0.034240478515625,0.9395323486328125
-0.32889236328125,-0.03350520751953125,0.7512751318359375
-0.35320681640625,0.04002189208984375,0.6647652880859375
-0.14458880859375,-0.02713285888671875,0.812471015625
-0.442440859375,0.06306038330078124,0.8269712451171874
-0.42274615234375,-0.04723026611328125,0.843929140625
-0.2104809765625,-0.042328459472656246,0.6844266162109375
-0.19564916015625,-0.11977700439453125,0.623722265625
-0.2610550390625,-0.09085634521484375,0.5123899951171875
-0.2114535546875,-0.15678564453125,0.428583583984375
-0.015235917968750002,-0.0612004150390625,0.499364365234375
-0.2027003515625,-0.036201201171875,0.618315400390625
-0.3369161328125,-0.10262068115234375,0.6603414892578126
-0.0918264453125,0.087324326171875,0.8485987060546875
-0.30700935546875,0.22776108642578125,1.12213693359375
-0.27102396484375,0.22874144775390626,1.111814736328125
-0.28609892578125,0.08634396484375,1.0865007763671874
-0.3116291015625,0.19197789794921874,1.2752495263671875
-0.34396732421875,0.1706550390625,1.3848614306640625
-0.4195852734375,0.15374380615234376,1.50749896484375
-0.52583943359375,0.0319339111328125,1.3175213818359375
-0.3612305859375,-0.1901179296875,0.6750874853515625
-0.0310403125,-0.134237333984375,0.332734609375
-0.005753281249999999,-0.08399381591796876,0.2297584033203125
0.01005111328125,-0.0837487255859375,0.1560284228515625
-0.0266637109375,-0.13129625,0.3482179052734375
-0.06483740234375,-0.17026561279296876,0.6711552197265624
-0.2192341796875,-0.31045728271484374,1.1041959716796874
-0.34834392578125,-0.418542119140625,1.61858546875
-0.47575166015625,-0.032279755859375,1.81224955078125
-0.39065107421875,0.26256391357421877,1.3937090283203124
-0.366579765625,0.29834710205078124,1.4487607470703125
-0.22944625,0.10080429443359375,1.2482152001953124
-0.46286499999999997,-0.076396015625,0.9532952783203125
-0.35758341796875,-0.14232531494140624,0.6505108251953124
-0.09498732421875,-0.08938580322265625,0.5902980078125
-0.13291787109375,-0.03105430419921875,0.51460189453125
-0.2450075,-0.0004180126953125,0.578009677734375
-0.31041337890625,0.03119864013671875,0.803131884765625
-0.2542469921875,0.17727247802734375,1.06118681640625
-0.38043900390625,0.26550499755859375,1.2351895703125
-0.33764556640625,0.30594490234375,1.2253589062499999
-0.2007551953125,0.071638544921875,1.1823497509765626
-0.16914640625,-0.016593974609375,1.001711298828125
-0.4263933203125,-0.12271808837890624,0.930930517578125
-0.41350666015625,-0.1415900439453125,1.0722463134765625
-0.408400625,-0.0016434643554687498,1.0778989453125
-0.3573402734375,-0.0553182470703125,0.8458952734375
-0.07261802734375,0.1672237744140625,0.7242408056640625
0.07351183593749999,0.06992291259765625,1.0791277783203126
-0.26324333984375,0.18707609130859376,1.5851612109375
-0.345183046875,0.27040680419921875,1.8046307861328126
-0.4273658984375,0.12580350830078124,1.7363076708984375
-0.16598552734375,0.09443194580078125,1.3971497607421874
-0.257651015625,0.080461796875,1.3479964404296876
-0.477453671875,0.1152646240234375,1.3420980419921875
-0.5090624609375,0.05080586669921875,1.1307387646484375
-0.30700935546875,-0.030319033203124998,0.74070716796875
-0.1706052734375,-0.0724745703125,0.5984083056640626
-0.1093328515625,-0.198941181640625,0.4853556689453125
-0.02982458984375,-0.189137568359375,0.49592363281249996
-0.009886738281250002,-0.05409279541015625,0.7121982421874999
-0.16404037109375,0.17776265869140626,1.1041959716796874
-0.4011062890625,0.2074185888671875,1.520770361328125
-0.456056953125,0.204967685546875,1.644636728515625
-0.37703498046875,0.348100439453125,1.497176767578125
-0.34226531250000003,0.2900140307617187,1.012525029296875
-0.1477496875,0.08315779052734375,0.87047193359375
-0.28561263671875,-0.08252327392578125,0.9700074072265625
-0.280992890625,-0.1509034765625,0.875878798828125
-0.2566784375,-0.1641383544921875,0.616349267578125
-0.10568568359375,-0.0661022216796875,0.6239680322265625
-0.232363984375,-0.0097314453125,0.825742412109375
-0.25789416015625,-0.00409436767578125,1.0683140478515625
0.009078535156249998,0.1113431787109375,1.318258681640625
-0.38481560546875,0.24393704833984375,1.408700791015625
-0.48450486328125,0.21991819580078126,1.26566462890625
-0.40475345703125,0.11796061767578125,0.8697346337890625
-0.16525609375,-0.0006631030273437505,0.6455954931640625
0.01783173828125,-0.1317864306640625,0.663536455078125
-0.09936392578125,-0.1523740185546875,0.9154472216796875
-0.34348103515625,0.0338946337890625,1.0437373876953124
-0.53167490234375,0.0030132519531249997,0.949608779296875
-0.2912049609375,-0.03840701416015625,0.6785282177734375
-0.19856689453125,0.03119864013671875,0.517059560546875
-0.146777109375,0.093206494140625,0.5187799267578125
-0.09693248046875,0.11992134033203125,0.57948427734375
-0.1764407421875,0.16746886474609374,0.61880693359375
-0.03079716796875,0.17286085205078125,0.8087845166015625
-0.066053125,0.0495804150390625,1.0820769775390624
-0.32475890625,-0.0803174609375,1.2550966650390625
-0.16549923828125,0.03806116943359375,1.530601025390625
-0.33959072265625,0.09884357177734375,1.7102564111328125
-0.51514107421875,0.2270258154296875,1.5043039990234375
-0.36220316406249997,0.17482157470703125,1.0899415087890625
-0.15625974609374998,-0.0974737841796875,0.8476156396484374
-0.224583359375,0.009140510253906251,0.8176321142578125
-0.35806970703125,0.04149243408203125,0.809030283203125
-0.33132380859375,-0.0141430712890625,0.70629984375
-0.2255559375,0.015022678222656249,0.69745224609375
-0.20415921875,0.1289896826171875,0.5846453759765625
-0.1321884375,-0.0396324658203125,0.3968796923828125
-0.0996070703125,-0.10188541015625,0.48658450195312497
-0.20099833984375,0.0608545703125,0.4897794677734375
-0.2425760546875,0.00619942626953125,0.628146064453125
-0.3320532421875,-0.010711806640625,0.92159138671875
-0.2571647265625,0.1000690234375,0.9945840673828125
-0.31430369140625003,0.10913736572265625,1.236664169921875
-0.4604335546875,0.177517568359375,1.34430994140625
-0.268349375,0.20913422119140626,0.9818042041015624
-0.14653396484375,0.03364954345703125,0.9795923046875
-0.35417939453125,-0.04575972412109375,1.0759328125
-0.33181009765625,0.01796376220703125,1.030220224609375
-0.20732009765625,-0.06830803466796875,0.9562444775390625
-0.2163164453125,0.01183650390625,0.7532412646484374
-0.24695265625,-0.09820905517578125,0.6151204345703125
-0.2639727734375,-0.023456503906250002,0.719571240234375
-0.13923962890625,0.01159141357421875,0.873912666015625
-0.31333111328125,0.063795654296875,1.052830751953125
-0.1920019921875,0.21599675048828126,1.006626630859375
-0.1229489453125,-0.00507472900390625,0.8884128955078126
-0.279047734375,0.16648850341796875,0.8721922998046875
-0.28366748046875,-0.04723026611328125,0.962388642578125
-0.33326896484375,0.1142842626953125,1.095102607421875
-0.27685943359375,0.14295983154296876,1.1951296142578125
-0.32281375,-0.01144707763671875,1.331530078125
-0.343237890625,0.0760501708984375,1.3435726416015625
-0.19759431640625,0.14688127685546876,1.2039772119140626
-0.30117388671875,0.04835496337890625,0.97074470703125
-0.24281919921875,0.06673673828125,0.8618701025390625
-0.26664736328125,-0.018554697265625,0.7940385205078125
-0.19637859375,0.0584036669921875,0.7394783349609375
-0.2133987109375,0.03217900146484375,0.6937657470703125
-0.1555303125,0.0868341455078125,0.793301220703125
-0.27029453125,-0.0994345068359375,0.9407611816406249
-0.2056180859375,-0.0006631030273437505,1.2226554736328126
-0.1205175,0.03610044677734375,1.544363955078125
-0.5290003125,0.16011615478515626,1.690840849609375
-0.461892421875,0.21575166015625,1.484396904296875
-0.44219771484375,-0.0406128271484375,1.1368829296875
-0.40645546875,0.1338914892578125,1.0525849853515625
-0.42955419921875,0.05325677001953125,1.18308705078125
-0.19613544921875,0.0211499365234375,1.056763017578125
-0.1297569921875,0.1941837109375,0.89603166015625
-0.20342978515625,0.14124419921875,0.8309035107421875
-0.17182099609375,0.05815857666015625,0.69745224609375
0.020020039062499998,-0.07566074462890625,0.77216529296875
-0.17327986328125,-0.15408965087890625,1.0496357861328125
-0.41496552734375003,-0.0592396923828125,1.11820466796875
-0.3057936328125,-0.05801424072265625,0.9926179345703126
-0.34785763671875003,0.11845079833984375,1.078390478515625
-0.3942982421875,0.23070217041015625,1.06020375
-0.39867484375,0.29197475341796875,0.9636174755859375
-0.3106565234375,0.3123172509765625,1.06708521484375
-0.24938410156250002,0.27628897216796877,1.174730986328125
-0.19467658203125,0.03364954345703125,1.1739936865234375
-0.179844765625,0.055952763671875,1.0110504296875
-0.18106048828125,0.0044837939453125,0.9213456201171875
-0.05073501953125,-0.0038492773437499997,0.897506259765625
-0.27880458984375,-0.0406128271484375,1.070525947265625
-0.29169125,0.0721287255859375,1.1533492919921875
-0.31868029296875,0.19491898193359375,1.1739936865234375
-0.40183572265625,-0.0371815625,1.028254091796875
-0.32597462890625,0.12384278564453124,1.024813359375
-0.24038775390625,-0.00213364501953125,0.9331424169921875
-0.26154132812499997,0.124578056640625,0.8422087744140625
-0.218747890625,0.10227483642578125,0.8380307421875
-0.28196546875,-0.13399224365234375,0.80067421875
-0.06143337890625,0.0231106591796875,0.8962774267578125
-0.002835546875000001,-0.01683906494140625,0.9557529443359375
-0.1511537109375,-0.15899145751953125,0.922574453125
-0.23552486328125,-0.05262225341796875,1.104933271484375
-0.4040240234375,0.06257020263671875,1.0525849853515625
-0.41423609375,0.25619156494140627,1.10640787109375
-0.339347578125,0.2642795458984375,1.053813818359375
-0.4030514453125,0.14884199951171875,0.98843990234375
-0.29363640625,0.0338946337890625,0.9842618701171875
-0.1686601171875,0.03315936279296875,1.0098215966796875
-0.257651015625,0.044188427734375,0.812962548828125
-0.26032560546875,0.0456589697265625,0.6190527001953126
-0.29193439453125003,0.05521749267578125,0.764792294921875
-0.271267109375,0.04198261474609375,0.7006472119140625
-0.0801555078125,0.07580508056640625,0.73480876953125
-0.0558410546875,0.11011772705078125,0.867522734375
-0.30506419921875,0.0005623486328125002,1.032677890625
-0.067025703125,0.1270289599609375,1.174730986328125
-0.4273658984375,0.03217900146484375,1.20471451171875
-0.3145468359375,0.1064413720703125,1.18112091796875
-0.48985404296875,0.155949619140625,1.1130435693359375
-0.33278267578125,-0.0072805419921875,1.0142453955078126
-0.1025248046875,0.0819323388671875,1.0063808642578125
-0.179844765625,0.07090327392578125,1.040542421875
-0.1268392578125,0.06698182861328125,1.1096028369140625
-0.07942607421875,0.0535018603515625,1.2983515869140625
-0.28172232421875,0.1510478125,1.44851498046875
-0.524137421875,0.0843832421875,1.331530078125
-0.34032015625,-0.06242586669921875,1.0201437939453124
-0.38043900390625,-0.15899145751953125,0.8377849755859375
-0.2464663671875,-0.047965537109375,0.6564092236328125
-0.09401474609375,-0.1268846240234375,0.55195841796875
-0.07748091796875001,-0.1562954638671875,0.5993913720703125
-0.1355924609375,0.021885207519531248,0.604552470703125
-0.17230728515625,0.11796061767578125,0.7217831396484375
-0.3009307421875,0.009140510253906251,0.876861865234375
-0.27272597656249997,0.09026541015625,0.993846767578125
-0.26251390625,0.25423084228515624,1.1194335009765626
-0.29679728515625,0.08364797119140625,1.121645400390625
-0.30530734375,0.1784979296875,1.1145181689453125
-0.22725794921875,0.15472416748046874,1.0683140478515625
-0.24622322265625,0.0584036669921875,0.9292101513671875
-0.2488978125,0.08119706787109375,0.8132083154296875
-0.15771861328125,-0.0376717431640625,0.8412257080078125
-0.14896541015625,0.0843832421875,1.123611533203125
-0.35855599609375,0.1162449853515625,1.3494710400390626
-0.30555048828125,0.06306038330078124,1.265173095703125
-0.2143712890625,0.19222298828125,0.9660751416015625
-0.2260422265625,0.20521277587890624,0.697943779296875
-0.16355408203125,0.17237067138671874,0.6728755859375
-0.1871391015625,0.1829095556640625,0.8112421826171875
-0.28658521484375,0.09541230712890625,1.089204208984375
-0.31284482421875,0.09100068115234375,1.2850801904296876
-0.3111428125,-0.05899460205078125,1.252884765625
-0.100093359375,0.05178622802734375,1.1459762939453124
-0.19224513671875,0.01208159423828125,1.1012467724609376
-0.21169669921875,-0.0651218603515625,1.1012467724609376
-0.30652306640625,0.0172284912109375,1.054796884765625
-0.50590158203125,-0.0567887890625,0.8073099169921875
-0.37946642578125,-0.09722869384765626,0.697943779296875
-0.22944625,-0.03203466552734375,0.6436293603515625
0.008835390624999998,0.07433453857421875,0.6138916015625
0.02026318359375,0.0765403515625,0.594721806640625
-0.12343523437500001,0.0495804150390625,0.846386806640625
-0.3967296875,0.01159141357421875,1.08084814453125
-0.3660934765625,-0.14673694091796874,1.3492252734375
-0.4059691796875,-0.0200252392578125,1.399853193359375
-0.40767119140625,0.10080429443359375,1.13393373046875
-0.2386857421875,0.07065818359375,0.871946533203125
-0.38700390625000003,-0.0366913818359375,0.8144371484375
-0.45970412109375003,0.116735166015625,0.9218371533203125
-0.31819400390625,0.1191860693359375,0.7792925244140625
-0.1073876953125,0.101049384765625,0.6721382861328125
-0.007455292968749999,0.0221302978515625,0.5890691748046875
-0.10228166015625,0.022620478515625,0.61192546875
-0.063135390625,-0.02419177490234375,0.6414174609375
-0.197351171875,-0.0680629443359375,0.791335087890625
-0.31381740234375,-0.052867343750000004,0.949608779296875
-0.18106048828125,-0.08938580322265625,1.0412797216796874
-0.27807515625,0.12923477294921876,1.1838243505859376
-0.3106565234375,0.18830154296875,1.3177671484375
-0.3267040625,0.2571719262695312,1.42983671875
-0.43368765625,0.0765403515625,1.2860632568359376
-0.3116291015625,0.1191860693359375,1.09461107421875
-0.4040240234375,-0.01634888427734375,1.0594664501953126
-0.2177753125,-0.01781942626953125,0.99827056640625
-0.1735230078125,0.157910341796875,0.89504859375
-0.146777109375,0.00399361328125,0.789368955078125
-0.13413359375,0.0868341455078125,0.731368037109375
-0.096203046875,0.07531489990234375,0.7065456103515625
-0.1783858984375,0.19442880126953124,0.911269189453125
-0.31965287109375,0.010611052246093749,1.2595204638671875
-0.403537734375,0.12972495361328126,1.226833505859375
-0.35199109375,0.02678701416015625,1.0702801806640625
-0.17522501953125,0.14639109619140625,0.9872110693359375
-0.32062544921875,0.14541073486328124,0.7613515625
-0.34202216796875,0.08242251953125,0.8859552294921875
-0.376305546875,0.2152614794921875,1.0466865869140625
-0.2450075,0.1515379931640625,1.0211268603515624
-0.236254296875,0.19491898193359375,1.2595204638671875
-0.24038775390625,0.21305566650390625,1.33546234375
-0.19346085937500002,0.0407571630859375,1.1017383056640626
-0.24306234375,0.1113431787109375,0.8972604931640625
-0.2240970703125,0.104970830078125,0.8525309716796875
-0.16549923828125,0.08756941650390625,0.57161974609375
-0.1190586328125,0.056933125,0.646824326171875
-0.345183046875,0.06894255126953125,0.8343442431640625
-0.22190876953125,-0.10507158447265624,0.6141373681640625
-0.27613,-0.09379742919921875,0.6976980126953125
-0.19419029296875,0.13119549560546875,0.8313950439453125
-0.360744296875,0.01404231689453125,1.0334151904296875
-0.26567478515625,-0.0006631030273437505,1.2408422021484375
-0.1793584765625,0.11894097900390625,1.4143534228515624
-0.42931105468749997,0.20325205322265624,1.2666476953124999
-0.30117388671875,0.14737145751953126,0.891116328125
-0.16063634765625,0.2152614794921875,0.8628531689453125
-0.3301080859375,0.17923320068359375,0.891116328125
-0.203186640625,-0.0464949951171875,0.926015185546875
-0.168173828125,-0.02321141357421875,0.8572005371093749
-0.20002576171875,0.0319339111328125,0.6691890869140625
-0.18154677734375,-0.11242429443359375,0.6460870263671875
-0.19832375,-0.0018885546875000003,0.759876962890625
-0.36828177734375,0.118695888671875,1.0307117578125
-0.37703498046875,0.17629211669921874,1.2609950634765625
-0.38967849609375,0.11109808837890625,1.2831140576171876
-0.34980279296875,0.07041309326171875,1.10247560546875
-0.37922328125,0.09394176513671874,0.9311762841796875
-0.36925435546875,0.0750698095703125,0.8087845166015625
-0.22288134765625,-0.0072805419921875,0.7006472119140625
-0.06970029296875,-0.04919098876953125,0.739232568359375
-0.19321771484375,0.0211499365234375,0.9582106103515625
-0.2756437109375,-0.037916833496093746,1.1211538671875
-0.2800203125,0.087324326171875,1.2344522705078125
-0.29679728515625,0.1701648583984375,1.1636714892578124
-0.33570041015625,-0.014633251953124999,0.9070911572265625
-0.31746457031249997,0.0152677685546875,0.968287041015625
-0.23795630859375,0.049090234375,0.9842618701171875
-0.354908828125,-0.01046671630859375,0.95304951171875
-0.3553951171875,-0.06977857666015624,0.93142205078125
-0.30992708984375,-0.08056255126953125,0.812962548828125
-0.07602205078125,0.0486000537109375,0.8773533984374999
-0.224583359375,-0.03522083984375,0.9616513427734374
-0.2124261328125,0.0074248779296875,1.146222060546875
-0.3694975,-0.08619962890625,1.162934189453125
-0.36682291015625,-0.08938580322265625,1.00613509765625
-0.197351171875,-0.0553182470703125,0.8702261669921875
-0.23990146484375,-0.11364974609375,0.8451579736328125
-0.115654609375,0.04712951171875,0.8977520263671875
-0.28974609375,0.0829127001953125,0.866048134765625
-0.2775888671875,0.03413972412109375,0.9400238818359374
-0.39989056640625,0.07825598388671876,1.0860092431640624
-0.35028908203125,-0.05458297607421875,1.174239453125
-0.2707808203125,-0.04281864013671875,1.237155703125
-0.3009307421875,0.03144373046875,1.17129025390625
-0.18081734375,0.01796376220703125,1.024813359375
-0.23990146484375,-0.013652890625,0.992863701171875
-0.32305689453124997,-0.02860340087890625,0.977134638671875
-0.2902323828125,-0.0827683642578125,0.91176072265625
-0.1287844140625,0.03610044677734375,0.9896687353515625
-0.1637972265625,0.0829127001953125,0.987948369140625
-0.187625390625,0.0446786083984375,0.89013326171875
-0.2552195703125,0.02482629150390625,0.906845390625
-0.28026345703125,-0.07026875732421875,0.8569547705078124
-0.36196001953125,-0.04306373046875,0.881777197265625
-0.242089765625,-0.030319033203124998,0.995812900390625
-0.36439146484375,0.06747200927734374,1.119679267578125
-0.3281629296875,0.1314405859375,1.19095158203125
-0.28974609375,0.11845079833984375,1.1892312158203124
-0.347128203125,0.0829127001953125,1.1290183984375
-0.25400384765625,0.07850107421875,1.021372626953125
-0.2211793359375,-0.02076051025390625,1.04152548828125
-0.21193984375,0.087324326171875,1.0457035205078125
-0.21121041015625,0.130460224609375,0.985490703125
-0.2736985546875,-0.00311400634765625,0.8412257080078125
-0.27248283203125,-0.0082609033203125,0.812962548828125
-0.2639727734375,0.03953171142578125,0.7539785644531249
-0.177899609375,-0.02272123291015625,0.78494515625
-0.2717533984375,-0.06781785400390625,0.924049052734375
-0.2338228515625,-0.0006631030273437505,0.9906518017578125
-0.3281629296875,-0.0371815625,1.095102607421875
-0.33326896484375,0.0593840283203125,1.1690783544921874
-0.37338781249999997,0.061834931640625,1.12606919921875
-0.18859796875,0.07188363525390624,1.020389560546875
-0.23941517578125,0.09149086181640625,1.0189149609375
-0.31916658203125,0.0211499365234375,1.0781447119140626
-0.214857578125,0.1074217333984375,1.052830751953125
-0.2878009375,0.10399046875,0.9365831494140625
-0.177899609375,0.12874459228515625,0.9636174755859375
-0.2464663671875,0.030463369140625002,0.9822957373046874
-0.2955815625,-0.02664267822265625,0.937811982421875
-0.22750109375,-0.060710234375,0.8048522509765625
-0.18835482421875,-0.157766005859375,0.7709364599609375
-0.26761994140625,-0.0749254736328125,0.834590009765625
-0.296554140625,-0.0749254736328125,0.9169218212890625
-0.1725504296875,0.11771552734375,1.00515203125
-0.333512109375,0.10325519775390625,1.0412797216796874
-0.267376796875,0.07776580322265625,1.083305810546875
-0.32305689453124997,0.1270289599609375,1.03661015625
-0.236254296875,0.00668960693359375,0.85867513671875
-0.1764407421875,0.04124734375,0.759876962890625
-0.07577890625,-0.03448556884765625,0.7281730712890625
-0.09595990234375,-0.0857094482421875,0.9051250244140625
-0.265431640625,0.044188427734375,1.1005094726562499
-0.2824517578125,0.03757098876953125,1.09952640625
-0.34007701171875,0.06453092529296875,1.180629384765625
-0.4127772265625,0.1221271533203125,1.213562109375
-0.2668905078125,0.15815543212890626,1.0914161083984375
-0.3320532421875,0.11109808837890625,0.8923451611328125
-0.2970404296875,0.1113431787109375,0.854251337890625
-0.2688356640625,-0.0016434643554687498,0.89406552734375
-0.16355408203125,-0.1210024560546875,0.91077765625
-0.10325423828125,-0.07566074462890625,0.879811064453125
-0.1317021484375,-0.03840701416015625,0.7512751318359375
-0.2386857421875,-0.11928682373046876,0.7645465283203124
-0.288773515625,0.0417375244140625,0.8677685009765626
-0.25157240234375,-0.04330882080078125,0.9562444775390625
-0.3349709765625,0.0289928271484375,1.040542421875
-0.35393625,0.0221302978515625,0.9203625537109374
-0.3349709765625,-0.04526954345703125,0.93437125
-0.245980078125,0.09051050048828126,1.099034873046875
-0.3213548828125,0.06355056396484375,1.0992806396484376
-0.20415921875,0.09541230712890625,1.111323203125
-0.187625390625,0.1525183544921875,1.0535680517578125
-0.2795340234375,-0.016593974609375,0.913235322265625
-0.18470765625,-0.0298288525390625,0.8380307421875
-0.21315556640625,-0.159726728515625,0.763809228515625
-0.255705859375,-0.04698517578125,0.8377849755859375
-0.2347954296875,-0.045024453125,0.952557978515625
-0.30603677734375,-0.124433720703125,0.9154472216796875
-0.292663828125,0.04737460205078125,1.045949287109375
-0.20537494140625,0.09933375244140626,1.0452119873046875
-0.31430369140625003,0.044188427734375,1.0857634765625
-0.3855450390625,0.0025230712890624996,1.0712632470703125
-0.22774423828125,7.216796875000007e-05,0.924049052734375
-0.2114535546875,-0.06340622802734375,0.835573076171875
-0.3072525,-0.1415900439453125,0.780521357421875
-0.26761994140625,-0.0347306591796875,0.6937657470703125
-0.12635296875,-0.10507158447265624,0.721537373046875
-0.19078626953125,0.03757098876953125,1.1722733203125
-0.263486484375,0.03168882080078125,1.307936484375
-0.30311904296875003,0.0623251123046875,1.2457575341796876
-0.39308251953125,0.2547210229492187,1.0599579833984376
-0.1725504296875,0.12580350830078124,0.83901380859375
-0.20440236328125,-0.0513968017578125,0.820335546875
-0.175954453125,-0.03154448486328125,1.1420440283203126
-0.47721052734375,0.00791505859375,1.0928907080078125
-0.3656071875,-0.00311400634765625,1.0486527197265625
-0.33764556640625,-0.0288484912109375,1.0179318945312499
-0.2542469921875,0.023845930175781252,0.8775991650390624
-0.2357680078125,-0.06781785400390625,0.86064126953125
-0.25740787109375,-0.23913599609375,1.0383305224609374
-0.24865466796875,-0.228352021484375,0.92355751953125
-0.22823052734375,-0.2053135302734375,0.8267254785156251
-0.1278118359375,-0.03987755615234375,0.994829833984375
-0.44171142578125,-0.0788469189453125,0.8825144970703125
-0.026420566406250002,-0.11291447509765624,0.99040603515625
-0.4866931640625,0.018699033203125,1.1238572998046874
-0.528027734375,-0.01144707763671875,0.9208540869140625
-0.1696326953125,-0.00605509033203125,0.7239950390625
-0.1764407421875,-0.13938423095703126,0.7670041943359375
-0.23795630859375,-0.2033528076171875,0.9429730810546875
-0.32159802734375,0.067717099609375,1.0570087841796876
-0.195406015625,-0.087179990234375,1.0466865869140625
-0.346155625,-0.00850599365234375,1.0692971142578125
-0.30871136718750003,0.01453249755859375,0.9552614111328125
-0.17717017578125,0.05227640869140625,1.08871267578125
-0.346155625,0.021640117187500002,0.968287041015625
-0.2309051171875,-0.06585713134765625,1.0196522607421874
-0.33764556640625,0.018699033203125,1.01596576171875
-0.28561263671875,-0.0523771630859375,0.9813126708984374
-0.24306234375,-0.05874951171875,1.0226014599609374
-0.30992708984375,-0.06781785400390625,1.023338759765625
-0.29339326171875,-0.09624833251953124,1.0919076416015625
-0.32013916015625,0.0137972265625,0.983033037109375
-0.18154677734375,-0.0504164404296875,0.87637033203125
-0.20464550781250002,-0.089140712890625,0.844420673828125
-0.35977171875,-0.06879821533203125,0.825742412109375
-0.13486302734375,-0.0925719775390625,0.95501564453125
-0.39697283203125,0.071638544921875,1.0520934521484375
-0.45970412109375003,0.12678386962890625,0.9621428759765625
-0.1414279296875,-0.1195319140625,0.8834975634765625
-0.2688356640625,0.028257556152343752,0.969270107421875
-0.34542619140624997,0.0907555908203125,1.0334151904296875
-0.2722396875,-0.16487362548828124,1.040542421875
-0.31235853515625,0.03659062744140625,1.1041959716796874
-0.5012818359375,0.0035034326171875,1.159001923828125
-0.29290697265625,-0.1822750390625,1.066593681640625
-0.27588685546875,-0.00581,0.9820499707031249
-0.18057419921875,-0.04698517578125,0.8284458447265625
-0.05122130859375,-0.11438501708984375,0.8613785693359375
-0.27029453125,0.0182088525390625,1.0599579833984376
-0.23941517578125,0.1211467919921875,1.1218911669921874
-0.3072525,-0.025662316894531252,1.1449932275390624
-0.3223274609375,0.026296833496093748,1.3037584521484376
-0.27929087890625,0.0280124658203125,1.138357529296875
-0.20002576171875,0.015022678222656249,1.0149826953125
-0.252788125,0.05374695068359375,0.984999169921875
-0.224583359375,0.0250713818359375,0.980083837890625
-0.3826273046875,-0.045024453125,1.1801378515625
-0.38432931640625,-0.08301345458984374,1.14769666015625
-0.1968648828125,-0.07835673828125,0.929947451171875
-0.2022140625,-0.07811164794921875,0.66599412109375
-0.19321771484375,-0.10850284912109374,0.6500192919921874
-0.29825615234375,0.0270321044921875,0.6967149462890625
-0.282938046875,-0.0837487255859375,0.9218371533203125
-0.27272597656249997,-0.134237333984375,1.17325638671875
-0.39697283203125,-0.0724745703125,1.2609950634765625
-0.2989855859375,-0.02076051025390625,1.1725190869140625
-0.288773515625,-0.052867343750000004,0.9601767431640625
-0.30409162109375,-0.10188541015625,0.8223016796875
-0.2999581640625,0.05815857666015625,0.8790737646484375
-0.2698082421875,-0.028358310546875,0.8854636962890625
-0.27296912109375,0.00963069091796875,0.837539208984375
-0.21558701171875,-0.11340465576171875,0.781504423828125
-0.18106048828125,-0.20800952392578126,0.8073099169921875
-0.397702265625,-0.13791368896484374,0.82721701171875
-0.190543125,-0.01095689697265625,0.871455
-0.24670951171875,-0.01169216796875,0.9002096923828125
-0.12221951171875,0.0495804150390625,0.871455
-0.33108066406250003,0.01183650390625,1.0697886474609375
-0.32062544921875,0.093206494140625,1.374785
-0.2785614453125,-0.0092412646484375,1.170798720703125
-0.411318359375,0.08560869384765625,1.0339067236328126
-0.41812640624999997,0.07237381591796875,1.032677890625
-0.213885,-0.14918784423828124,0.996795966796875
-0.20683380859375,-0.0055649096679687505,0.8623616357421875
-0.2172890234375,-0.142080224609375,0.7719195263671875
-0.2027003515625,-0.06095532470703125,0.796741953125
-0.32646091796875,0.0397768017578125,0.8377849755859375
-0.27053767578125,-0.14502130859375,1.0294829248046875
-0.33813185546875,0.0358553564453125,0.9972875
-0.22944625,-0.05899460205078125,0.95108337890625
-0.13097271484375,-0.008751083984375,1.1683410546875
-0.470645625,0.04982550537109375,1.2103671435546874
-0.269321953125,-0.089140712890625,1.09952640625
-0.3116291015625,-0.03742665283203125,1.04152548828125
-0.40134943359374997,-0.220509130859375,1.0191607275390624
-0.279047734375,0.0319339111328125,0.814928681640625
-0.20342978515625,-0.1435507666015625,0.7571735302734375
0.0003253320312500002,-0.05482806640625,0.804606484375
-0.30263275390625,0.0476196923828125,0.9169218212890625
-0.2172890234375,-0.0759058349609375,1.162934189453125
-0.30652306640625,-0.05654369873046875,1.1690783544921874
-0.50371328125,-0.00311400634765625,1.0643817822265624
-0.27588685546875,0.0436982470703125,1.043983154296875
-0.35174794921875,0.04688442138671875,1.0633987158203124
-0.35806970703125,-0.03546593017578125,1.0265337255859375
-0.21947732421875,-0.03546593017578125,1.0240760595703124
-0.17182099609375,-0.05017135009765625,0.886692529296875
-0.24865466796875,0.0270321044921875,1.0034316650390624
-0.28366748046875,-0.08007237060546875,1.0481611865234375
-0.32937865234375,-0.167569619140625,1.0909245751953125
-0.3077387890625,-0.06267095703125,1.0997721728515626
-0.2454937890625,-0.14134495361328125,0.9913891015625
-0.2717533984375,-0.13203152099609375,0.908319990234375
-0.213885,-0.09918941650390625,0.7851909228515626
-0.17303671874999998,0.01306195556640625,0.9439561474609375
-0.1492085546875,0.03806116943359375,1.103950205078125
-0.4176401171875,0.018699033203125,1.212087509765625
-0.2620276171875,0.0123266845703125,1.1218911669921874
-0.21510072265625,-0.11242429443359375,0.9641090087890625
-0.3748466796875,-0.0055649096679687505,0.8889044287109376
-0.3660934765625,-0.22173458251953124,0.9233117529296875
-0.2454937890625,-0.1798241357421875,0.97271083984375
-0.18300564453125,0.17237067138671874,1.0412797216796874
-0.43149935546875,0.2098694921875,1.1164843017578125
-0.1477496875,0.0956573974609375,1.33644541015625
-0.37946642578125,0.0848734228515625,1.223884306640625
-0.23819945312500002,-0.20408807861328124,0.938795048828125
-0.205131796875,-0.14085477294921875,0.760860029296875
-0.1385101953125,-0.16242272216796874,0.663536455078125
-0.2318776953125,-0.27761517822265624,0.7065456103515625
-0.39818855468750003,-0.2450181640625,0.777080625
-0.24038775390625,-0.03644629150390625,0.7920723876953125
-0.09304216796875,0.0123266845703125,0.9537868115234375
-0.23260712890625002,0.00423870361328125,1.072492080078125
-0.20415921875,0.04590406005859375,1.2875378564453124
-0.27588685546875,-0.21977385986328124,1.2673849951171876
-0.34056330078125,-0.153844560546875,1.1381117626953126
-0.39113736328125,-0.016593974609375,0.922574453125
-0.304334765625,-0.05997496337890625,0.669434853515625
-0.17765646484375,-0.1386489599609375,0.5246783251953124
-0.070916015625,0.0201695751953125,0.498381298828125
-0.06337853515625,0.091245771484375,0.5679332470703125
-0.09085386718749999,0.06796218994140625,0.8869382958984375
-0.2931501171875,0.04002189208984375,1.2079094775390624
-0.39089421875,0.16991976806640624,1.473091640625
-0.5946493359375,0.1652630517578125,1.4639982763671875
-0.2250696484375,-0.159726728515625,0.993846767578125
0.04457763671875,-0.08227818359375,0.8682600341796876
-0.35344996093750003,0.04982550537109375,0.8820229638671875
-0.35272052734375,0.0211499365234375,0.9498545458984375
-0.12270580078125,-0.12516899169921875,1.0673309814453125
-0.3524773828125,-0.19575500732421874,1.1145181689453125
-0.4915560546875,-0.00777072265625,0.9953213671875
-0.20245720703125,-0.21487205322265626,0.9518206787109375
-0.28366748046875,-0.00507472900390625,0.9913891015625
-0.23528171875,0.02139502685546875,0.879811064453125
-0.11200744140625,-0.07271966064453125,0.8589209033203125
-0.26178447265625,0.03217900146484375,0.710723642578125
-0.199296328125,0.12335260498046875,0.7281730712890625
-0.27637314453125,0.03144373046875,0.8097675830078125
-0.30068759765624997,-0.0268877685546875,1.035135556640625
-0.44171142578125,-0.075415654296875,1.17915478515625
-0.4526529296875,-0.0009081933593750001,0.9641090087890625
-0.143859375,-0.19967645263671874,0.770690693359375
-0.047087851562500005,0.0593840283203125,0.7247323388671875
-0.09012443359375,0.0397768017578125,1.024813359375
-0.42906791015625,0.06158984130859375,1.382157998046875
-0.63209359375,0.150067451171875,1.4728458740234376
-0.31576255859375,0.104970830078125,1.182595517578125
-0.32694720703125,0.0162481298828125,0.82525087890625
-0.4448723046875,-0.046249904785156254,0.6809858837890626
0.002756777343749999,-0.06536695068359374,0.7714279931640625
-0.03687578125,-0.1141399267578125,1.186527783203125
-0.42469130859375,0.05570767333984375,1.31481794921875
-0.43052677734375,-0.0808076416015625,1.398870126953125
-0.40864376953125,0.0564429443359375,1.3686408349609376
-0.479398828125,0.0883046875,1.1331964306640625
-0.4322287890625,-0.028113220214843748,0.933879716796875
-0.1248941015625,-0.0553182470703125,1.026287958984375
-0.18446451171875,-0.09869923583984375,1.1902142822265624
-0.2600824609375,-0.03987755615234375,1.298597353515625
-0.2775888671875,0.0848734228515625,1.2260962060546876
-0.2843969140625,0.0956573974609375,1.0987891064453126
-0.43174250000000003,0.1142842626953125,1.118696201171875
-0.35028908203125,0.026541923828125,1.1744852197265625
-0.205131796875,-0.05017135009765625,1.1818582177734376
-0.244034921875,0.0221302978515625,1.270088427734375
-0.4565432421875,-0.07443529296875,1.408700791015625
-0.31746457031249997,-0.046004814453125,1.38559873046875
-0.54067125,0.04688442138671875,1.2226554736328126
-0.41034578125,-0.00581,1.0496357861328125
-0.15066742187499998,-0.17614778076171875,0.8441749072265625
-0.1239215234375,-0.2494297900390625,0.7743771923828124
-0.19029998046875,-0.2621744873046875,0.7738856591796874
-0.06848457031249999,-0.1665892578125,0.9139726220703125
-0.21510072265625,-0.12149263671875,1.0830600439453124
-0.26154132812499997,-0.04306373046875,1.2823767578125
-0.47380650390625,0.0672269189453125,1.3558609716796874
-0.31430369140625003,0.057668395996093746,1.262223896484375
-0.16720125,0.07629526123046874,0.9478884130859375
-0.19953947265625,-0.00703545166015625,0.8775991650390624
-0.18203306640625,-0.0876701708984375,0.908319990234375
-0.13802390625,0.00399361328125,1.08674654296875
-0.23528171875,-0.10899302978515625,1.3091653173828126
-0.3033621875,-0.013162709960937501,1.510939697265625
-0.51416849609375,0.1436951025390625,1.5460843212890625
-0.33108066406250003,0.1240878759765625,1.4069804248046875
-0.386031328125,0.1417343798828125,1.0348897900390626
-0.30214646484375,0.05521749267578125,0.81640328125
-0.12367837890625,-0.01830960693359375,0.781504423828125
0.05065625,-0.0072805419921875,0.8889044287109376
-0.22968939453125,0.0701680029296875,1.0614325830078124
-0.294608984375,-0.15114856689453124,0.922082919921875
-0.1628246484375,0.012816865234374999,0.9061080908203125
-0.3213548828125,-0.112669384765625,0.7571735302734375
-0.27199654296875,-0.1102184814453125,0.6264256982421875
-0.23212083984375,-0.015368522949218751,0.656654990234375
-0.22336763671875,-0.01928996826171875,0.6726298193359375
-0.2250696484375,-0.1062970361328125,0.9095488232421876
-0.3437241796875,0.080461796875,1.0267794921875
-0.1633109375,-0.052867343750000004,1.0149826953125
-0.20342978515625,0.04933532470703125,1.0053977978515625
-0.36779548828124997,0.13119549560546875,0.7748687255859374
-0.156502890625,0.1485969091796875,0.715638974609375
-0.2561921484375,0.02580665283203125,0.714655908203125
-0.2912049609375,0.0059543359375,0.6908165478515624
-0.14410251953125,0.0008074389648437498,0.59324720703125
-0.2104809765625,-0.020515419921875,0.569162080078125
-0.1443456640625,0.009140510253906251,0.5118984619140625
-0.2707808203125,-0.03448556884765625,0.576043544921875
-0.1706052734375,-0.00997653564453125,0.8117337158203125
-0.25254498046875,0.01404231689453125,1.169815654296875
-0.38141158203125003,0.13119549560546875,1.447040380859375
-0.36682291015625,0.0780108935546875,1.35807287109375
-0.21801845703125,0.14492055419921876,1.126560732421875
-0.37314466796875,0.13805802490234376,0.7790467578125
-0.26567478515625,-0.03742665283203125,0.78494515625
-0.1706052734375,-0.02321141357421875,0.809030283203125
-0.1744955859375,0.02041466552734375,0.5659671142578125
-0.12416466796875,-0.06634731201171876,0.651739658203125
-0.19856689453125,-0.06928839599609375,0.752012431640625
-0.234309140625,0.02335574951171875,0.8812856640625
-0.33472783203125,0.071638544921875,0.9972875
-0.2649453515625,0.028257556152343752,0.9847534033203125
-0.27442798828125,0.01698340087890625,0.98254150390625
-0.338375,-0.0710040283203125,0.9011927587890625
-0.160393203125,0.0003172583007812497,0.8210728466796875
-0.244034921875,-0.01487834228515625,0.64338359375
-0.1287844140625,-0.1082577587890625,0.60307787109375
-0.1258666796875,-0.029338671875,0.8082929833984375
-0.30263275390625,0.04835496337890625,0.9036504248046875
-0.28998923828125,-0.0219859619140625,1.001219765625
-0.30020130859375,0.0652661962890625,1.0130165625
-0.2707808203125,0.01698340087890625,0.9709904736328125
-0.18008791015625,0.03708080810546875,0.990897568359375
-0.22336763671875,0.03144373046875,1.0417712548828124
-0.3417790234375,0.09786321044921875,1.0565172509765626
-0.3680386328125,-0.014633251953124999,1.0009739990234374
-0.3709563671875,0.0446786083984375,1.0457035205078125
-0.2396583203125,0.11967625,1.0869923095703125
-0.3544225390625,-0.06242586669921875,1.1211538671875
-0.361716875,0.06673673828125,1.1538408251953125
-0.210967265625,-0.057278969726562504,1.004660498046875
-0.20683380859375,-0.03350520751953125,0.9080742236328125
-0.249870390625,0.04712951171875,0.84884447265625
-0.23990146484375,-0.0788469189453125,1.06020375
-0.44122513671875,-0.0190448779296875,1.1710444873046875
-0.38043900390625,-0.057769150390625,1.2172486083984375
-0.1827625,0.07825598388671876,1.09657720703125
-0.3446967578125,-0.0523771630859375,0.8576920703124999
-0.1929745703125,-0.06487677001953125,0.709740576171875
-0.14167107421875,-0.01978014892578125,0.6492819921874999
-0.2882872265625,0.00963069091796875,0.78494515625
-0.172064140625,-0.13399224365234375,0.911269189453125
-0.3135742578125,0.05864875732421875,1.1427813281249999
-0.3602580078125,0.0378160791015625,1.105916337890625
-0.2260422265625,0.046149150390625,1.039067822265625
-0.30895451171875,0.01453249755859375,1.0461950537109375
-0.19419029296875,-0.04379900146484375,1.050864619140625
-0.1180860546875,0.1035002880859375,1.270088427734375
-0.36974064453125,-0.03154448486328125,1.469159375
-0.35393625,0.019679394531249998,1.46031177734375
-0.448276328125,-0.0190448779296875,1.105916337890625
-0.23601115234375,-0.1023755908203125,0.873912666015625
-0.14799283203125,0.0005623486328125002,0.862115869140625
-0.3967296875,-0.07419020263671874,0.984999169921875
-0.20294349609375,-0.154824921875,0.9562444775390625
-0.27199654296875,0.02580665283203125,0.8783364648437499
-0.14458880859375,-0.093062158203125,0.8294289111328125
-0.097175625,-0.11634573974609375,1.071509013671875
-0.2523018359375,0.1348718505859375,1.1897227490234374
-0.38530189453125,-0.0641414990234375,1.0228472265625
-0.22677166015625,-0.0327699365234375,0.9080742236328125
-0.27588685546875,-0.0259074072265625,0.693028447265625
-0.25740787109375,-0.067572763671875,0.624213798828125
-0.17717017578125,-0.02419177490234375,0.640925927734375
-0.42663646484375,-0.05752406005859375,0.6686975537109375
-0.17862904296875,0.12335260498046875,0.8254966455078125
-0.2834243359375,-0.106787216796875,0.9749227392578125
-0.30311904296875003,0.12482314697265626,1.0221099267578124
-0.125380390625,0.04639424072265625,0.9677955078125
-0.3009307421875,0.05717821533203125,1.1046875048828124
-0.4526529296875,0.01796376220703125,1.1081282373046875
-0.12902755859375,-0.0504164404296875,0.81935248046875
-0.003808124999999999,0.12041152099609376,0.80165728515625
-0.34202216796875,0.06502110595703126,0.9311762841796875
-0.366579765625,0.099088662109375,1.0661021484375
-0.4127772265625,0.0037485229492187503,1.0592206835937499
-0.174009296875,-0.10580685546875,1.0987891064453126
-0.40256515625,-0.0028689160156250004,1.0560257177734376
-0.28853037109375,-0.013652890625,0.957473310546875
-0.3072525,-0.037916833496093746,0.812471015625
-0.34250845703125,-0.11242429443359375,0.6084847363281249
-0.11006228515625,-0.08742508056640624,0.4298124169921875
-0.0636216796875,-0.052867343750000004,0.23147876953125
-0.068970859375,-0.05899460205078125,0.2602334619140625
-0.05219388671875,0.0003172583007812497,0.4711012060546875
-0.16452666015625,0.11845079833984375,0.5988998388671875
-0.2333365625,0.12678386962890625,1.039067822265625
-0.43247193359375,0.08756941650390625,1.4541676123046874
-0.46359443359375,0.13217585693359374,1.43770125
-0.29387955078125,0.22629054443359375,1.5421520556640624
-0.195406015625,0.11649007568359375,1.2418252685546876
-0.29631099609375,-0.059729873046875,0.8707177001953125
-0.119544921875,-0.0347306591796875,0.863098935546875
-0.29242068359375,0.03659062744140625,0.8594124365234375
-0.20804953125,-0.13987441162109376,0.631095263671875
-0.07018658203125,-0.0141430712890625,0.8087845166015625
-0.269321953125,0.073599267578125,0.9469053466796875
-0.29533841796875,-0.0837487255859375,0.8328696435546875
-0.33521412109375,0.10766682373046875,0.8820229638671875
-0.24525064453125,0.13315621826171875,0.7832247900390625
-0.232363984375,0.07580508056640625,0.741198701171875
-0.31965287109375,0.1505576318359375,0.76921609375
-0.13194529296875,-0.0724745703125,0.9469053466796875
-0.10519939453125,0.08707923583984375,1.2875378564453124
-0.504685859375,0.08217742919921875,1.51929576171875
-0.53945552734375,0.0005623486328125002,1.300071953125
-0.36487775390625,0.0897752294921875,0.9306847509765624
-0.37946642578125,-0.055808427734375,0.694011513671875
-0.1958923046875,-0.1347275146484375,0.65616345703125
-0.09450103515625,-0.012427438964843749,0.6844266162109375
-0.14969484375,0.10374537841796876,0.9464138134765625
-0.30871136718750003,0.030463369140625002,1.1872650830078124
-0.27685943359375,0.106931552734375,1.462769443359375
-0.458002109375,0.1054610107421875,1.446057314453125
-0.36585033203125,-0.08963089355468751,1.17129025390625
-0.28464005859375,-0.050661530761718754,0.962388642578125
-0.3578265625,0.0250713818359375,0.7414444677734375
-0.19467658203125,-0.05458297607421875,0.6455954931640625
-0.16720125,-0.19330410400390624,0.69548611328125
-0.17960162109375,-0.01144707763671875,0.94321884765625
-0.29509527343749997,0.10031411376953125,1.0722463134765625
-0.3330258203125,0.06796218994140625,1.1558069580078125
-0.3553951171875,0.0505607763671875,1.109848603515625
-0.40329458984375,0.06158984130859375,1.0412797216796874
-0.20197091796875,-0.0011532836914062497,0.83704767578125
-0.28269490234375,-0.06977857666015624,0.769707626953125
-0.08234380859375,-0.085219267578125,0.827708544921875
-0.10325423828125,0.0137972265625,1.08379734375
-0.42760904296875,0.01404231689453125,1.2093840771484374
-0.403537734375,0.03413972412109375,1.1459762939453124
-0.37752126953125,0.0162481298828125,1.14179826171875
-0.43149935546875,-0.11928682373046876,1.1577730908203125
-0.32111173828125,-0.1259042626953125,1.295648154296875
-0.2114535546875,-0.046004814453125,1.090187275390625
-0.13437673828125,-0.11095375244140625,0.9007012255859375
-0.24038775390625,-0.052867343750000004,0.9385492822265625
-0.1939471484375,-0.1455114892578125,0.993846767578125
-0.21607330078125,0.12163697265625,1.135408330078125
-0.42712275390625,0.132420947265625,1.026287958984375
-0.25157240234375,0.09835339111328124,0.7684787939453125
-0.046358417968749996,0.044188427734375,0.786419755859375
-0.39089421875,0.012816865234374999,0.94715111328125
-0.29582470703125,0.0593840283203125,0.964354775390625
-0.20415921875,0.13070531494140625,0.8053437841796875
-0.18397822265625,0.04541387939453125,0.797233486328125
-0.29679728515625,0.0843832421875,0.9183964208984375
-0.19029998046875,0.1250682373046875,1.0850261767578124
-0.2411171875,0.2368294287109375,1.14573052734375
-0.3388612890625,0.026296833496093748,1.150154326171875
-0.284883203125,0.095167216796875,1.102967138671875
-0.31308796875,-0.0092412646484375,0.950591845703125
-0.27977716796875,0.011346323242187501,0.8200897802734375
-0.2464663671875,0.00276816162109375,0.7778179248046875
-0.14896541015625,-0.02223105224609375,0.85474287109375
-0.1968648828125,0.03708080810546875,0.97664310546875
-0.25692158203125,-0.03448556884765625,1.047915419921875
-0.17765646484375,0.0348749951171875,1.0383305224609374
-0.26056875,0.02041466552734375,0.9729566064453125
-0.23455228515625,-0.06659240234375,0.977626171875
-0.2279873828125,0.01698340087890625,0.8127167822265625
-0.1477496875,0.0417375244140625,0.834590009765625
-0.32937865234375,-0.0739451123046875,0.9972875
-0.30360533203125,-0.00997653564453125,1.120662333984375
-0.2736985546875,0.05570767333984375,0.901438525390625
-0.11395259765625,0.1157548046875,0.7350545361328125
-0.257651015625,0.0250713818359375,0.797233486328125
-0.2814791796875,0.00423870361328125,0.9193794873046874
-0.2644590625,0.12188206298828125,1.023338759765625
-0.1803310546875,0.1015395654296875,0.804606484375
-0.18738224609375,-0.030319033203124998,0.694503046875
-0.19248828125,0.08511851318359374,0.8849721630859375
-0.40134943359374997,0.0020328906249999995,1.0137538623046876
-0.28998923828125,0.1858506396484375,1.1172216015625
-0.3578265625,0.00521906494140625,1.1445016943359374
-0.30166017578125,-0.01879978759765625,1.0162115283203126
-0.2425760546875,-0.09722869384765626,0.81148794921875
-0.21412814453125,-0.05164189208984375,0.740215634765625
-0.13510617187500001,-0.0396324658203125,0.64829892578125
-0.01766736328125,0.05913893798828125,0.7134270751953125
-0.2853694921875,-0.052867343750000004,0.8933282275390625
-0.2970404296875,0.11845079833984375,1.0700344140625
-0.34542619140624997,0.20080114990234374,1.07494974609375
-0.25594900390624997,0.16697868408203126,0.8943112939453125
-0.3889490625,0.09051050048828126,0.8525309716796875
-0.27029453125,0.05962911865234375,0.9238032861328125
-0.15480087890625,0.153988896484375,1.0058893310546875
-0.304334765625,0.108892275390625,1.1272980322265624
-0.4059691796875,0.08070688720703124,1.1440101611328124
-0.1997826171875,-0.07026875732421875,0.89799779296875
-0.02131453125,-0.0038492773437499997,0.8869382958984375
-0.23941517578125,-0.01585870361328125,0.8987350927734374
-0.33253953125,-0.0710040283203125,1.0019570654296874
-0.48158712890625,0.0966377587890625,1.16539185546875
-0.13486302734375,0.04590406005859375,1.0174403613281249
-0.070916015625,0.02360083984375,1.260257763671875
-0.44171142578125,-0.0161037939453125,1.4846426708984375
-0.609724296875,-0.05311243408203125,1.452938779296875
-0.1900568359375,-0.1513936572265625,0.94125271484375
-0.20099833984375,0.0015427099609375003,0.678773984375
-0.263486484375,0.03536517578125,0.69745224609375
-0.21461443359375,-0.049926259765625,0.8471241064453126
-0.43782111328125,0.15423398681640624,0.9311762841796875
-0.25594900390624997,0.1397736572265625,0.8161575146484374
-0.12829812499999999,-0.06781785400390625,0.777572158203125
-0.066053125,0.03904153076171875,0.798216552734375
-0.09547361328125001,0.13462676025390624,0.8043607177734375
-0.41350666015625,0.1554594384765625,0.9665666748046875
-0.4244481640625,0.03855135009765625,1.114763935546875
-0.24719580078125,0.10178465576171875,1.341852275390625
-0.34348103515625,0.05276658935546875,1.3892852294921876
-0.3456693359375,0.08021670654296875,1.44261658203125
-0.43879369140625,0.07457962890625,1.2988431201171875
-0.3835998828125,-0.16046199951171874,1.1100943701171875
-0.14361623046875,-0.1116890234375,0.819844013671875
-0.172064140625,-0.013162709960937501,0.5726028125
-0.013777050781250001,-0.049926259765625,0.552941484375
-0.172064140625,-0.0827683642578125,0.7947758203124999
-0.36366203125,0.16599832275390625,0.9886856689453125
-0.044899550781250006,0.065756376953125,1.1980788134765625
-0.172064140625,0.0819323388671875,1.3688866015625
-0.4200715625,0.2240847314453125,1.2020110791015626
-0.39843169921875,-0.026397587890625,1.0130165625
-0.26178447265625,0.0456589697265625,1.02776255859375
-0.2333365625,-0.1415900439453125,1.1037044384765624
-0.20586123046875,0.0093856005859375,1.193409248046875
-0.18227621093750002,0.08560869384765625,1.232731904296875
-0.26251390625,0.159871064453125,0.990897568359375
-0.3096839453125,0.10202974609375,0.9051250244140625
-0.148722265625,0.0280124658203125,0.8820229638671875
-0.21607330078125,0.07580508056640625,1.1489254931640625
-0.32086859375,0.06453092529296875,1.356598271484375
-0.4030514453125,0.04051207275390625,1.272054560546875
-0.23844259765625,-0.10752248779296875,0.972219306640625
-0.2416034765625,-0.11536537841796875,0.6883588818359375
-0.07456318359375,-0.0866898095703125,0.57948427734375
-0.1278118359375,0.026296833496093748,0.679265517578125
-0.26518849609375,0.0368357177734375,0.8594124365234375
-0.366579765625,0.05031568603515625,1.0255506591796875
-0.32646091796875,0.09198104248046875,1.0511103857421875
-0.21510072265625,-0.0055649096679687505,0.999745166015625
-0.2717533984375,0.05031568603515625,0.8903790283203125
-0.24379177734375002,0.11771552734375,0.8655566015625
-0.20440236328125,0.17384121337890626,1.034152490234375
-0.19224513671875,0.09100068115234375,1.000728232421875
-0.13291787109375,0.04051207275390625,1.0112961962890625
-0.24184662109375,0.04712951171875,1.1312302978515625
-0.421044140625,-0.049926259765625,0.9872110693359375
-0.23747001953125,0.0003172583007812497,0.91176072265625
-0.25157240234375,0.0280124658203125,0.8997181591796874
-0.31187224609374997,-0.01193725830078125,0.787402822265625
-0.27248283203125,-0.00581,0.8707177001953125
-0.1472633984375,0.0838930615234375,1.0953483740234375
-0.25303126953125,0.091245771484375,1.0648733154296874
-0.30895451171875,0.1113431787109375,1.2187232080078125
-0.3116291015625,0.10031411376953125,1.37183580078125
-0.41302037109375,-0.0680629443359375,1.0275167919921875
-0.11006228515625,-0.051886982421875,0.8299204443359375
-0.1866528125,-0.0371815625,0.6976980126953125
-0.06386482421875,-0.09012107421875,0.54999228515625
-0.1166271875,-0.05360261474609375,0.6362563623046875
-0.25838044921875,0.05668803466796875,0.94715111328125
-0.2756437109375,0.0848734228515625,1.2442829345703126
-0.35344996093750003,0.1427147412109375,1.3883021630859376
-0.2445212109375,0.2299668994140625,1.3071991845703126
-0.19224513671875,0.0887948681640625,1.1464678271484374
-0.181789921875,0.0387964404296875,1.0936280078125
-0.2318776953125,0.0701680029296875,1.2332234375
-0.22944625,-0.07811164794921875,1.2334692041015625
-0.30020130859375,-0.1357078759765625,1.04152548828125
-0.15358515625,-0.09379742919921875,0.8176321142578125
-0.06629626953125001,-0.12271808837890624,0.7394783349609375
-0.14896541015625,-0.136198056640625,0.812962548828125
-0.14945169921875,-0.03448556884765625,0.9803296044921875
-0.218747890625,-0.02419177490234375,1.2005364794921876
-0.31916658203125,0.0025230712890624996,1.2934362548828124
-0.25351755859375,0.04639424072265625,1.1966042138671875
-0.35417939453125,-0.0455146337890625,1.01989802734375
-0.30068759765624997,0.02090484619140625,1.0855177099609374
-0.3067662109375,0.0059543359375,1.1159927685546875
-0.214857578125,-0.016593974609375,1.034152490234375
-0.25303126953125,-0.04526954345703125,0.7842078564453125
-0.19273142578125,0.0182088525390625,0.7429190673828125
-0.1307295703125,-0.037916833496093746,0.7456225
-0.226528515625,0.062080021972656246,0.8461410400390625
-0.16160892578125,-0.01046671630859375,0.9729566064453125
-0.2766162890625,0.13462676025390624,1.066593681640625
-0.16647181640625,0.10374537841796876,1.1356540966796875
-0.28026345703125,0.15227326416015624,1.2142994091796875
-0.28755779296875,0.09345158447265625,1.1526119921875
-0.3339983984375,0.057913486328125,1.083305810546875
-0.286828359375,-0.01169216796875,1.1553154248046875
-0.30360533203125,0.06894255126953125,1.116730068359375
-0.1492085546875,0.08609887451171874,1.1484339599609374
-0.3267040625,-0.02762303955078125,1.1798920849609376
-0.0869635546875,-0.008996174316406251,0.9926179345703126
-0.16549923828125,0.03928662109375,0.867031201171875
-0.13802390625,0.03512008544921875,1.0299744580078125
-0.1239215234375,0.0917359521484375,1.090187275390625
-0.24330548828125,0.10374537841796876,1.2194605078125
-0.20294349609375,0.0966377587890625,1.2811479248046875
-0.16185207031249998,0.157910341796875,1.133442197265625
-0.22239505859375,0.1250682373046875,1.1356540966796875
-0.29387955078125,0.12629368896484375,1.1410609619140626
-0.2163164453125,0.06355056396484375,1.1268064990234374
-0.2659179296875,0.026051743164062502,1.093136474609375
-0.24087404296875,0.04737460205078125,0.8967689599609375
-0.19224513671875,0.07188363525390624,0.775606025390625
-0.1851939453125,0.04443351806640625,0.736283369140625
-0.1842213671875,0.04786478271484375,0.777080625
-0.1443456640625,0.09884357177734375,0.8262339453125
-0.203186640625,0.0476196923828125,0.82328474609375
-0.2133987109375,0.02678701416015625,0.805098017578125
-0.26421591796875,0.11452935302734375,0.7827332568359375
-0.268349375,0.0446786083984375,0.7478343994140625
-0.21412814453125,0.0037485229492187503,0.7188339404296875
-0.23795630859375,0.0486000537109375,0.747097099609375
-0.3072525,-0.026397587890625,0.8498275390625
-0.273212265625,0.0182088525390625,0.946168046875
-0.20829267578125,-0.0180645166015625,0.9048792578125
-0.21218298828125,-0.042083369140625,0.8839890966796875
-0.21315556640625,0.0020328906249999995,0.8171405810546875
-0.24038775390625,-0.060710234375,0.6925369140625
-0.17084841796875,-0.0592396923828125,0.6883588818359375
-0.28123603515625,0.0059543359375,0.93732044921875
-0.27151025390625,0.019434304199218752,0.89996392578125
-0.11054857421875,0.0819323388671875,0.821810146484375
-0.20051205078125,0.07041309326171875,0.7306307373046875
-0.20197091796875,0.09639266845703125,0.9454307470703125
-0.40572603515625,0.05889384765625,1.035135556640625
-0.21947732421875,0.06551128662109375,1.02972869140625
-0.35515197265625,-0.02517213623046875,0.938303515625
-0.2800203125,-0.0016434643554687498,0.9065996240234375
-0.1861665234375,0.01208159423828125,0.9749227392578125
-0.368524921875,0.05031568603515625,0.9867195361328125
-0.24427806640625,0.06551128662109375,0.9501003125
-0.1375376171875,-0.0063001806640625,0.8245135791015625
-0.30506419921875,-0.026397587890625,0.8756330322265625
-0.25400384765625,-0.06193568603515625,0.9827872705078124
-0.21655958984375,0.0564429443359375,0.871455
-0.19175884765625,-0.0013983740234375002,0.8343442431640625
-0.20464550781250002,0.14001874755859375,0.812471015625
-0.29533841796875,-0.06340622802734375,0.7881401220703125
-0.2698082421875,-0.01389798095703125,0.8834975634765625
-0.33035123046875,0.05913893798828125,1.0540595849609375
-0.294608984375,-0.1357078759765625,1.055779951171875
-0.2386857421875,0.12384278564453124,1.04742388671875
-0.26956509765625,0.0201695751953125,1.089204208984375
-0.16112263671875,0.033404453125,1.0565172509765626
-0.265431640625,0.06747200927734374,1.0250591259765625
-0.18640966796875,0.1000690234375,1.00220283203125
-0.3709563671875,-0.0543378857421875,0.9562444775390625
-0.3388612890625,0.0103659619140625,0.937811982421875
-0.17522501953125,0.11649007568359375,0.886692529296875
-0.2133987109375,-0.12909043701171874,0.827708544921875
-0.058272500000000005,0.044188427734375,0.8380307421875
-0.2143712890625,0.0456589697265625,0.868014267578125
-0.174009296875,-0.1195319140625,0.9562444775390625
-0.12270580078125,-0.0798272802734375,1.087238076171875
-0.22725794921875,-0.0719843896484375,1.1848074169921876
-0.2639727734375,-0.075415654296875,1.201273779296875
-0.30311904296875003,0.0397768017578125,1.1233657666015624
-0.249870390625,0.062080021972656246,0.886692529296875
-0.0607039453125,0.056933125,0.8471241064453126
-0.1920019921875,0.0956573974609375,0.949608779296875
-0.27588685546875,0.128499501953125,1.18308705078125
-0.11930177734375,0.0574233056640625,1.3504541064453126
-0.21412814453125,0.0005623486328125002,1.1388490625
-0.14021220703125,0.16746886474609374,0.9990078662109375
-0.249870390625,0.07041309326171875,0.95796484375
-0.2338228515625,0.0142874072265625,0.9464138134765625
-0.24136033203125,0.1152646240234375,1.0810939111328124
-0.42055785156250003,0.0417375244140625,1.2339607373046875
-0.33375525390625,0.0819323388671875,1.188493916015625
-0.1832487890625,0.00717978759765625,0.9717277734375
-0.06726884765625,0.08217742919921875,0.99630443359375
-0.3369161328125,-0.04919098876953125,0.973202373046875
-0.209022109375,0.02360083984375,1.095594140625
-0.30846822265625,0.05497240234375,1.0948568408203125
-0.3194097265625,0.11256863037109376,1.055779951171875
-0.210967265625,0.0711483642578125,0.916184521484375
-0.28269490234375,0.046149150390625,0.7473428662109375
-0.18859796875,0.08560869384765625,0.6873758154296875
-0.16258150390625,-0.01193725830078125,0.6657483544921875
-0.097175625,-0.12663953369140624,0.8151744482421874
-0.3135742578125,0.0231106591796875,1.0668394482421875
-0.5129527734375,-0.0028689160156250004,1.0174403613281249
-0.2561921484375,0.004973974609375,0.878827998046875
-0.13607875,0.05889384765625,0.80362341796875
-0.17376615234375,0.161831787109375,0.8549886376953125
-0.20464550781250002,0.1387932958984375,1.038084755859375
-0.389921640625,0.04100225341796875,1.08084814453125
-0.1958923046875,0.01796376220703125,1.056271484375
-0.1676875390625,0.0015427099609375003,1.166866455078125
-0.24306234375,-0.0719843896484375,1.2850801904296876
-0.206104375,-0.14698203125,1.3632339697265625
-0.32791978515625,0.08413815185546875,1.1921804150390625
-0.27977716796875,-0.02517213623046875,1.0973145068359376
-0.30749564453125,-0.0072805419921875,1.0201437939453124
-0.29922873046875,0.0299731884765625,0.9407611816406249
-0.17522501953125,-0.0268877685546875,0.7082659765625
-0.156502890625,-0.09232688720703125,0.73677490234375
-0.10714455078125,0.0682072802734375,0.839996875
-0.15188314453125001,-0.04772044677734375,0.6185611669921875
-0.08769298828125,0.0172284912109375,0.8574463037109374
-0.21558701171875,0.126538779296875,1.197341513671875
-0.411318359375,0.261828642578125,1.221918173828125
-0.2367405859375,0.1387932958984375,1.3489795068359376
-0.455084375,0.20521277587890624,1.2836055908203126
-0.26640421875,-0.0082609033203125,0.8065726171875
-0.1219763671875,-0.15752091552734376,0.5905437744140625
-0.19321771484375,-0.11291447509765624,0.5423735205078125
-0.15577345703125,-0.0999246875,0.3634554345703125
-0.07942607421875,-0.14502130859375,0.5743231787109375
-0.022530253906250002,-0.13644314697265625,0.8785822314453124
-0.175954453125,-0.060710234375,0.93535431640625
-0.31722142578125,-0.0337502978515625,1.1425355615234376
-0.3096839453125,0.0069346972656249995,1.2374014697265625
-0.345183046875,-0.00360418701171875,1.0958399072265625
-0.12854126953125,0.09982393310546875,0.99040603515625
-0.20391607421875,0.0887948681640625,0.8984893261718749
-0.1832487890625,0.0843832421875,0.765775361328125
-0.172064140625,0.03855135009765625,1.0228472265625
-0.361716875,0.0819323388671875,1.1356540966796875
-0.222638203125,0.16256705810546876,0.9238032861328125
-0.1365650390625,0.1613416064453125,0.843437607421875
-0.24816837890625,0.1819291943359375,0.9891772021484375
-0.38578818359375,0.055952763671875,1.019406494140625
-0.2445212109375,0.0927163134765625,1.002694365234375
-0.230418828125,0.061834931640625,1.182103984375
-0.3301080859375,0.08953013916015624,1.3455387744140626
-0.36147373046875,-0.09820905517578125,1.3563525048828124
-0.2843969140625,0.061834931640625,1.120662333984375
-0.26810623046875,0.00521906494140625,0.7456225
-0.1988100390625,-0.087179990234375,0.671400986328125
-0.09109701171875,-0.0739451123046875,0.880794130859375
-0.25351755859375,-0.01732924560546875,1.2364184033203125
-0.47526537109375,0.1035002880859375,1.1966042138671875
-0.38821962890625,0.0211499365234375,0.979100771484375
-0.4905834765625,0.0740894482421875,0.8544971044921875
-0.36366203125,-0.0371815625,0.6337986962890625
-0.13389044921874999,-0.03595611083984375,0.46348244140625
-0.076751484375,-0.10507158447265624,0.300784951171875
-0.060460800781250004,-0.09379742919921875,0.167579453125
-0.0363894921875,-0.12222790771484375,0.22263117187499998
-0.04052294921875,-0.14330567626953125,0.4172783203125
-0.02885201171875,-0.08350363525390625,0.7350545361328125
-0.28074974609375003,0.01600303955078125,1.2270792724609374
-0.61628919921875,0.00570924560546875,1.58811041015625
-0.46602587890625,0.12335260498046875,1.4475319140625
-0.30360533203125,0.10962754638671875,1.423446787109375
-0.3111428125,0.27040680419921875,1.3509456396484376
-0.23990146484375,-0.06536695068359374,1.121645400390625
-0.04684470703125,-0.2528610546875,0.9596852099609375
0.012482558593749998,-0.17467723876953126,0.9857364697265625
-0.17425244140625,-0.0268877685546875,0.849336005859375
-0.34056330078125,-0.0366913818359375,0.9203625537109374
-0.29582470703125,0.0486000537109375,1.127052265625
-0.4234755859375,0.181439013671875,1.2890124560546874
-0.32743349609375,0.13315621826171875,1.4286078857421876
-0.09790505859375,0.18511536865234374,1.514871962890625
-0.413263515625,0.33216956787109375,1.70017998046875
-0.40718490234375,0.18756627197265624,1.55272001953125
-0.4584883984375,0.189281904296875,1.36593740234375
-0.553314765625,0.1392834765625,0.903404658203125
-0.31576255859375,-0.100905048828125,0.4160494873046875
-0.01815365234375,-0.06438658935546875,0.30520875000000003
0.006890234374999998,-0.1102184814453125,0.20985130859375
0.0180748828125,-0.06291604736328126,0.21722430664062498
-0.08137123046875,0.023845930175781252,0.3988458251953125
-0.1171134765625,-0.10065995849609374,0.5568737500000001
-0.09401474609375,-0.13448242431640625,1.0948568408203125
-0.28318119140625,-0.128355166015625,1.6846966845703124
-0.37363095703125,0.17040994873046875,2.1251104345703125
-0.43587595703125,0.3039841796875,1.880572666015625
-0.5499107421875,0.0530116796875,1.654467392578125
-0.35515197265625,0.05374695068359375,1.2801648583984375
-0.4409819921875,0.05105095703125,0.9960586669921875
-0.11468203125,0.0985984814453125,0.8166490478515624
-0.04052294921875,0.038306259765625,0.5939845068359375
0.007133378906249998,-0.050661530761718754,0.5254156249999999
-0.113709453125,-0.23889090576171876,0.76823302734375
-0.2824517578125,-0.05654369873046875,1.0936280078125
-0.36098744140625,0.18413500732421875,1.085271943359375
-0.1200312109375,0.12825441162109374,1.077407412109375
-0.06848457031249999,0.2083989501953125,1.11034013671875
-0.17717017578125,0.252025029296875,1.0179318945312499
-0.35320681640625,0.14639109619140625,1.2939277880859374
-0.40937320312500003,0.12727405029296876,1.31481794921875
-0.46456701171875,-0.03350520751953125,1.2629611962890626
-0.3719289453125,-0.0768861962890625,1.221426640625
-0.15139685546875,-0.139139140625,1.1415524951171876
-0.12027435546875,0.00963069091796875,0.891116328125
-0.09401474609375,-0.15286419921875,0.74857169921875
-0.17133470703125,-0.183255400390625,0.7790467578125
-0.1385101953125,0.00178780029296875,0.731368037109375
-0.25108611328125,0.0008074389648437498,0.7633176953125
0.06354291015625,-0.07370002197265625,0.854251337890625
-0.21753216796875,0.0093856005859375,1.053813818359375
-0.41399294921875,0.11379408203125,0.998762099609375
-0.23406599609375,-0.1288453466796875,0.9994993994140625
-0.3203823046875,0.08266760986328126,1.200290712890625
-0.38505875,0.23070217041015625,1.07298361328125
-0.2488978125,-0.0097314453125,0.9690243408203125
-0.2892598046875,0.09835339111328124,1.0570087841796876
-0.26761994140625,0.103010107421875,1.1012467724609376
-0.11152115234375,-0.02419177490234375,0.955507177734375
-0.16744439453124998,0.014777587890624999,0.9638632421875
-0.21169669921875,-0.00213364501953125,0.89504859375
-0.1005796484375,0.06453092529296875,0.7296476708984375
-0.06532369140625,-0.05752406005859375,0.6593584228515625
-0.17862904296875,0.1838899169921875,0.809030283203125
-0.380195859375,0.136342392578125,1.0132623291015626
-0.4098594921875,0.09737302978515625,1.120662333984375
-0.469673046875,0.07923634521484375,1.0975602734375
-0.28269490234375,0.00399361328125,1.0184234277343749
-0.23017568359375,-0.07222947998046875,0.91765912109375
-0.29582470703125,0.0162481298828125,0.756927763671875
-0.13607875,-0.06634731201171876,0.7026133447265624
-0.2411171875,-0.2160975048828125,0.818860947265625
-0.23455228515625,-0.03301502685546875,0.8554801708984375
-0.19029998046875,-0.0837487255859375,0.8844806298828125
-0.1297569921875,0.0201695751953125,0.849336005859375
-0.22142248046875002,0.10129447509765625,0.760860029296875
-0.09523046875,0.18217428466796876,0.7276815380859375
-0.31187224609374997,0.12776423095703124,0.8427003076171875
-0.384086171875,0.15472416748046874,1.04545775390625
-0.380195859375,0.050070595703125,1.11623853515625
-0.14629082031250001,0.014777587890624999,1.1852989501953124
-0.29728357421875,0.055462583007812497,1.0978060400390626
-0.38967849609375,-0.09918941650390625,0.875878798828125
-0.1881116796875,0.03315936279296875,0.7173593408203125
-0.30117388671875,0.10031411376953125,0.59324720703125
-0.31308796875,0.116735166015625,0.6396970947265626
-0.13389044921874999,-0.015368522949218751,0.6957318798828125
-0.14069849609375001,0.026296833496093748,0.8191067138671875
-0.01085931640625,0.09835339111328124,0.75447009765625
-0.15917748046875,-0.08791526123046875,0.635027529296875
-0.19710802734375,-0.05556333740234375,0.720554306640625
-0.257651015625,0.057668395996093746,0.93437125
-0.2873146484375,-0.03938737548828125,1.23813876953125
-0.33910443359375,-0.0631611376953125,1.3765053662109374
-0.46797103515625,0.0613447509765625,1.2496897998046874
-0.2756437109375,0.07776580322265625,1.033169423828125
-0.35709712890625,0.00178780029296875,0.9051250244140625
-0.16938955078125,0.13070531494140625,0.9572275439453125
-0.05073501953125,0.0740894482421875,1.224867373046875
-0.21972046875,0.19982078857421876,1.3214536474609375
-0.3267040625,0.299082373046875,1.2155282421875
-0.29922873046875,0.13805802490234376,1.0700344140625
-0.21972046875,0.20031096923828126,1.0267794921875
-0.10665826171875001,0.1079119140625,1.108865537109375
-0.1599069140625,-0.026397587890625,1.2138078759765625
-0.2873146484375,-0.06928839599609375,1.32858087890625
-0.3524773828125,0.0191892138671875,1.2462490673828124
-0.50298384765625,-0.14967802490234375,1.151137392578125
-0.3835998828125,-0.01561361328125,1.101984072265625
-0.15164,-0.16634416748046876,1.03169482421875
-0.15771861328125,0.03021827880859375,0.9206083203125
-0.16063634765625,0.18805645263671875,0.8382765087890625
-0.197351171875,0.0020328906249999995,0.6667314208984375
-0.08477525390625,0.12482314697265626,0.8186151806640625
-0.067025703125,0.09590248779296875,1.026287958984375
-0.0762651953125,0.00791505859375,1.1685868212890624
-0.011345605468749999,-0.09771887451171875,1.30695341796875
-0.26227076171875,0.1250682373046875,1.5342875244140626
-0.51805880859375,0.075559990234375,1.3435726416015625
-0.2532744140625,0.0044837939453125,1.1093570703125
-0.37606240234375,0.16624341308593749,1.245020234375
-0.4098594921875,0.18119392333984374,1.14179826171875
-0.32451576171875,-0.05458297607421875,1.1835785839843749
-0.3077387890625,0.20423241455078125,1.3652001025390625
-0.21850474609375,0.03168882080078125,1.0427543212890624
-0.061190234375,0.02286556884765625,0.9464138134765625
-0.1268392578125,0.0397768017578125,0.99040603515625
-0.1103054296875,-0.09869923583984375,0.7851909228515626
-0.10203851562499999,-0.07664110595703125,1.031203291015625
-0.426879609375,-0.08963089355468751,1.1685868212890624
-0.24427806640625,-0.0200252392578125,0.8859552294921875
-0.11298001953125,0.0142874072265625,0.859658203125
-0.2172890234375,-0.0018885546875000003,1.1189419677734376
-0.4079143359375,0.12923477294921876,1.181612451171875
-0.376305546875,0.13732275390625,1.2270792724609374
-0.33132380859375,0.089285048828125,1.148188193359375
-0.32597462890625,0.19050735595703125,1.0255506591796875
-0.28755779296875,0.04737460205078125,0.8898874951171875
-0.16744439453124998,-0.014633251953124999,0.82918314453125
-0.07067287109375,-0.06732767333984375,0.632078330078125
-0.11638404296875,-0.12320826904296875,0.4593044091796875
-0.1161408984375,-0.14085477294921875,0.42415978515624997
-0.061190234375,-0.1435507666015625,0.45758404296875
-0.0782103515625,-0.05458297607421875,0.4819149365234375
-0.16015005859375,-0.020515419921875,0.5964421728515625
-0.24914095703125,0.0182088525390625,0.8874298291015625
-0.4390368359375,0.04149243408203125,1.1282810986328125
-0.39016478515624997,0.20374223388671875,1.2192147412109375
-0.33813185546875,0.3005529150390625,1.2870463232421876
-0.470645625,0.17335103271484376,1.121645400390625
-0.22920310546875,0.10864718505859375,1.043983154296875
-0.27005138671875,0.0270321044921875,0.994829833984375
-0.29533841796875,0.05227640869140625,0.7719195263671875
-0.005753281249999999,0.05325677001953125,0.60504400390625
-0.131215859375,0.0172284912109375,0.5163222607421875
-0.16890326171875,0.120656611328125,0.6883588818359375
-0.08185751953125,0.14688127685546876,0.965829375
-0.16720125,0.11354899169921875,1.109848603515625
-0.26907880859375,0.14099910888671874,1.05233921875
-0.41788326171875,0.1525183544921875,1.0417712548828124
-0.3651208984375,0.06673673828125,0.88620099609375
-0.2022140625,-0.0097314453125,0.9206083203125
-0.36366203125,-0.12712971435546874,1.086255009765625
-0.35174794921875,-0.09624833251953124,1.2029941455078126
-0.268349375,-0.02958376220703125,1.009575830078125
-0.179844765625,0.03364954345703125,0.75053783203125
-0.03687578125,0.00227798095703125,0.5251698583984374
-0.02933830078125,-0.1023755908203125,0.40277809082031246
-0.20099833984375,-0.014633251953124999,0.4067103564453125
-0.15236943359375,0.028257556152343752,0.577026611328125
-0.105928828125,0.1201664306640625,0.8240220458984375
-0.2800203125,0.0780108935546875,1.0516019189453125
-0.10325423828125,0.161831787109375,1.2108586767578124
-0.201241484375,0.2838867724609375,1.35217447265625
-0.42590703125,0.2610933715820313,1.3610220703125
-0.38967849609375,0.300062734375,1.389039462890625
-0.52000396484375,0.11599989501953126,1.2206893408203126
-0.40621232421875,-0.01291761962890625,1.02186416015625
-0.19273142578125,0.0564429443359375,0.9375662158203125
-0.199296328125,0.050070595703125,0.58538267578125
-0.21315556640625,0.08634396484375,0.48117763671875
-0.14750654296875,-0.01561361328125,0.5674417138671874
-0.125380390625,-0.140119501953125,0.73087650390625
-0.0626491015625,0.07188363525390624,0.908319990234375
-0.23163455078125,0.25177993896484374,1.0909245751953125
-0.34421046875,0.18854663330078125,1.23813876953125
-0.282938046875,0.2034971435546875,1.49963443359375
-0.37265837890625,0.29785692138671876,1.5396943896484374
-0.29776986328125,0.2083989501953125,1.419514521484375
-0.4905834765625,0.1985953369140625,1.3529117724609374
-0.24962724609375,0.00423870361328125,1.2664019287109376
-0.17668388671875,0.17482157470703125,1.23027423828125
-0.1560166015625,0.23854506103515624,1.1651460888671874
-0.4049966015625,0.07065818359375,1.05528841796875
-0.009643593750000002,0.17482157470703125,1.3307927783203124
-0.222638203125,0.114774443359375,1.53699095703125
-0.310170234375,0.06747200927734374,1.410175390625
-0.22920310546875,-0.0955130615234375,0.9650920751953125
-0.1949197265625,-0.05360261474609375,0.9085657568359375
-0.36682291015625,0.17040994873046875,1.055779951171875
-0.51805880859375,0.1299700439453125,1.1985703466796875
-0.2736985546875,0.01404231689453125,1.1199250341796876
-0.12951384765625001,0.15031254150390624,1.0464408203125
-0.2980130078125,-0.093062158203125,1.01006736328125
-0.24281919921875,-0.2214894921875,1.1700614208984375
-0.10617197265625,-0.21536223388671874,1.230765771484375
-0.2279873828125,-0.076396015625,1.0565172509765626
-0.30627992187499997,-0.123453359375,1.0314490576171875
-0.30798193359375,-0.13644314697265625,0.8746499658203125
0.004701933593749999,-0.046004814453125,0.80755568359375
-0.2454937890625,0.06355056396484375,0.9051250244140625
-0.36098744140625,0.07188363525390624,0.803131884765625
-0.10617197265625,-0.06585713134765625,0.6829520166015625
-0.06824142578125,0.0505607763671875,0.6274087646484375
-0.189570546875,0.01698340087890625,0.7741314257812499
-0.24816837890625,-0.2254109375,1.21061291015625
-0.40475345703125,0.0358553564453125,1.5537030859375
-0.6141008984375,0.14124419921875,1.3964124609375
-0.279047734375,-0.12369844970703125,1.0992806396484376
-0.3009307421875,0.08413815185546875,0.9095488232421876
-0.13802390625,-0.0141430712890625,0.6475616259765625
-0.109819140625,-0.1013952294921875,0.6040609375
-0.1560166015625,-0.11242429443359375,0.767741494140625
-0.28853037109375,0.07850107421875,1.0103131298828125
-0.36755234375,-0.2415868994140625,1.15949345703125
-0.2377131640625,-0.1337471533203125,1.0457035205078125
-0.2240970703125,0.05178622802734375,0.7281730712890625
-0.18592337890625,-0.010221625976562499,0.522957958984375
-0.23552486328125,-0.065612041015625,0.52639869140625
-0.41788326171875,0.08119706787109375,0.8874298291015625
-0.51149390625,0.10399046875,1.2069264111328124
-0.35028908203125,-0.09012107421875,1.1911973486328125
-0.23892888671875,0.081442158203125,1.1268064990234374
-0.16720125,-0.14036459228515624,0.8889044287109376
-0.11492517578125,-0.00262382568359375,0.87440419921875
-0.386031328125,0.11698025634765626,0.9196252539062499
-0.32305689453124997,0.206928408203125,1.06315294921875
-0.39210994140625,0.2255552734375,1.162934189453125
-0.29776986328125,0.21158512451171874,1.09264494140625
-0.33035123046875,0.0956573974609375,0.840488408203125
-0.011345605468749999,0.089285048828125,0.8141913818359375
-0.16404037109375,0.01894412353515625,0.96877857421875
-0.39356880859375,0.07065818359375,1.0407881884765624
-0.36585033203125,-0.03350520751953125,1.2752495263671875
-0.44535859375,0.08315779052734375,1.372327333984375
-0.38432931640625,0.173596123046875,1.1695698876953124
-0.18884111328125,0.069677822265625,1.032677890625
-0.17522501953125,0.03536517578125,0.9532952783203125
-0.09134015625,0.10227483642578125,0.9198710205078124
-0.12951384765625001,0.05472731201171875,0.935845849609375
-0.2299325390625,0.024091020507812498,0.9284728515625
-0.23455228515625,-0.1523740185546875,1.06315294921875
-0.27977716796875,-0.05115171142578125,1.19291771484375
-0.21364185546875,0.021640117187500002,1.1066536376953124
-0.33521412109375,-0.0038492773437499997,0.956490244140625
-0.3719289453125,-0.03203466552734375,0.8412257080078125
-0.23601115234375,-0.04379900146484375,0.842454541015625
-0.20586123046875,-0.09232688720703125,0.9641090087890625
-0.17692703125,-0.1092381201171875,1.0149826953125
-0.14361623046875,-0.10016977783203125,1.1562984912109375
-0.29169125,0.02237538818359375,1.1730106201171875
-0.34810078125,0.0417375244140625,1.009084296875
-0.17133470703125,-0.068553125,0.8697346337890625
-0.17133470703125,0.20717349853515626,0.8864467626953125
-0.28026345703125,0.1235976953125,0.8854636962890625
-0.0500055859375,-0.08963089355468751,1.0221099267578124
-0.11492517578125,-0.046249904785156254,1.0437373876953124
-0.277102578125,-0.00997653564453125,0.969270107421875
-0.179844765625,-0.19967645263671874,1.159984990234375
-0.461892421875,-0.060710234375,1.1376202294921876
-0.40329458984375,-0.198941181640625,0.9277355517578125
-0.29144810546875,-0.08889562255859375,0.965829375
-0.3344846875,0.00791505859375,0.84097994140625
-0.1511537109375,-0.03350520751953125,0.61094240234375
0.006403945312499999,-0.0011532836914062497,0.78396208984375
-0.1453182421875,-0.00654527099609375,0.9626344091796875
-0.086477265625,-0.13301188232421876,0.941744248046875
-0.133161015625,-0.15016820556640625,1.051847685546875
-0.205131796875,-0.1033559521484375,0.98254150390625
-0.30627992187499997,-0.1572758251953125,0.8603955029296875
-0.32354318359375,0.08903995849609375,0.9611598095703124
-0.3524773828125,-0.01781942626953125,0.875878798828125
-0.3651208984375,0.0338946337890625,0.9134810888671875
-0.18470765625,0.05521749267578125,1.13196759765625
-0.3155194140625,-0.01879978759765625,1.159001923828125
-0.43393080078125,0.12482314697265626,1.1272980322265624
-0.38335673828125,0.13658748291015624,0.9557529443359375
-0.070916015625,-0.0886505322265625,0.6414174609375
-0.0626491015625,-0.01291761962890625,0.48510990234375
-0.09595990234375,0.03168882080078125,0.55195841796875
-0.07577890625,-0.14281549560546875,0.46594010742187497
-0.1472633984375,-0.07271966064453125,0.60897626953125
-0.13340416015625,-0.1033559521484375,0.807064150390625
-0.32597462890625,-0.1317864306640625,0.99827056640625
-0.426879609375,0.03659062744140625,1.280902158203125
-0.4079143359375,0.07090327392578125,1.258291630859375
-0.45630009765625,0.0642858349609375,1.2388760693359375
-0.27199654296875,0.10472573974609375,1.009084296875
-0.14945169921875,0.06281529296875,0.771673759765625
-0.10422681640625,-0.06095532470703125,0.734317236328125
-0.1278118359375,0.07188363525390624,0.7370206689453125
-0.1968648828125,0.00325834228515625,0.588331875
-0.12659611328125,0.1054610107421875,0.6495277587890624
-0.201241484375,0.0765403515625,0.78986048828125
-0.23552486328125,0.10987263671875,0.955507177734375
-0.21461443359375,0.05178622802734375,0.95501564453125
-0.13972591796875,-0.05311243408203125,1.0348897900390626
-0.300444453125,0.07237381591796875,1.1567900244140625
-0.48304599609375,0.06796218994140625,1.1526119921875
-0.356853984375,0.20325205322265624,1.1852989501953124
-0.399647421875,0.11599989501953126,1.04939001953125
-0.346155625,0.04639424072265625,0.82328474609375
-0.111764296875,0.0505607763671875,0.8078014501953125
-0.12440781249999999,0.0299731884765625,0.7905977880859375
-0.12076064453125,0.0789912548828125,0.661570322265625
-0.06775513671875,0.0515411376953125,0.7832247900390625
-0.1657423828125,0.01551285888671875,0.886692529296875
-0.300444453125,-0.0180645166015625,0.990897568359375
-0.42274615234375,0.118695888671875,0.969761640625
-0.257651015625,0.04345315673828125,0.8318865771484375
-0.21947732421875,-0.07419020263671874,0.7488174658203125
-0.3111428125,0.0005623486328125002,0.8510563720703125
-0.3106565234375,-0.098944326171875,0.9208540869140625
-0.2649453515625,0.0294830078125,0.78986048828125
-0.26056875,0.0250713818359375,0.76430076171875
-0.34202216796875,-0.032279755859375,0.8667854345703125
-0.23503857421875,-0.06267095703125,0.970253173828125
-0.2892598046875,0.0255615625,0.9931094677734374
-0.22725794921875,0.03021827880859375,0.92552365234375
-0.103983671875,-0.0759058349609375,1.0216183935546874
-0.207076953125,-0.05017135009765625,1.171781787109375
-0.1321884375,-0.061690595703125004,1.0717547802734375
-0.37800755859375,-0.09477779052734375,0.9542783447265625
-0.3476144921875,-0.10188541015625,0.997779033203125
-0.21315556640625,-0.03399538818359375,1.1646545556640624
-0.28123603515625,0.00227798095703125,1.2781987255859375
-0.41399294921875,-0.00948635498046875,1.2546051318359375
-0.31989601562500003,0.04051207275390625,1.079865078125
-0.24670951171875,-0.03105430419921875,0.9542783447265625
-0.408400625,0.05619785400390625,0.9439561474609375
-0.22190876953125,0.104970830078125,0.9547698779296875
-0.20732009765625,-0.20016663330078124,0.8820229638671875
-0.2450075,-0.0881603515625,0.66402798828125
-0.15625974609374998,-0.11046357177734376,0.560806015625
-0.0966893359375,-0.061690595703125004,0.7149016748046875
-0.17862904296875,-0.169530341796875,1.03562708984375
-0.417153828125,-0.06242586669921875,1.4035396923828125
-0.36098744140625,0.04639424072265625,1.5234737939453125
-0.47259078125,-0.047965537109375,1.4413877490234375
-0.483289140625,0.0740894482421875,1.2489525
-0.40621232421875,-0.12860025634765626,0.9287186181640625
-0.01912623046875,-0.13791368896484374,0.839996875
-0.0723748828125,-0.22761675048828126,1.0088385302734375
-0.2357680078125,-0.12712971435546874,1.132459130859375
-0.21072412109375,-0.16487362548828124,1.3204705810546875
-0.2941226953125,-0.03987755615234375,1.2941735546875
-0.45338236328125,0.04933532470703125,1.0388220556640624
-0.2357680078125,-0.0974737841796875,0.75643623046875
-0.21583015625000002,-0.1945295556640625,0.7640549951171876
-0.24184662109375,-0.17761832275390624,0.8358188427734374
-0.28658521484375,-0.09134652587890625,1.084288876953125
-0.14069849609375001,-0.08154291259765625,1.1803836181640626
-0.37119951171875,0.0162481298828125,1.1420440283203126
-0.32281375,-0.11291447509765624,1.168832587890625
-0.17182099609375,-0.1352176953125,1.2784444921875
-0.33861814453125,0.05497240234375,1.24993556640625
-0.3369161328125,-0.09722869384765626,1.0127707958984375
-0.31089966796875,-0.05360261474609375,0.627162998046875
-0.15091056640625,-0.1587463671875,0.4784742041015625
-0.013047617187499999,-0.15310928955078124,0.54802615234375
-0.035903203125000005,-0.136198056640625,0.912252255859375
-0.361716875,0.03266918212890625,1.3337419775390624
-0.3777644140625,0.1162449853515625,1.488820703125
