ax,ay,az
-0.24962724609375,0.0427178857421875,1.0820769775390624
-0.24379177734375002,0.1299700439453125,1.11525546875
-0.2649453515625,0.23928033203125,1.0712632470703125
-0.296554140625,0.24785849365234375,0.9955671337890625
-0.2182616015625,0.2211436474609375,0.8159117480468749
-0.17473873046875,-0.010711806640625,0.6229849658203125
-0.1832487890625,-0.07370002197265625,0.5630179150390625
-0.27929087890625,-0.05164189208984375,0.6750874853515625
-0.3028758984375,0.034384814453125,0.9449392138671875
-0.34299474609375,-0.1229631787109375,1.13393373046875
-0.49277177734375,-0.09820905517578125,1.1096028369140625
-0.36974064453125,-0.015368522949218751,0.84687833984375
-0.28026345703125,-0.1082577587890625,0.728418837890625
-0.29339326171875,-0.15703073486328126,0.7640549951171876
-0.25011353515625,-0.0866898095703125,0.9070911572265625
-0.14604767578125,0.03217900146484375,1.10444173828125
-0.25400384765625,-0.0006631030273437505,1.1199250341796876
-0.17692703125,-0.1170810107421875,1.0167030615234376
-0.197351171875,-0.0788469189453125,1.0314490576171875
-0.33521412109375,-0.03350520751953125,1.1096028369140625
-0.41593810546875,-0.0915916162109375,1.171781787109375
-0.3923530859375,-0.05458297607421875,1.0437373876953124
-0.44171142578125,-0.15408965087890625,0.8579378369140624
-0.31989601562500003,-0.18497103271484375,0.72202890625
-0.190543125,-0.24820433837890626,0.66796025390625
-0.25862359375,-0.23202837646484376,0.8554801708984375
-0.22482650390625,-0.1161006494140625,1.10837400390625
-0.38092529296875,-0.14134495361328125,1.1794005517578126
-0.30409162109375,-0.09232688720703125,0.841471474609375
-0.090367578125,-0.09428760986328125,0.6571465234375
-0.05462533203125,-0.179333955078125,0.7065456103515625
-0.16938955078125,-0.1102184814453125,0.9577190771484375
-0.3067662109375,0.01159141357421875,1.263206962890625
-0.39308251953125,0.0368357177734375,1.2069264111328124
-0.42031470703125,-0.037916833496093746,1.25583396484375
-0.29485212890625,0.14050892822265626,1.3022838525390625
-0.4691867578125,0.02360083984375,1.2467406005859374
-0.49714837890625,0.02335574951171875,1.182103984375
-0.360744296875,-0.011201987304687501,0.867031201171875
-0.19321771484375,-0.09869923583984375,0.545076953125
-0.1278118359375,-0.18031431640625,0.549500751953125
-0.04684470703125,-0.17369687744140624,0.7743771923828124
0.02609865234375,-0.14036459228515624,1.0240760595703124
-0.23795630859375,-0.01879978759765625,1.3553694384765624
-0.2357680078125,0.01208159423828125,1.4502353466796876
-0.36876806640625,-0.11634573974609375,1.450972646484375
-0.408400625,-0.0778665576171875,1.364462802734375
-0.2240970703125,-0.0175743359375,1.1577730908203125
-0.282938046875,-0.057278969726562504,1.191443115234375
-0.50444271484375,-0.012672529296875,1.27156302734375
-0.46699845703125,-0.03693647216796875,1.1100943701171875
-0.28901666015625,-0.2180582275390625,0.9120064892578125
-0.23406599609375,-0.20359789794921876,0.69941837890625
-0.09523046875,-0.228352021484375,0.5241867919921875
-0.0752926171875,-0.19379428466796875,0.529839423828125
-0.0947441796875,-0.21046042724609376,0.660587255859375
-0.030067734375000002,-0.17247142578125,0.94321884765625
-0.26251390625,-0.085219267578125,1.2718087939453124
-0.43782111328125,0.0182088525390625,1.4998802001953124
-0.4312562109375,-0.0063001806640625,1.399853193359375
-0.4545980859375,0.14590091552734374,1.27156302734375
-0.28707150390625,0.22187891845703125,1.0324321240234375
-0.39794541015625,0.11943115966796874,0.9174133544921875
-0.34007701171875,0.024581201171875,0.9469053466796875
0.01005111328125,-0.081297822265625,1.0270252587890625
-0.09109701171875,-0.2033528076171875,1.1046875048828124
-0.20099833984375,-0.016593974609375,1.2256046728515626
-0.0855046875,-0.0011532836914062497,1.1577730908203125
-0.4273658984375,-0.07468038330078125,1.1258234326171874
-0.19808060546875,0.1495772705078125,1.1880023828125
-0.28415376953125,0.04712951171875,0.95108337890625
-0.32281375,-0.008996174316406251,0.8603955029296875
-0.214857578125,-0.1543347412109375,0.8284458447265625
-0.242089765625,-0.13105115966796876,0.8884128955078126
-0.40378087890625003,0.012816865234374999,0.930930517578125
-0.4332013671875,-0.0072805419921875,0.8820229638671875
-0.26810623046875,0.0613447509765625,0.859166669921875
-0.14458880859375,-0.0063001806640625,0.7724110595703125
-0.02496169921875,-0.0406128271484375,0.8254966455078125
-0.15577345703125,-0.04330882080078125,1.1966042138671875
-0.14264365234375,0.050070595703125,1.4133703564453124
-0.15358515625,-0.11389483642578124,1.38559873046875
-0.24281919921875,-0.24330253173828126,1.15162892578125
-0.195406015625,-0.1004148681640625,0.9587021435546875
-0.25594900390624997,-0.1788437744140625,0.671400986328125
-0.2902323828125,-0.19207865234375,0.56572134765625
-0.21850474609375,-0.24526325439453125,0.5236952587890625
-0.2707808203125,-0.028113220214843748,0.6416632275390625
-0.33108066406250003,0.00619942626953125,0.828691611328125
-0.24525064453125,0.10423555908203125,0.964354775390625
-0.24573693359375,0.03855135009765625,0.96288017578125
-0.25449013671875,0.0152677685546875,0.947642646484375
-0.28026345703125,0.14001874755859375,0.97074470703125
-0.018883085937500002,0.010611052246093749,0.8667854345703125
-0.16112263671875,-0.04919098876953125,0.8127167822265625
-0.189570546875,0.1510478125,0.8223016796875
-0.11468203125,0.01404231689453125,0.8815314306640625
-0.263486484375,-0.0960032421875,1.0068723974609375
-0.38311359375,0.06624655761718751,1.005643564453125
-0.28998923828125,-0.07762146728515625,0.8731753662109375
-0.3660934765625,0.0848734228515625,1.0189149609375
-0.4283384765625,0.09149086181640625,1.0402966552734374
-0.247925234375,-0.012427438964843749,1.1041959716796874
-0.36147373046875,-0.01953505859375,1.1238572998046874
-0.290718671875,-0.1092381201171875,0.98254150390625
-0.1025248046875,-0.16732452880859375,0.8773533984374999
-0.29387955078125,-0.049926259765625,0.9655836083984375
-0.11443888671875,-0.07517056396484376,0.9867195361328125
-0.3699837890625,-0.1435507666015625,1.0638902490234374
-0.35320681640625,-0.0332601171875,1.1169758349609376
-0.2172890234375,-0.12712971435546874,0.9075826904296875
-0.19856689453125,-0.022476142578125,0.9360916162109375
-0.24573693359375,-0.03644629150390625,1.07298361328125
-0.459947265625,0.07237381591796875,1.1956211474609375
-0.39867484375,0.14786163818359374,1.0815854443359374
-0.39454138671875,0.023845930175781252,0.94223578125
-0.2955815625,0.0133070458984375,0.63256986328125
-0.2800203125,0.00619942626953125,0.573094345703125
-0.1710915625,-0.10899302978515625,0.544585419921875
-0.1550440234375,-0.01095689697265625,0.636993662109375
-0.24622322265625,0.0309535498046875,0.8242678125
-0.25205869140625,-0.04575972412109375,0.8790737646484375
-0.23941517578125,0.033404453125,0.987948369140625
-0.20634751953125,0.06747200927734374,1.0464408203125
-0.2523018359375,0.04051207275390625,1.1250861328125
-0.28123603515625,0.00423870361328125,1.1408151953125
-0.4380642578125,-0.11781628173828125,1.1985703466796875
-0.35223423828125,-0.0866898095703125,1.2467406005859374
-0.37314466796875,-0.09967959716796874,1.0896957421875
-0.31989601562500003,-0.189137568359375,0.894557060546875
-0.1579617578125,-0.046004814453125,0.8864467626953125
-0.17911533203125,-0.14109986328125,0.894557060546875
-0.30530734375,-0.1259042626953125,0.999745166015625
-0.181789921875,0.00816014892578125,1.077407412109375
-0.15869119140625,-0.10850284912109374,1.024321826171875
-0.152612578125,-0.09404251953125001,0.9454307470703125
-0.20877896484375,-0.10899302978515625,0.89504859375
-0.298499296875,-0.1180613720703125,0.969761640625
-0.31868029296875,0.03855135009765625,1.0973145068359376
-0.24525064453125,-0.0016434643554687498,1.12312
-0.26616107421875,-0.08889562255859375,1.262223896484375
-0.43757796875,0.09810830078125,1.4050142919921875
-0.3155194140625,0.02360083984375,1.279919091796875
-0.32305689453124997,-0.05654369873046875,1.1447474609375
-0.240144609375,-0.08154291259765625,1.0550426513671876
-0.21753216796875,-0.1023755908203125,0.8977520263671875
-0.15042427734375,-0.1219828173828125,0.8195982470703125
-0.08185751953125,-0.06634731201171876,0.8427003076171875
-0.107873984375,-0.07713128662109375,0.883251796875
-0.22677166015625,-0.0141430712890625,1.0422627880859374
-0.3242726171875,0.06109966064453125,1.2369099365234375
-0.38700390625000003,0.05497240234375,1.35414060546875
-0.4234755859375,0.03855135009765625,1.252884765625
-0.33715927734375,0.019434304199218752,1.124594599609375
-0.2610550390625,0.04786478271484375,1.0820769775390624
-0.2698082421875,-0.0259074072265625,1.0299744580078125
-0.28755779296875,-0.076396015625,1.1877566162109374
-0.35612455078125,-0.067572763671875,1.230765771484375
-0.21510072265625,-0.15286419921875,1.00416896484375
-0.1433730859375,0.0603643896484375,0.93928658203125
-0.19273142578125,-0.01291761962890625,0.9272440185546875
-0.2036729296875,-0.013162709960937501,0.9717277734375
-0.33667298828125003,0.01257177490234375,1.1287726318359375
-0.30214646484375,-0.13105115966796876,1.1425355615234376
-0.323786328125,-0.11487519775390626,0.9282270849609375
-0.30141703125,-0.07271966064453125,0.8063268505859374
-0.32500205078125,-0.1121792041015625,0.65616345703125
-0.11322316406249999,-0.10458140380859375,0.6335529296875
-0.14264365234375,-0.0803174609375,0.797233486328125
-0.31478998046875,0.04320806640625,0.9916348681640625
-0.13972591796875,0.0103659619140625,1.1631799560546874
-0.24719580078125,0.10129447509765625,1.2683680615234374
-0.2177753125,0.1544790771484375,1.1710444873046875
-0.05851564453125,0.11305881103515625,1.19488384765625
-0.29436583984375,0.1525183544921875,1.1966042138671875
-0.3164919921875,0.0329142724609375,0.9793465380859375
-0.181789921875,-0.04428918212890625,0.6967149462890625
-0.16914640625,-0.1523740185546875,0.6750874853515625
-0.23017568359375,-0.0994345068359375,0.8653108349609375
-0.36487775390625,-0.09012107421875,1.041033955078125
-0.3028758984375,0.004973974609375,1.1388490625
-0.41812640624999997,0.07482471923828125,1.0530765185546875
-0.30652306640625,0.0436982470703125,1.0452119873046875
-0.2639727734375,0.063795654296875,1.011541962890625
-0.25205869140625,0.13119549560546875,1.112797802734375
-0.34883021484375,-0.0366913818359375,1.2231470068359376
-0.2450075,-0.151883837890625,1.1218911669921874
-0.2260422265625,-0.06659240234375,0.864082001953125
-0.05511162109375,-0.19869609130859375,0.782487490234375
0.02707123046875,-0.19379428466796875,0.8023945849609375
-0.2610550390625,-0.19330410400390624,1.02383029296875
-0.23406599609375,-0.08056255126953125,1.127543798828125
-0.30166017578125,-0.05703387939453125,1.31285181640625
-0.37946642578125,0.03413972412109375,1.4497438134765626
-0.39308251953125,0.0008074389648437498,1.32661474609375
-0.33181009765625,0.11845079833984375,1.098051806640625
-0.34396732421875,0.0858537841796875,0.79182662109375
-0.19224513671875,-0.04477936279296875,0.552449951171875
-0.10568568359375,-0.091101435546875,0.374514931640625
-0.03298546875,-0.155805283203125,0.3423195068359375
0.01929060546875,-0.10850284912109374,0.390243994140625
0.01977689453125,-0.09379742919921875,0.53328015625
-0.12246265625,-0.06389640869140625,0.7586481298828125
-0.35101851562499997,-0.04919098876953125,1.00515203125
-0.50103869140625,0.0182088525390625,1.2850801904296876
-0.52049025390625,0.12139188232421876,1.260749296875
-0.2523018359375,0.1593808837890625,1.0240760595703124
-0.07869664062500001,0.0451687890625,0.922574453125
-0.15091056640625,-0.12320826904296875,0.9528037451171875
-0.3252451953125,-0.25702759033203126,1.17817171875
-0.37460353515625,-0.22761675048828126,1.1803836181640626
-0.36487775390625,0.06796218994140625,1.04152548828125
-0.14604767578125,0.12041152099609376,0.9852449365234375
-0.0310403125,0.02433611083984375,1.1086197705078125
-0.14653396484375,0.00619942626953125,1.1317218310546875
-0.2289599609375,0.05717821533203125,1.3229282470703125
-0.24719580078125,-0.00262382568359375,1.3531575390625
-0.33667298828125003,-0.10065995849609374,1.275003759765625
-0.46529644531250003,0.055462583007812497,1.192426181640625
-0.42979734375,-0.10115013916015625,1.0688055810546875
-0.37217208984375,-0.24477307373046875,0.8154202148437499
-0.27248283203125,-0.0710040283203125,0.7316138037109375
-0.300444453125,-0.30751619873046876,0.7925639208984375
-0.23017568359375,-0.3484462841796875,0.7473428662109375
-0.2591098828125,-0.29795767578125,0.59619640625
-0.10130908203125,0.05423713134765625,0.676316318359375
-0.14215736328125,-0.03644629150390625,0.885709462890625
-0.02301654296875,0.1231075146484375,1.168832587890625
-0.27685943359375,0.17776265869140626,1.2585373974609375
-0.3495596484375,-0.11781628173828125,1.2767241259765625
-0.17765646484375,-0.1621776318359375,1.282868291015625
-0.45240978515625,-0.13203152099609375,1.053813818359375
-0.38919220703125,-0.1259042626953125,0.7397241015625
-0.405482890625,-0.17026561279296876,0.584399609375
-0.40232201171875,-0.15801109619140624,0.4524229443359375
-0.4278521875,-0.12222790771484375,0.437431181640625
-0.38092529296875,-0.024436865234375,0.6303579638671875
-0.31041337890625,0.08462833251953125,0.8365561425781249
-0.035903203125000005,-0.14624676025390626,0.8952943603515625
-0.0232596875,-0.23006765380859376,1.0226014599609374
-0.14799283203125,-0.09967959716796874,1.3779799658203125
-0.1735230078125,-0.0371815625,1.1840701171874999
-0.16015005859375,-0.312663095703125,1.001219765625
-0.3500459375,-0.2668312036132813,0.8267254785156251
-0.5041995703125,-0.15850127685546875,0.751029365234375
-0.20245720703125,-0.0798272802734375,0.7876485888671875
-0.08039865234375,-0.04477936279296875,0.9321593505859375
-0.18008791015625,-0.022476142578125,1.09854333984375
-0.3135742578125,-0.028113220214843748,1.359547470703125
-0.376305546875,-0.19134338134765624,1.368395068359375
-0.5445615625,-0.13938423095703126,1.00023669921875
-0.33959072265625,-0.23055783447265624,0.8419630078125
-0.1229489453125,-0.28251698486328125,0.7355460693359375
-0.0266637109375,-0.18840229736328126,0.6244595654296875
0.04506392578125,-0.1935491943359375,0.75643623046875
0.10730892578125,-0.20972515625,1.188493916015625
0.13551369140625,-0.2857031591796875,1.6048225390625
-0.69312287109375,-0.0371815625,1.4443369482421875
-0.67707533203125,-0.0651218603515625,1.1361456298828125
-0.41399294921875,-0.15899145751953125,0.95501564453125
-0.089395,-0.09330724853515625,1.08281427734375
0.0005684765624999998,-0.09330724853515625,1.05528841796875
-0.3699837890625,0.07261890625,1.0098215966796875
-0.39745912109375,0.0789912548828125,0.9464138134765625
-0.0889087109375,-0.226391298828125,0.964354775390625
-0.19613544921875,-0.08423890625,1.410175390625
-0.33035123046875,-0.144040947265625,1.603347939453125
-0.18154677734375,-0.23644000244140626,1.3873190966796876
-0.28366748046875,-0.11536537841796875,0.9434646142578125
-0.244034921875,-0.06438658935546875,0.7281730712890625
-0.04295439453125,-0.216587685546875,0.6669771875
-0.32694720703125,-0.159726728515625,0.8908705615234375
-0.27588685546875,-0.104826494140625,1.134916796875
-0.3913805078125,-0.25947849365234377,1.3917428955078126
-0.5367809375,-0.18497103271484375,1.245511767578125
-0.41618125,-0.13595296630859374,0.7773263916015625
-0.22434021484375,-0.2920755078125,0.6084847363281249
-0.19248828125,-0.3327605029296875,0.6337986962890625
-0.19321771484375,-0.1445311279296875,0.8731753662109375
-0.2800203125,-0.02713285888671875,0.938795048828125
-0.23917203125,-0.04698517578125,0.7753602587890625
-0.03711892578125,-0.0053198193359375,0.6475616259765625
-0.226528515625,-0.16242272216796874,0.7493089990234375
-0.24476435546875,-0.077376376953125,1.0019570654296874
-0.347128203125,-0.14379585693359376,1.2216724072265626
-0.481343984375,-0.177373232421875,1.1617053564453126
-0.32111173828125,-0.11781628173828125,1.1553154248046875
-0.315033125,-0.39378799560546873,1.1779259521484375
-0.40621232421875,-0.128355166015625,1.1329506640625
-0.40062,-0.048945898437499996,0.990897568359375
-0.2805066015625,-0.08105273193359375,0.763809228515625
-0.18981369140625,-0.0553182470703125,0.6505108251953124
-0.1200312109375,-0.16046199951171874,0.609467802734375
-0.05632734375,-0.30383984375,0.8242678125
-0.29485212890625,-0.29085005615234377,0.8844806298828125
-0.1861665234375,-0.19869609130859375,0.8078014501953125
-0.27807515625,-0.210705517578125,0.784453623046875
-0.3933256640625,-0.11634573974609375,0.9306847509765624
-0.2999581640625,-0.1219828173828125,1.0191607275390624
-0.41812640624999997,-0.19183356201171875,1.0398051220703124
-0.34542619140624997,-0.09845414550781251,0.8250051123046875
-0.1472633984375,-0.17810850341796874,1.0132623291015626
-0.3806821484375,-0.36070080078125,1.10444173828125
-0.2955815625,-0.1273748046875,1.128526865234375
-0.2882872265625,-0.2259011181640625,1.1093570703125
-0.36341888671875,-0.2239403955078125,1.0747039794921875
-0.327676640625,-0.10850284912109374,0.9247863525390625
-0.3072525,-0.17908886474609376,0.9041419580078125
-0.3213548828125,-0.14428603759765624,0.9097945898437501
-0.3369161328125,-0.18889247802734374,0.79575888671875
-0.084532109375,-0.18742193603515625,0.8427003076171875
-0.18081734375,-0.242077080078125,0.9660751416015625
-0.30603677734375,-0.295016591796875,1.117713134765625
-0.24281919921875,-0.3033496630859375,1.2044687451171874
-0.3048210546875,-0.07370002197265625,1.2801648583984375
-0.3942982421875,-0.077376376953125,1.220935107421875
-0.2688356640625,-0.0739451123046875,1.1695698876953124
-0.30749564453125,-0.05311243408203125,1.1263149658203124
-0.3889490625,-0.05213207275390625,1.158510390625
-0.28391062499999997,-0.11364974609375,1.1017383056640626
-0.36390517578125,-0.161687451171875,0.9115149560546875
-0.3067662109375,-0.20972515625,0.844420673828125
-0.1248941015625,-0.23153819580078125,0.8112421826171875
-0.32208431640625,-0.2190385888671875,0.91765912109375
-0.2707808203125,-0.181294677734375,1.00023669921875
-0.3106565234375,-0.18840229736328126,1.01399962890625
-0.32743349609375,-0.31437872802734373,1.0678225146484375
-0.30117388671875,-0.14036459228515624,1.1484339599609374
-0.3223274609375,-0.1327667919921875,1.179646318359375
-0.3826273046875,-0.123453359375,1.150154326171875
-0.1482359765625,-0.136198056640625,1.1985703466796875
-0.35126166015625,-0.1043363134765625,1.2226554736328126
-0.4356328125,-0.120512275390625,1.17915478515625
-0.27029453125,-0.12149263671875,1.036118623046875
-0.28172232421875,-0.10213050048828125,0.9297016845703125
-0.38141158203125003,-0.2214894921875,0.8613785693359375
-0.18640966796875,-0.30163403076171874,0.8761245654296875
-0.26956509765625,-0.3133983666992187,0.9100403564453124
-0.23212083984375,-0.23545964111328124,0.89504859375
-0.30506419921875,-0.271487919921875,0.8530225048828125
-0.2338228515625,-0.204823349609375,0.911269189453125
-0.35101851562499997,-0.18546121337890625,1.0307117578125
-0.4186126953125,-0.09183670654296874,1.09952640625
-0.269321953125,-0.159726728515625,0.945676513671875
-0.263486484375,-0.14183513427734376,0.9454307470703125
-0.3116291015625,-0.16193254150390626,0.894557060546875
-0.269321953125,-0.226391298828125,0.856217470703125
-0.25449013671875,-0.12761989501953125,0.94125271484375
-0.26275705078125,-0.16070708984375,1.0152284619140626
-0.158448046875,-0.14771730224609375,1.0609410498046874
-0.34883021484375,-0.10213050048828125,1.0063808642578125
-0.28755779296875,-0.2562923193359375,0.8783364648437499
-0.19662173828125,-0.14330567626953125,0.865065068359375
-0.30457791015625,-0.13325697265625,0.93437125
-0.17230728515625,-0.233253828125,1.08379734375
-0.267376796875,-0.138158779296875,1.1297556982421875
-0.33715927734375,-0.20555862060546876,1.052830751953125
-0.2639727734375,-0.2268814794921875,0.8559717041015625
-0.2027003515625,-0.20506843994140625,0.7660211279296875
-0.24768208984375,-0.200901904296875,0.8242678125
-0.21972046875,-0.1994313623046875,0.883251796875
-0.16258150390625,-0.1308060693359375,0.988931435546875
-0.2075632421875,-0.20310771728515625,1.049881552734375
-0.3189234375,-0.07664110595703125,1.0778989453125
-0.177899609375,-0.11144393310546875,1.0152284619140626
-0.288773515625,-0.20384298828125,1.056763017578125
-0.237226875,-0.13252170166015625,1.1518746923828125
-0.33181009765625,-0.19967645263671874,1.0759328125
-0.3641483203125,-0.25212578369140626,0.9773804052734375
-0.25351755859375,-0.126394443359375,0.9277355517578125
-0.3388612890625,-0.2396261767578125,0.8363103759765624
-0.23747001953125,-0.2160975048828125,0.8304119775390625
-0.17619759765625,-0.26266466796875,0.8456495068359375
-0.24914095703125,-0.32075107666015623,0.8535140380859375
-0.11687033203125,-0.2219796728515625,0.9375662158203125
-0.18981369140625,-0.20997024658203126,1.073475146484375
-0.38384302734375,-0.159726728515625,1.0855177099609374
-0.32889236328125,-0.11536537841796875,0.938795048828125
-0.3057936328125,-0.13056097900390626,0.9127437890625
-0.23601115234375,-0.09404251953125001,0.89996392578125
-0.2396583203125,-0.11732610107421874,0.9582106103515625
-0.3320532421875,-0.22026404052734375,0.992863701171875
-0.25935302734375,-0.171491064453125,0.9164302880859375
-0.2435486328125,-0.170510703125,0.7842078564453125
-0.20415921875,-0.183255400390625,0.76823302734375
-0.26421591796875,-0.12271808837890624,0.7920723876953125
-0.22774423828125,-0.2229600341796875,0.82721701171875
-0.22920310546875,-0.13129625,0.9424815478515625
-0.26713365234374997,-0.16046199951171874,0.915201455078125
-0.2668905078125,-0.17075579345703126,0.884726396484375
-0.22531279296875,-0.096983603515625,0.882760263671875
-0.26518849609375,-0.11364974609375,0.866048134765625
-0.27442798828125,-0.06242586669921875,0.8554801708984375
-0.273212265625,-0.19207865234375,0.84097994140625
-0.2960678515625,-0.1504132958984375,0.9297016845703125
-0.314060546875,-0.00605509033203125,1.00220283203125
-0.28609892578125,-0.1808044970703125,0.9542783447265625
-0.23528171875,-0.136198056640625,0.87243806640625
-0.1866528125,-0.149923115234375,0.8557259375
-0.137051328125,-0.21634259521484375,0.87637033203125
-0.21704587890625,-0.2758995458984375,0.959439443359375
-0.2980130078125,-0.21585241455078125,1.100017939453125
-0.35174794921875,-0.3200158056640625,0.995812900390625
-0.325731484375,-0.16487362548828124,0.965829375
-0.2698082421875,-0.07762146728515625,0.8446664404296875
-0.1754681640625,-0.2092349755859375,0.701876044921875
-0.24427806640625,-0.1347275146484375,0.6957318798828125
-0.224583359375,-0.2111956982421875,0.7429190673828125
-0.1647698046875,-0.2763897265625,0.9164302880859375
-0.2177753125,-0.20727425292968749,1.1587561572265626
-0.3203823046875,-0.2111956982421875,1.2108586767578124
-0.3242726171875,-0.142080224609375,1.1838243505859376
-0.22044990234375,-0.10286577148437501,0.9980247998046875
-0.30603677734375,-0.17957904541015626,0.9134810888671875
-0.32305689453124997,-0.06046514404296875,1.0216183935546874
-0.2620276171875,-0.1062970361328125,1.02579642578125
-0.35661083984374997,-0.0749254736328125,0.9481341796875
-0.21972046875,-0.04698517578125,0.8913620947265625
-0.21510072265625,-0.14918784423828124,0.8751414990234375
-0.22044990234375,-0.1004148681640625,0.981066904296875
-0.29533841796875,-0.24771415771484376,0.9532952783203125
-0.26470220703125,-0.206784072265625,1.0255506591796875
-0.29922873046875,-0.14894275390625,0.9936010009765625
-0.29169125,-0.208744794921875,0.9245405859375
-0.27637314453125,-0.1430605859375,1.07494974609375
-0.30919765625,-0.18644157470703124,1.0329236572265625
-0.23844259765625,-0.11634573974609375,0.92355751953125
-0.24573693359375,-0.14232531494140624,0.908319990234375
-0.23601115234375,-0.11046357177734376,1.0167030615234376
-0.37606240234375,-0.21438187255859376,0.8972604931640625
-0.1968648828125,-0.130315888671875,0.8594124365234375
-0.22628537109375,-0.21952876953125,0.78396208984375
-0.154557734375,-0.2043331689453125,0.84294607421875
-0.17862904296875,-0.27222319091796876,1.0179318945312499
-0.36293259765625,-0.0788469189453125,1.1317218310546875
-0.31819400390625,-0.146001669921875,1.2000449462890626
-0.315033125,-0.11364974609375,1.2305200048828124
-0.323786328125,0.0686974609375,1.158018857421875
-0.3028758984375,-0.09232688720703125,1.0348897900390626
-0.26907880859375,-0.0063001806640625,1.0742124462890625
-0.2513292578125,-0.06291604736328126,1.01989802734375
-0.2464663671875,-0.10972830078125,1.032186357421875
-0.1715778515625,-0.15359947021484374,0.978117705078125
-0.1453182421875,-0.20776443359375,0.8783364648437499
-0.2620276171875,-0.12026718505859375,0.98647376953125
-0.31697828125,-0.16389326416015626,1.1007552392578126
-0.2523018359375,-0.1111988427734375,1.1562984912109375
-0.37606240234375,-0.08889562255859375,1.25681703125
-0.4122909375,-0.12761989501953125,1.2064348779296874
-0.242089765625,-0.17810850341796874,0.9916348681640625
-0.29533841796875,-0.1376685986328125,0.8997181591796874
-0.24938410156250002,-0.14698203125,0.8456495068359375
-0.14264365234375,-0.259723583984375,0.84884447265625
-0.2411171875,-0.1582561865234375,1.0343982568359376
-0.1443456640625,-0.187176845703125,0.99040603515625
-0.19029998046875,-0.1778634130859375,1.084288876953125
-0.1754681640625,-0.0249270458984375,1.2339607373046875
-0.26907880859375,-0.1430605859375,1.120662333984375
-0.302389609375,-0.1886473876953125,1.1513831591796875
-0.28950294921874997,-0.09428760986328125,1.0068723974609375
-0.25157240234375,-0.1327667919921875,0.8102591162109375
-0.183735078125,-0.1111988427734375,0.814928681640625
-0.2668905078125,-0.1013952294921875,0.8186151806640625
-0.21072412109375,0.0020328906249999995,0.911269189453125
-0.3748466796875,-0.17026561279296876,0.967303974609375
-0.330594375,-0.0533575244140625,1.0157199951171876
-0.20586123046875,-0.00360418701171875,0.9493630126953125
-0.3028758984375,-0.14502130859375,0.889641728515625
-0.09304216796875,-0.136198056640625,0.86260740234375
-0.08380267578125,-0.091101435546875,0.95698177734375
-0.174981875,-0.2357047314453125,1.0503730859375
-0.30117388671875,-0.1396293212890625,1.00515203125
-0.25546271484375,-0.1357078759765625,0.9614055761718749
-0.25497642578125,-0.15261910888671876,1.02088109375
-0.26616107421875,-0.1700205224609375,1.123611533203125
-0.38967849609375,-0.1979608203125,1.0658563818359374
-0.20926525390625,-0.14894275390625,0.947642646484375
-0.22823052734375,-0.20948006591796875,0.7751144921875
-0.2445212109375,-0.1396293212890625,0.8751414990234375
-0.18470765625,-0.27369373291015625,0.9631259423828125
-0.21510072265625,-0.15948163818359376,1.0142453955078126
-0.27515742187500003,0.046149150390625,0.86850580078125
-0.23260712890625002,-0.01438816162109375,0.7006472119140625
-0.09985021484375001,-0.1641383544921875,0.576043544921875
-0.03687578125,0.03364954345703125,0.7060540771484375
-0.15480087890625,0.01183650390625,0.9321593505859375
-0.30311904296875003,-0.11683592041015625,1.154578125
-0.40669861328125,-0.11095375244140625,1.1405694287109376
-0.25059982421875,0.04639424072265625,1.02088109375
-0.42517759765625,-0.0925719775390625,1.004660498046875
-0.3544225390625,-0.1116890234375,0.93338818359375
-0.19613544921875,-0.022476142578125,0.72202890625
-0.0947441796875,-0.08963089355468751,0.5455684863281249
-0.07188859375000001,-0.1866866650390625,0.4209648193359375
-0.0354169140625,-0.179333955078125,0.3786929638671875
-0.01815365234375,-0.07811164794921875,0.463973974609375
-0.17862904296875,0.013552136230468751,0.70335064453125
-0.22336763671875,-0.114630107421875,0.97369390625
-0.27005138671875,-0.13546278564453124,1.340869208984375
-0.24306234375,0.01551285888671875,1.4404046826171875
-0.31041337890625,-0.0327699365234375,1.3868275634765626
-0.44754689453125,-0.222469853515625,1.3121145166015624
-0.316005703125,-0.0543378857421875,0.9501003125
-0.36463460937500003,-0.07860182861328124,0.8028861181640625
-0.2649453515625,-0.23104801513671874,0.7515208984375
-0.14118478515625,-0.21781313720703124,0.585874208984375
-0.084532109375,-0.0866898095703125,0.50673736328125
-0.03566005859375,-0.07835673828125,0.600620205078125
0.034608710937499995,-0.06781785400390625,0.8628531689453125
-0.25108611328125,-0.03938737548828125,1.331038544921875
-0.408400625,-0.00801581298828125,1.65102666015625
-0.46067669921875,-0.0092412646484375,1.517821162109375
-0.54650671875,0.0015427099609375003,1.1388490625
-0.4614061328125,-0.1116890234375,0.682214716796875
-0.35709712890625,-0.08007237060546875,0.5836623095703125
-0.29874244140625,0.06845237060546874,0.615366201171875
-0.15164,0.11207844970703125,0.671400986328125
-0.121490078125,-0.04085791748046875,0.812471015625
-0.1501811328125,0.01110123291015625,0.9945840673828125
-0.1103054296875,0.09884357177734375,1.0928907080078125
-0.23552486328125,-0.06144550537109375,1.10444173828125
-0.26810623046875,0.0015427099609375003,1.2206893408203126
-0.2221519140625,0.0495804150390625,1.2550966650390625
-0.2766162890625,-0.00752563232421875,1.39936166015625
-0.40864376953125,-0.04968116943359375,1.240596435546875
-0.33813185546875,-0.03154448486328125,0.8687515673828125
-0.36196001953125,-0.02027032958984375,0.659604189453125
-0.39940427734375,-0.042083369140625,0.5920183740234375
-0.35077537109375,-0.052867343750000004,0.5448311865234375
-0.1355924609375,-0.0151234326171875,0.647807392578125
-0.0587587890625,-0.048945898437499996,0.876861865234375
-0.23649744140625,-0.071494208984375,1.0756870458984376
-0.1501811328125,-0.25653740966796873,1.1073909375
0.00421564453125,-0.19575500732421874,1.160968056640625
0.11411697265625,-0.18644157470703124,1.315309482421875
-0.050491875000000006,-0.12124754638671875,1.542397822265625
-0.42979734375,-0.087179990234375,1.4325401513671876
-0.216802734375,-0.154824921875,1.3642170361328125
-0.609724296875,-0.19403937500000001,1.449006513671875
-0.6588394921875,-0.11928682373046876,1.2408422021484375
-0.42225986328125,-0.01095689697265625,0.997779033203125
-0.28901666015625,0.10202974609375,1.0014655322265624
-0.3553951171875,0.1397736572265625,0.8427003076171875
-0.07650833984375,-0.0906112548828125,0.9950756005859375
-0.051464453125000004,-0.2641352099609375,1.18603625
-0.20732009765625,0.02752228515625,1.19390078125
-0.172064140625,-0.14698203125,0.8869382958984375
0.0025136328124999996,-0.2607039453125,0.8387680419921875
-0.09061072265625,-0.11561046875,1.0732293798828125
-0.40426716796875,0.02482629150390625,1.27549529296875
-0.57106431640625,-0.06830803466796875,1.3814206982421875
-0.58224896484375,0.010856142578125,1.1263149658203124
-0.384086171875,0.10276501708984374,0.7419360009765625
-0.22482650390625,0.07923634521484375,0.5467973193359374
0.0012979101562499984,0.00619942626953125,0.56965361328125
0.04117361328125,-0.06781785400390625,0.7045794775390625
-0.26713365234374997,-0.095022880859375,0.914218388671875
-0.39551396484375,-0.1759026904296875,0.9818042041015624
-0.30700935546875,-0.27835044921875,0.880794130859375
-0.1268392578125,-0.046740085449218746,0.7217831396484375
-0.19175884765625,0.06109966064453125,0.678282451171875
-0.22482650390625,-0.06144550537109375,0.7822417236328125
-0.36536404296875,-0.0837487255859375,0.9842618701171875
-0.34032015625,-0.01389798095703125,0.9911433349609375
-0.14896541015625,-0.13889405029296875,0.8834975634765625
-0.10106593750000001,-0.029338671875,0.9606682763671874
-0.16209521484375,-0.1504132958984375,1.1528577587890625
-0.391866796875,-0.0043394580078125,1.27549529296875
-0.28464005859375,0.0476196923828125,1.1990618798828125
-0.44122513671875,-0.01561361328125,1.0147369287109376
-0.098148203125,-0.00311400634765625,0.946168046875
0.14329431640625,-0.068553125,1.078390478515625
-0.1385101953125,-0.1396293212890625,1.48587150390625
-0.496905234375,-0.05017135009765625,1.4492522802734376
-0.19127255859375,-0.11732610107421874,0.9754142724609375
-0.1827625,-0.04698517578125,0.8771076318359375
-0.0655668359375,-0.10654212646484375,0.8864467626953125
-0.237226875,-0.1327667919921875,1.040542421875
-0.30919765625,-0.042083369140625,1.03169482421875
-0.436605390625,-0.0935523388671875,0.839996875
-0.45921783203125,-0.11095375244140625,0.802148818359375
-0.203186640625,-0.277370087890625,0.789368955078125
-0.02496169921875,-0.1768830517578125,0.8289373779296875
0.0316909765625,-0.1455114892578125,0.7380037353515625
0.043848203125,-0.03987755615234375,0.928964384765625
-0.131215859375,0.03536517578125,1.1661291552734374
-0.51611365234375,0.03217900146484375,1.27746142578125
-0.5392123828125,0.04198261474609375,1.2983515869140625
-0.4750222265625,0.15521434814453125,1.217494375
-0.1900568359375,-0.04477936279296875,0.6868842822265625
-0.05243703125,-0.15212892822265625,0.5114069287109375
-0.15164,-0.09281706787109376,0.5096865625
-0.3048210546875,-0.16046199951171874,0.535737822265625
-0.1958923046875,-0.11561046875,0.717605107421875
-0.1667149609375,0.03217900146484375,1.065610615234375
-0.3126016796875,0.079481435546875,1.24600330078125
-0.29582470703125,0.0221302978515625,1.14573052734375
-0.28512634765625,0.1172253466796875,0.9110234228515625
-0.1492085546875,0.00865032958984375,0.7208000732421875
-0.298499296875,0.0574233056640625,0.6976980126953125
-0.42615017578125003,0.0760501708984375,0.8466325732421875
-0.310170234375,0.0123266845703125,0.865065068359375
-0.16258150390625,-0.00997653564453125,0.9375662158203125
-0.345183046875,0.046149150390625,0.8712092333984375
-0.20804953125,-0.05409279541015625,0.86064126953125
-0.0937716015625,0.1079119140625,0.9990078662109375
-0.30311904296875003,0.05864875732421875,1.2516559326171874
-0.3641483203125,0.09394176513671874,1.4128788232421874
-0.35709712890625,-0.0016434643554687498,1.3597932373046875
-0.27296912109375,0.0103659619140625,1.377242666015625
-0.31478998046875,-0.1768830517578125,1.1464678271484374
-0.2523018359375,-0.181294677734375,0.8992266259765624
-0.1521262890625,-0.175412509765625,0.8043607177734375
-0.26081189453125,-0.1553151025390625,0.859658203125
-0.31916658203125,-0.1631579931640625,0.969761640625
-0.24306234375,-0.09722869384765626,1.0103131298828125
-0.2989855859375,-0.02909358154296875,0.8815314306640625
-0.3028758984375,-0.13546278564453124,0.7947758203124999
-0.2289599609375,-0.0033590966796874996,0.7591396630859375
-0.2056180859375,-0.05703387939453125,0.7515208984375
-0.14896541015625,-0.10972830078125,0.709740576171875
-0.11006228515625,-0.00948635498046875,0.787402822265625
-0.0859909765625,-0.1308060693359375,0.8323781103515625
-0.10374052734375,-0.11144393310546875,1.0189149609375
-0.26907880859375,-0.05899460205078125,1.2963854541015625
-0.37946642578125,-0.10188541015625,1.4821850048828125
-0.46481015625,0.06845237060546874,1.35217447265625
-0.36341888671875,0.05497240234375,1.1282810986328125
-0.1910294140625,0.04345315673828125,0.9992536328125
-0.2523018359375,0.06158984130859375,0.9965502001953125
-0.19808060546875,-0.07811164794921875,1.0108046630859375
-0.07407689453124999,-0.10262068115234375,0.9528037451171875
-0.08039865234375,-0.04772044677734375,1.02186416015625
-0.2542469921875,-0.018554697265625,1.1169758349609376
-0.29922873046875,-0.045024453125,1.2118417431640625
-0.34591248046875,0.0270321044921875,1.1985703466796875
-0.37119951171875,-0.02958376220703125,1.1843158837890626
-0.34153587890625,0.01649322021484375,1.09264494140625
-0.26056875,-0.037916833496093746,1.004660498046875
-0.10617197265625,-0.0533575244140625,1.1769428857421875
-0.31624884765625,0.07065818359375,1.207172177734375
-0.31381740234375,-0.1180613720703125,0.9788550048828125
-0.14264365234375,-0.0778665576171875,0.8230389794921875
-0.1321884375,-0.21585241455078125,0.825742412109375
-0.2561921484375,-0.13448242431640625,0.9926179345703126
-0.35272052734375,-0.19771572998046874,0.930930517578125
-0.18106048828125,-0.2239403955078125,0.851793671875
-0.15285572265625,-0.23202837646484376,0.8009199853515625
-0.19029998046875,-0.06144550537109375,0.88226873046875
-0.25983931640625,-0.0994345068359375,0.9363373828125
-0.21972046875,0.04394333740234375,1.050864619140625
-0.32743349609375,-0.0254172265625,1.07494974609375
-0.24427806640625,0.0319339111328125,1.0614325830078124
-0.3797095703125,0.07531489990234375,0.9218371533203125
-0.34056330078125,0.02580665283203125,0.7596311962890625
-0.2279873828125,0.05864875732421875,0.7085117431640625
-0.06386482421875,-0.18840229736328126,0.8156659814453124
-0.0996070703125,-0.11683592041015625,1.0402966552734374
-0.35199109375,-0.0347306591796875,1.2273250390625
-0.17473873046875,0.00791505859375,1.1602307568359376
-0.33813185546875,0.021640117187500002,1.000728232421875
-0.2834243359375,-0.013162709960937501,1.05528841796875
-0.2785614453125,-0.02370159423828125,1.1489254931640625
-0.4312562109375,0.0976181201171875,1.0678225146484375
-0.27199654296875,0.028257556152343752,0.842454541015625
-0.11492517578125,-0.036201201171875,0.721537373046875
-0.16258150390625,-0.01585870361328125,0.79379275390625
-0.27880458984375,-0.061690595703125004,0.91372685546875
-0.2649453515625,0.05521749267578125,1.0476696533203125
-0.298499296875,0.01575794921875,1.0103131298828125
-0.27540056640625,0.05129604736328125,0.9874568359375
-0.244034921875,0.0525214990234375,1.0029401318359374
-0.20634751953125,0.01894412353515625,1.079865078125
-0.2610550390625,-0.0175743359375,0.975168505859375
-0.26129818359375,-0.1553151025390625,0.8844806298828125
-0.28391062499999997,-0.059729873046875,1.0501273193359375
-0.27613,-0.0670825830078125,1.143272861328125
-0.15358515625,-0.11830646240234374,1.096085673828125
-0.315033125,-0.1141399267578125,1.071509013671875
-0.39089421875,-0.08350363525390625,1.0211268603515624
-0.19564916015625,-0.1587463671875,0.96681244140625
-0.2153438671875,-0.149923115234375,0.8023945849609375
-0.20586123046875,-0.1626678125,0.782487490234375
-0.1754681640625,-0.07026875732421875,0.810996416015625
-0.244034921875,-0.08105273193359375,0.8026403515625
-0.17668388671875,-0.0254172265625,0.8412257080078125
-0.26227076171875,-0.04968116943359375,0.9970417333984375
-0.3233000390625,-0.07615092529296875,1.2619781298828125
-0.302389609375,-0.0254172265625,1.262223896484375
-0.33521412109375,0.0093856005859375,0.9321593505859375
-0.21266927734375,-0.02737794921875,0.8269712451171874
-0.10495625,-0.14134495361328125,0.83213234375
-0.13048642578125,-0.02860340087890625,0.9493630126953125
-0.12319208984375,-0.04379900146484375,1.056271484375
-0.20294349609375,0.0819323388671875,1.155069658203125
-0.14458880859375,0.12531332763671876,1.2241300732421876
-0.2503566796875,0.06281529296875,1.304495751953125
-0.4604335546875,0.07237381591796875,1.268122294921875
-0.277102578125,0.19835024658203124,1.0398051220703124
-0.2416034765625,0.2083989501953125,0.8589209033203125
-0.16258150390625,0.1897720849609375,0.777572158203125
-0.1744955859375,0.008895419921875,0.7409529345703125
-0.18106048828125,-0.067572763671875,0.8250051123046875
-0.166228671875,-0.076396015625,0.9685328076171875
-0.25108611328125,-0.14428603759765624,1.056763017578125
-0.19321771484375,-0.10065995849609374,1.08281427734375
-0.2805066015625,-0.1396293212890625,1.1105859033203125
-0.49374435546875,-0.19428446533203125,1.072492080078125
-0.19419029296875,-0.0827683642578125,0.965337841796875
-0.302389609375,0.0008074389648437498,0.9582106103515625
-0.0232596875,-0.19624518798828125,1.1322133642578125
0.0715666796875,-0.1587463671875,1.16735798828125
-0.07845349609375,-0.33251541259765627,1.276969892578125
-0.2999581640625,-0.4415806103515625,1.2231470068359376
-0.28901666015625,-0.3023693017578125,0.8377849755859375
-0.30895451171875,-0.03105430419921875,0.816894814453125
-0.32013916015625,0.00178780029296875,0.77019916015625
-0.24816837890625,0.18266446533203126,0.7866655224609375
-0.16841697265625,0.28070059814453124,1.0245675927734375
-0.14507509765624998,0.2554562939453125,0.8790737646484375
-0.0782103515625,0.12531332763671876,0.9572275439453125
-0.07942607421875,0.09051050048828126,1.119187734375
-0.46116298828125,0.10129447509765625,1.1440101611328124
-0.44268400390625,0.1858506396484375,1.063644482421875
-0.42566388671875,0.08634396484375,0.977626171875
-0.43393080078125,0.05962911865234375,0.901438525390625
-0.38189787109375,0.1201664306640625,0.7790467578125
-0.08307324218750001,0.11379408203125,0.6411716943359375
-0.00696900390625,0.09394176513671874,0.6917996142578124
0.04482078125,0.05913893798828125,0.9154472216796875
-0.1088465625,0.17286085205078125,1.18701931640625
-0.4351465234375,0.18805645263671875,1.342835341796875
-0.33570041015625,0.00865032958984375,1.122628466796875
-0.2133987109375,0.0495804150390625,0.95108337890625
-0.22044990234375,0.03928662109375,0.7984623193359375
-0.1044699609375,-0.05997496337890625,0.7055625439453125
-0.10495625,-0.02272123291015625,0.7827332568359375
-0.279047734375,-0.037916833496093746,0.9724650732421874
-0.300444453125,-0.03644629150390625,1.14671359375
-0.341292734375,-0.198941181640625,1.2029941455078126
-0.32086859375,-0.11364974609375,1.1356540966796875
-0.32281375,-0.12516899169921875,0.9842618701171875
-0.19953947265625,-0.1298257080078125,0.7743771923828124
-0.20415921875,-0.1357078759765625,0.6318325634765625
-0.0529233203125,-0.060710234375,0.6760705517578125
0.01880431640625,-0.10997339111328125,0.6701721533203124
0.11095609375,0.08266760986328126,1.1700614208984375
-0.4200715625,0.0544822216796875,1.8439534423828126
-0.76071705078125,0.1378129345703125,1.6323483984375
-0.3344846875,-0.04306373046875,1.357581337890625
-0.3184371484375,-0.20310771728515625,0.9559987109375
-0.01742421875,-0.10409122314453124,0.7601227294921875
-0.12416466796875,0.00717978759765625,0.790352021484375
-0.2085358203125,0.1623219677734375,0.71711357421875
-0.28123603515625,0.0868341455078125,0.6549346240234375
-0.3164919921875,0.126538779296875,0.5576110498046875
-0.060460800781250004,0.16207687744140625,0.578992744140625
0.0229377734375,0.00766996826171875,1.2560797314453125
-0.1871391015625,0.01183650390625,1.33251314453125
-0.39502767578125,-0.03914228515625,1.251410166015625
-0.4964189453125,0.191242626953125,1.205206044921875
-0.421044140625,0.22580036376953125,1.0579918505859376
-0.28585578125,0.083402880859375,0.8884128955078126
-0.30530734375,0.2098694921875,0.9454307470703125
-0.18057419921875,0.2250650927734375,0.714164375
-0.19564916015625,-0.0053198193359375,0.6910623144531249
-0.2668905078125,0.0770305322265625,0.8141913818359375
-0.221665625,-0.091101435546875,0.9115149560546875
-0.2620276171875,-0.13497260498046876,1.0543053515625
-0.25789416015625,-0.0406128271484375,1.1172216015625
-0.20537494140625,0.01845394287109375,0.981066904296875
-0.19808060546875,0.03953171142578125,0.8392595751953125
-0.207076953125,-0.01291761962890625,0.80952181640625
-0.29971501953125,0.00276816162109375,0.883743330078125
-0.31235853515625,-0.11095375244140625,1.0275167919921875
-0.31965287109375,-0.218548408203125,1.0117877294921875
-0.19321771484375,-0.1445311279296875,0.9646005419921875
-0.27929087890625,-0.193059013671875,0.8338527099609375
-0.20634751953125,-0.10409122314453124,0.82328474609375
-0.181789921875,-0.0327699365234375,0.930930517578125
-0.22385392578125,0.04002189208984375,1.2147909423828125
-0.35101851562499997,0.08413815185546875,1.2511643994140624
-0.3369161328125,0.02752228515625,1.15556119140625
-0.1530988671875,0.04320806640625,0.863098935546875
-0.20002576171875,0.02752228515625,0.6313410302734375
0.04457763671875,-0.061690595703125004,0.695977646484375
-0.14507509765624998,-0.171491064453125,1.0211268603515624
-0.4040240234375,0.09418685546875,1.2418252685546876
-0.34785763671875003,0.0309535498046875,1.2273250390625
-0.3806821484375,-0.008996174316406251,1.196358447265625
-0.399647421875,-0.10727739746093751,0.9481341796875
-0.2036729296875,-0.1327667919921875,0.7262069384765625
-0.0782103515625,-0.19207865234375,0.642892060546875
-0.119544921875,-0.2455083447265625,0.7031048779296875
-0.1083602734375,-0.277370087890625,0.8485987060546875
-0.2649453515625,-0.33717212890625,1.055779951171875
-0.2766162890625,-0.15114856689453124,0.956490244140625
-0.3077387890625,-0.018554697265625,0.9906518017578125
-0.3242726171875,-0.1170810107421875,0.979100771484375
-0.31576255859375,-0.11561046875,0.9198710205078124
-0.316005703125,-0.00801581298828125,0.9650920751953125
-0.27248283203125,-0.19869609130859375,0.9351085498046875
-0.2474389453125,-0.11389483642578124,0.99827056640625
-0.37119951171875,-0.09404251953125001,0.9872110693359375
-0.1647698046875,-0.2062938916015625,1.0058893310546875
-0.206104375,-0.112669384765625,0.94911724609375
-0.214857578125,-0.083258544921875,1.078390478515625
-0.38530189453125,-0.123453359375,1.1290183984375
-0.352963671875,-0.1523740185546875,0.9835245703125
-0.15771861328125,-0.057278969726562504,0.829674677734375
-0.18081734375,-0.289134423828125,0.7424275341796875
-0.2960678515625,-0.1749223291015625,0.941744248046875
-0.358799140625,-0.124433720703125,1.053813818359375
-0.40280830078125,-0.10948321044921874,1.0948568408203125
-0.46213556640625,-0.1053166748046875,1.127543798828125
-0.315033125,-0.12663953369140624,0.9577190771484375
-0.22385392578125,-0.01953505859375,0.7891231884765625
-0.33253953125,-0.1474722119140625,0.5625263818359375
-0.10203851562499999,-0.153844560546875,0.6279002978515625
0.04944052734375,-0.12222790771484375,1.0525849853515625
-0.37557611328125,-0.1906081103515625,1.4762866064453124
-0.62504240234375,-0.21340151123046874,1.5165923291015626
-0.34785763671875003,-0.2749191845703125,1.0830600439453124
-0.28123603515625,-0.289134423828125,0.6834435498046875
-0.08526154296874999,-0.23202837646484376,0.5246783251953124
-0.0295814453125,-0.2553119580078125,0.7158847412109375
-0.2450075,-0.15163874755859374,1.0152284619140626
-0.4973915234375,0.04786478271484375,1.1798920849609376
-0.5129527734375,-0.1425704052734375,0.999745166015625
-0.26956509765625,-0.22859711181640624,0.8655566015625
-0.0626491015625,-0.045024453125,0.879811064453125
-0.24184662109375,-0.025662316894531252,0.9911433349609375
-0.16938955078125,-0.2082546142578125,1.111814736328125
-0.2571647265625,-0.0082609033203125,1.165883388671875
-0.1939471484375,-0.1053166748046875,1.0638902490234374
-0.2999581640625,-0.13252170166015625,1.111323203125
-0.2746711328125,-0.0602200537109375,1.0938737744140625
-0.24865466796875,-0.07713128662109375,1.0162115283203126
-0.329621796875,-0.142080224609375,1.0078554638671875
-0.24573693359375,-0.13693332763671875,0.9945840673828125
-0.17765646484375,-0.208744794921875,1.09264494140625
-0.366579765625,-0.21683277587890626,1.1366371630859375
-0.25011353515625,-0.15507001220703126,1.1388490625
-0.013777050781250001,-0.12614935302734376,1.1956211474609375
-0.46067669921875,-0.08350363525390625,1.2654188623046876
-0.3339983984375,-0.122472998046875,1.1828412841796876
-0.25084296875,-0.05556333740234375,1.026287958984375
-0.294608984375,-0.07124911865234375,1.04349162109375
-0.25084296875,-0.19600009765625,1.094119541015625
-0.1205175,-0.271487919921875,1.1010010058593749
-0.32013916015625,-0.23693018310546876,1.1290183984375
-0.333512109375,-0.13742350830078126,1.0520934521484375
-0.29922873046875,-0.13105115966796876,0.946168046875
-0.269321953125,-0.19869609130859375,0.9857364697265625
-0.29193439453125003,-0.055808427734375,1.1823497509765626
-0.3267040625,-0.012672529296875,1.1958669140625
-0.403537734375,-0.10605194580078126,0.9016842919921875
-0.24233291015625,-0.0347306591796875,0.7311222705078125
-0.19029998046875,-0.1053166748046875,0.7016302783203126
-0.170118984375,-0.13007079833984375,0.84097994140625
-0.17133470703125,-0.08742508056640624,1.0422627880859374
-0.25983931640625,-0.01732924560546875,1.2211808740234376
-0.36196001953125,-0.04575972412109375,1.1754682861328125
-0.30530734375,-0.24428289306640624,0.9621428759765625
-0.20245720703125,-0.3109474633789063,0.858183603515625
-0.32743349609375,-0.216587685546875,0.8220559130859375
-0.13437673828125,-0.21634259521484375,0.820335546875
-0.28950294921874997,-0.07835673828125,0.8756330322265625
-0.25789416015625,-0.15310928955078124,0.97369390625
-0.206104375,-0.1808044970703125,1.0358728564453126
-0.2630001953125,0.05105095703125,1.084288876953125
-0.25254498046875,-0.016593974609375,1.154086591796875
-0.3690112109375,-0.22026404052734375,1.2098756103515624
-0.25011353515625,-0.170510703125,1.1784174853515625
-0.271267109375,-0.1337471533203125,1.1277895654296874
-0.50930560546875,-0.18202994873046874,1.087238076171875
-0.1978374609375,-0.169530341796875,0.985982236328125
-0.08574783203125,-0.00409436767578125,1.1002637060546876
-0.23455228515625,0.0348749951171875,1.3352165771484374
-0.38287044921875,-0.10409122314453124,1.348733740234375
-0.33642984375,-0.04575972412109375,1.1612138232421876
-0.30627992187499997,-0.11389483642578124,0.9520664453125
-0.1910294140625,-0.2082546142578125,0.7458682666015625
-0.067025703125,-0.2562923193359375,0.7070371435546875
-0.23163455078125,-0.29624204345703126,0.8618701025390625
-0.33715927734375,-0.2994282177734375,1.0130165625
-0.37071322265625,-0.3141336376953125,1.18505318359375
-0.38189787109375,-0.33790739990234375,1.1290183984375
-0.34542619140624997,-0.27026246826171874,0.837539208984375
-0.2124261328125,-0.208744794921875,0.709740576171875
-0.19273142578125,-0.15286419921875,0.7409529345703125
-0.19832375,-0.2082546142578125,0.79575888671875
-0.14167107421875,-0.204823349609375,0.812962548828125
-0.0587587890625,-0.2533512353515625,0.8028861181640625
-0.09012443359375,-0.31143764404296875,0.92945591796875
-0.24768208984375,-0.2337440087890625,1.0147369287109376
-0.13607875,-0.24281235107421875,1.0270252587890625
-0.16744439453124998,-0.154824921875,1.0688055810546875
-0.380195859375,-0.17369687744140624,1.083305810546875
-0.35563826171875,-0.1886473876953125,1.0555341845703126
-0.4263933203125,-0.30261439208984375,0.8574463037109374
-0.33959072265625,-0.1396293212890625,0.855234404296875
-0.2260422265625,-0.08546435791015625,0.64043439453125
-0.20342978515625,-0.1744321484375,0.4696266064453125
-0.1025248046875,-0.044044091796875,0.5984083056640626
-0.20026890625,-0.19624518798828125,0.77806369140625
-0.18081734375,-0.181294677734375,0.8982435595703124
-0.12270580078125,-0.2278618408203125,1.029237158203125
-0.12829812499999999,-0.2102153369140625,1.1838243505859376
-0.2644590625,-0.2092349755859375,1.2801648583984375
-0.24622322265625,-0.15654055419921875,1.251410166015625
-0.11054857421875,-0.1376685986328125,1.2958939208984375
-0.40256515625,0.010611052246093749,1.4320486181640626
-0.56376998046875,-0.01144707763671875,1.2978600537109375
-0.37946642578125,-0.11340465576171875,1.147205126953125
-0.34785763671875003,-0.057278969726562504,0.9763973388671875
-0.3476144921875,-0.21438187255859376,0.7942842871093749
-0.221665625,-0.3249176123046875,0.7094948095703125
-0.21583015625000002,-0.3268783349609375,0.625196865234375
-0.1958923046875,-0.29035987548828124,0.5352462890625
-0.1832487890625,-0.31437872802734373,0.5286105908203125
-0.13486302734375,-0.31045728271484374,0.5394243212890625
-0.206104375,-0.308741650390625,0.788385888671875
-0.24330548828125,-0.2347243701171875,0.9473968798828125
-0.345183046875,-0.1817848583984375,1.1150097021484375
-0.42712275390625,-0.0259074072265625,1.2054518115234374
-0.3349709765625,-0.12541408203125,1.084288876953125
-0.3592854296875,-0.2102153369140625,0.93732044921875
-0.30749564453125,-0.08840544189453126,0.7699533935546875
-0.24695265625,-0.09134652587890625,0.7158847412109375
-0.1569891796875,-0.228352021484375,0.8500733056640625
-0.206104375,-0.17810850341796874,0.8839890966796875
-0.205131796875,-0.24281235107421875,0.855234404296875
-0.1774133203125,-0.20163717529296876,0.8242678125
-0.11346630859375,-0.11585555908203125,0.7355460693359375
-0.19516287109375,-0.06683749267578125,0.735300302734375
-0.304334765625,-0.20506843994140625,0.8987350927734374
-0.20804953125,-0.124433720703125,1.124594599609375
-0.3164919921875,-0.12663953369140624,1.1597392236328126
-0.29387955078125,-0.03522083984375,1.170798720703125
-0.29387955078125,-0.0504164404296875,1.135408330078125
-0.2795340234375,-0.2033528076171875,0.8923451611328125
-0.24622322265625,-0.100905048828125,0.88226873046875
-0.19856689453125,-0.092081796875,1.0201437939453124
0.07813158203125001,-0.16144236083984376,1.1553154248046875
-0.32840607421875,-0.0955130615234375,1.3863360302734375
-0.387976484375,-0.2562923193359375,1.305478818359375
-0.18981369140625,-0.27761517822265624,0.9547698779296875
-0.16452666015625,-0.16854998046875,0.922082919921875
-0.269321953125,-0.2543315966796875,0.867522734375
-0.12951384765625001,-0.328348876953125,0.9874568359375
-0.3466419140625,-0.09012107421875,1.1228742333984374
-0.376305546875,-0.20261753662109375,0.9031588916015625
-0.23747001953125,-0.2611941259765625,0.8417172412109375
-0.3223274609375,-0.1273748046875,1.068559814453125
-0.42590703125,-0.05482806640625,1.0127707958984375
-0.113709453125,-0.03448556884765625,0.9636174755859375
-0.29971501953125,0.01257177490234375,0.9970417333984375
-0.17619759765625,-0.0523771630859375,0.9166760546875
-0.15066742187499998,-0.0023787353515625003,0.955507177734375
-0.337402421875,-0.13203152099609375,1.075441279296875
-0.1706052734375,-0.100905048828125,0.9405154150390624
-0.38043900390625,-0.042083369140625,0.8301662109375
-0.14945169921875,-0.16070708984375,0.8613785693359375
-0.19710802734375,-0.10065995849609374,1.01989802734375
-0.29533841796875,0.08854977783203125,1.06905134765625
-0.2192341796875,-0.16683434814453124,1.2541135986328125
-0.44730375,0.10913736572265625,1.4907868359375
-0.658353203125,0.065756376953125,1.3455387744140626
-0.33424154296874997,-0.28006608154296875,0.969270107421875
-0.11978806640625,-0.155805283203125,0.6151204345703125
-0.15188314453125001,-0.2136466015625,0.4479991455078125
0.0003253320312500002,-0.198941181640625,0.47626230468749997
-0.007455292968749999,-0.28006608154296875,0.818860947265625
-0.37508982421875,-0.1504132958984375,1.076424345703125
-0.42931105468749997,-0.046004814453125,1.18701931640625
-0.2177753125,-0.17639287109375001,1.2941735546875
-0.3437241796875,-0.13325697265625,1.2182316748046875
-0.224583359375,0.10717664306640624,1.2374014697265625
-0.35806970703125,-0.0033590966796874996,1.1184504345703126
-0.37898013671874997,0.0780108935546875,1.213562109375
-0.34421046875,-0.1210024560546875,1.0722463134765625
-0.28609892578125,-0.2023724462890625,1.084288876953125
0.00810595703125,0.0691876416015625,1.1002637060546876
-0.29169125,-0.1357078759765625,0.9002096923828125
-0.361716875,-0.0925719775390625,0.93928658203125
0.01150998046875,-0.163648173828125,0.9262609521484375
-0.10811712890625,-0.23447927978515626,0.8766160986328125
-0.2416034765625,0.1652630517578125,1.0727378466796875
-0.1044699609375,-0.09232688720703125,1.0196522607421874
-0.228473671875,0.13560712158203125,1.284342890625
-0.49131291015625,0.21501638916015625,1.448023447265625
-0.533863203125,0.16256705810546876,1.375276533203125
-0.384086171875,0.03953171142578125,1.095102607421875
-0.1866528125,-0.046249904785156254,0.6519854248046875
-0.146777109375,-0.218548408203125,0.39245589355468746
-0.0011335351562500005,-0.22173458251953124,0.37598953125
0.053573984374999994,-0.19869609130859375,0.531805556640625
-0.026420566406250002,-0.326388154296875,0.780521357421875
-0.03128345703125,-0.2925656884765625,0.9926179345703126
-0.04830357421875,-0.25506686767578124,1.3755222998046874
-0.0577862109375,-0.10311086181640625,1.6611030908203124
-0.2202067578125,0.15300853515625001,1.7176294091796875
-0.43636224609375,0.29491583740234373,1.6832220849609376
-0.53313376953125,0.2907493017578125,1.447040380859375
-0.57446833984375,0.17237067138671874,1.208155244140625
-0.39308251953125,-0.24697888671875,0.874895732421875
-0.28391062499999997,-0.19085320068359374,0.82918314453125
-0.1540714453125,-0.1665892578125,0.5143561279296875
0.014427714843749998,-0.149923115234375,0.3850828955078125
0.02998896484375,-0.13252170166015625,0.541636220703125
0.0861553515625,-0.17124597412109374,0.9567360107421875
-0.1141957421875,-0.22124440185546876,1.6896120166015625
-0.35952857421875,0.1887917236328125,1.897284794921875
-0.58224896484375,0.3525120654296875,1.6856797509765624
-0.46797103515625,0.2270258154296875,1.233714970703125
-0.2143712890625,0.02090484619140625,0.8893959619140624
-0.292663828125,-0.03399538818359375,0.6986810791015625
-0.34639876953125,-0.06659240234375,0.6627991552734375
-0.23212083984375,-0.12320826904296875,0.4828980029296875
0.05624857421875,-0.13889405029296875,0.4951863330078125
-0.07456318359375,-0.0543378857421875,0.7955131201171874
-0.2800203125,0.04100225341796875,1.04349162109375
-0.24184662109375,-0.1680597998046875,1.1897227490234374
-0.20415921875,0.10423555908203125,1.3833868310546875
-0.401592578125,0.12874459228515625,1.125577666015625
-0.3349709765625,-0.17639287109375001,0.8864467626953125
-0.255705859375,-0.2023724462890625,0.7581565966796875
-0.32111173828125,-0.12565917236328125,0.4745419384765625
-0.19662173828125,-0.1210024560546875,0.3071748828125
-0.04344068359375,-0.21438187255859376,0.40744765625
-0.1015522265625,-0.15114856689453124,0.6500192919921874
-0.3670660546875,-0.02958376220703125,0.879811064453125
-0.44317029296875,-0.02149578125,1.08281427734375
-0.15164,0.06011929931640625,1.32071634765625
-0.15723232421875,0.0750698095703125,1.4256586865234375
-0.312115390625,0.03462990478515625,1.500125966796875
-0.36147373046875,-0.0219859619140625,1.2423168017578126
-0.27442798828125,-0.076396015625,1.0545511181640626
-0.33326896484375,-0.08938580322265625,0.99827056640625
-0.1647698046875,-0.10164031982421876,0.9994993994140625
-0.29242068359375,-0.19036302001953126,0.789368955078125
-0.2785614453125,-0.15359947021484374,0.6603414892578126
-0.284883203125,-0.14232531494140624,0.6170865673828125
-0.32500205078125,-0.15605037353515624,0.5359835888671876
-0.1735230078125,-0.0425735498046875,0.4637282080078125
0.03144783203125,0.036345537109375,0.819844013671875
-0.14847912109375,0.16746886474609374,1.3248943798828126
-0.34493990234375,0.18658591064453126,1.452938779296875
-0.0947441796875,-0.012672529296875,1.24796943359375
-0.1920019921875,-0.1116890234375,1.021372626953125
-0.41885583984375,0.0427178857421875,0.8363103759765624
-0.37898013671874997,0.11158826904296874,0.8301662109375
-0.09595990234375,-0.048945898437499996,1.01203349609375
-0.195406015625,0.11967625,1.097068740234375
-0.31819400390625,-0.1886473876953125,0.92945591796875
-0.19029998046875,-0.1553151025390625,1.0545511181640626
-0.1939471484375,0.01208159423828125,1.130492998046875
-0.26324333984375,0.02360083984375,0.99827056640625
0.014670859375000001,-0.08644471923828125,0.8869382958984375
0.09077509765625,-0.12026718505859375,1.0737209130859375
-0.27613,0.01845394287109375,1.323174013671875
-0.29339326171875,-0.0670825830078125,1.37576806640625
-0.335457265625,-0.0621807763671875,1.30105501953125
-0.37703498046875,0.0584036669921875,1.22240970703125
-0.3203823046875,0.0270321044921875,1.0044147314453125
-0.031769746093749995,0.06306038330078124,0.9405154150390624
-0.08088494140625,-0.18815720703125,1.07494974609375
-0.31576255859375,-0.0425735498046875,1.1558069580078125
-0.14629082031250001,-0.09036616455078125,1.0368559228515626
-0.18592337890625,-0.167569619140625,1.083305810546875
-0.27929087890625,0.04124734375,1.1739936865234375
-0.3811684375,-0.0268877685546875,1.0226014599609374
-0.25205869140625,-0.038161923828125,0.6878673486328125
-0.14264365234375,-0.15114856689453124,0.4278462841796875
0.0229377734375,-0.13497260498046876,0.44480417968749997
-0.0626491015625,-0.11291447509765624,0.6898334814453125
-0.168173828125,-0.06046514404296875,1.04742388671875
-0.448276328125,0.077520712890625,1.368395068359375
-0.52972974609375,0.0897752294921875,1.30105501953125
-0.2299325390625,0.0387964404296875,1.041033955078125
-0.27272597656249997,0.080461796875,0.8372934423828124
-0.17911533203125,0.07041309326171875,0.6254426318359375
-0.10203851562499999,0.1044806494140625,0.7188339404296875
-0.19832375,0.08462833251953125,0.9127437890625
-0.30117388671875,-0.07075893798828126,1.0235845263671874
-0.36682291015625,-0.10311086181640625,0.9960586669921875
-0.30700935546875,-0.07222947998046875,0.726452705078125
-0.11395259765625,-0.05654369873046875,0.5802215771484375
-0.12343523437500001,-0.09477779052734375,0.56768748046875
-0.17230728515625,0.069677822265625,0.7645465283203124
-0.39356880859375,-0.053847705078125,0.9872110693359375
-0.52705515625,-0.0013983740234375002,1.0894499755859375
-0.31138595703125,0.13168567626953126,0.9169218212890625
-0.29047552734375,0.03536517578125,0.645841259765625
-0.12829812499999999,-0.06977857666015624,0.55982294921875
-0.0743200390625,-0.0092412646484375,0.6047982373046875
-0.21412814453125,0.0191892138671875,0.8078014501953125
-0.4118046484375,-0.05090662109375,0.892590927734375
-0.28026345703125,0.064776015625,0.9316678173828125
-0.013290761718750002,0.0829127001953125,0.9867195361328125
-0.146777109375,-0.08963089355468751,1.0707717138671875
-0.36220316406249997,0.06551128662109375,1.145238994140625
-0.27637314453125,0.0294830078125,1.180629384765625
-0.35393625,-0.07958218994140626,1.0388220556640624
-0.34348103515625,-0.03546593017578125,0.94715111328125
-0.21315556640625,-0.0332601171875,1.006626630859375
-0.26470220703125,-0.04379900146484375,0.9906518017578125
-0.23260712890625002,-0.12541408203125,0.9582106103515625
-0.181789921875,-0.03154448486328125,0.9557529443359375
-0.18640966796875,-0.05482806640625,0.927981318359375
-0.26251390625,0.0191892138671875,0.9877026025390625
-0.12270580078125,0.08217742919921875,1.0997721728515626
-0.24087404296875,0.01600303955078125,1.0461950537109375
-0.1088465625,0.08315779052734375,1.1774344189453125
-0.25473328125,0.0064445166015625,1.1710444873046875
-0.2814791796875,0.07433453857421875,1.1877566162109374
-0.40864376953125,0.09884357177734375,1.21454517578125
-0.4049966015625,0.01404231689453125,1.233714970703125
-0.27540056640625,0.13315621826171875,1.2526389990234374
-0.2639727734375,-0.0612004150390625,1.0860092431640624
-0.24038775390625,-0.08619962890625,0.9233117529296875
-0.12027435546875,-0.07026875732421875,0.95894791015625
-0.3417790234375,-0.1915884716796875,0.99040603515625
-0.1774133203125,-0.10654212646484375,0.9528037451171875
-0.074806328125,-0.0533575244140625,0.848352939453125
-0.18106048828125,-0.05115171142578125,0.875878798828125
-0.21072412109375,-0.0092412646484375,1.0078554638671875
-0.31770771484375,0.0010525292968750002,1.139340595703125
-0.2688356640625,0.14246965087890626,1.19291771484375
-0.259596171875,0.069677822265625,1.2300284716796874
-0.38457246093749997,0.13315621826171875,1.2988431201171875
-0.41593810546875,0.1270289599609375,1.2511643994140624
-0.28074974609375003,0.0809519775390625,1.1007552392578126
-0.263486484375,0.0427178857421875,1.006626630859375
-0.14993798828125,-0.0180645166015625,1.072492080078125
-0.21023783203125002,-0.068553125,1.0471781201171875
-0.22531279296875,-0.1210024560546875,0.99237216796875
-0.0889087109375,-0.063651318359375,0.9186421875
-0.255705859375,-0.15703073486328126,0.842454541015625
-0.2172890234375,-0.071494208984375,0.8962774267578125
-0.16185207031249998,-0.0621807763671875,1.0393135888671874
-0.2766162890625,0.07237381591796875,1.0909245751953125
-0.27540056640625,0.0672269189453125,1.0975602734375
-0.26567478515625,0.040266982421875,1.0896957421875
-0.3019033203125,0.03144373046875,0.9228202197265625
-0.18251935546875,-0.03105430419921875,0.8294289111328125
-0.22336763671875,0.02433611083984375,0.770690693359375
-0.152612578125,-0.04428918212890625,0.783470556640625
-0.212912421875,-0.00777072265625,0.9164302880859375
-0.177899609375,0.08364797119140625,1.009084296875
-0.19127255859375,0.03904153076171875,1.0565172509765626
-0.221665625,0.02776737548828125,1.12410306640625
-0.2600824609375,0.030463369140625002,1.1041959716796874
-0.25108611328125,0.0770305322265625,1.1248403662109374
-0.1599069140625,-0.0180645166015625,1.01203349609375
-0.12221951171875,0.03462990478515625,1.062661416015625
-0.40694175781249997,0.12090170166015625,1.080356611328125
-0.3369161328125,0.053992041015625,1.066593681640625
-0.2007551953125,-0.0866898095703125,1.0201437939453124
-0.28585578125,0.077520712890625,1.0425085546875
-0.144831953125,-0.0332601171875,1.0464408203125
-0.3592854296875,0.0603643896484375,1.0201437939453124
-0.299471875,0.18413500732421875,0.8736668994140625
-0.16647181640625,0.1211467919921875,0.8033776513671875
-0.0305540234375,0.18119392333984374,0.8643277685546875
-0.0140201953125,0.17580193603515626,1.0914161083984375
-0.189570546875,0.17531175537109375,1.27549529296875
-0.191515703125,-0.21928367919921876,1.253376298828125
-0.1385101953125,-0.4121697705078125,1.189968515625
-0.44292714843750003,-0.34501501953125,0.8358188427734374
-0.4137498046875,-0.28619333984375,0.557365283203125
-0.35417939453125,-0.2450181640625,0.4843726025390625
-0.39016478515624997,-0.22908729248046875,0.46741470703125
-0.12562353515625,-0.04968116943359375,0.560806015625
0.01199626953125,0.093206494140625,0.8382765087890625
-0.02982458984375,0.1387932958984375,0.9675497412109375
-0.2523018359375,-0.052867343750000004,1.0457035205078125
-0.1735230078125,0.11845079833984375,1.0638902490234374
-0.37411724609375,0.05668803466796875,0.9621428759765625
-0.3515048046875,0.06306038330078124,0.99630443359375
-0.45386865234375,0.04688442138671875,1.007609697265625
-0.3865176171875,0.03953171142578125,1.03169482421875
-0.30117388671875,0.114774443359375,1.1538408251953125
-0.191515703125,0.15129290283203126,0.9245405859375
-0.3339983984375,0.09688284912109375,0.780521357421875
-0.26859251953125,0.05472731201171875,0.7945300537109374
-0.27272597656249997,0.10325519775390625,0.9567360107421875
-0.31819400390625,0.097127939453125,1.2049602783203124
-0.284883203125,0.0417375244140625,1.217002841796875
-0.1929745703125,-0.0229663232421875,1.086255009765625
-0.18884111328125,0.10374537841796876,0.8918536279296875
-0.08744984375,0.0652661962890625,0.861132802734375
-0.24622322265625,0.0319339111328125,0.7989538525390625
-0.34445361328125,0.03413972412109375,0.9827872705078124
-0.3889490625,0.0799716162109375,1.13589986328125
-0.31697828125,0.009140510253906251,1.11525546875
-0.3826273046875,0.04590406005859375,0.936828916015625
-0.1088465625,0.03315936279296875,0.8943112939453125
-0.27296912109375,-0.01634888427734375,0.985490703125
-0.28950294921874997,-0.0464949951171875,1.118696201171875
-0.27807515625,0.04345315673828125,1.1469593603515624
-0.31576255859375,-0.0612004150390625,1.0442289208984374
-0.20440236328125,-0.01561361328125,0.9002096923828125
-0.27345541015625,-0.03840701416015625,0.76430076171875
-0.19224513671875,-0.13987441162109376,0.719571240234375
-0.1064151171875,-0.07517056396484376,0.6554261572265625
-0.16185207031249998,0.0927163134765625,0.744147900390625
-0.2552195703125,-0.02762303955078125,0.8299204443359375
-0.242089765625,-0.0298288525390625,0.9410069482421874
-0.331566953125,0.146146005859375,1.0815854443359374
-0.2931501171875,0.0603643896484375,1.19095158203125
-0.3573402734375,0.0280124658203125,1.1813666845703126
-0.33959072265625,0.10987263671875,1.069542880859375
-0.12416466796875,-0.06095532470703125,0.968287041015625
-0.2785614453125,-0.03595611083984375,0.8977520263671875
-0.0918264453125,-0.02860340087890625,0.9341254833984375
-0.1482359765625,-0.0690433056640625,0.970253173828125
-0.35272052734375,0.02727719482421875,0.98942296875
-0.12756869140625,0.06624655761718751,0.9562444775390625
-0.15747546875,-0.011201987304687501,0.871455
-0.25497642578125,0.08242251953125,0.96681244140625
-0.20926525390625,0.174576484375,1.01399962890625
-0.25473328125,0.1309504052734375,1.0688055810546875
-0.33278267578125,0.05815857666015625,1.1292641650390625
-0.2523018359375,-0.01291761962890625,1.08674654296875
-0.18592337890625,0.05570767333984375,1.1970957470703125
-0.14702025390625,0.0010525292968750002,1.1676037548828124
-0.24427806640625,0.05472731201171875,1.1056705712890624
-0.31770771484375,0.0505607763671875,1.15162892578125
-0.28026345703125,0.08021670654296875,1.086255009765625
-0.19078626953125,0.0486000537109375,0.9916348681640625
-0.19467658203125,0.0064445166015625,1.0432458544921874
-0.146777109375,-0.01953505859375,0.979100771484375
-0.13145900390625,0.06845237060546874,0.938303515625
-0.20804953125,-0.00997653564453125,1.0063808642578125
-0.20732009765625,-0.037916833496093746,1.0806023779296874
-0.33181009765625,0.02237538818359375,1.094119541015625
-0.228473671875,0.03315936279296875,1.0319405908203125
-0.25084296875,0.0182088525390625,0.9390408154296875
-0.1939471484375,0.05178622802734375,0.9714820068359376
-0.2484115234375,0.11060790771484375,0.9901602685546875
-0.17960162109375,0.0799716162109375,0.97467697265625
-0.1696326953125,0.10864718505859375,0.8874298291015625
-0.10860341796875,0.04737460205078125,0.81640328125
-0.076751484375,0.0530116796875,0.8392595751953125
-0.14799283203125,0.0270321044921875,1.0186691943359376
-0.247925234375,-0.020515419921875,1.056763017578125
-0.21583015625000002,-0.0038492773437499997,1.0110504296875
-0.2921775390625,0.0133070458984375,0.872929599609375
-0.22142248046875002,0.04737460205078125,0.9282270849609375
-0.2513292578125,0.140263837890625,0.9960586669921875
-0.3271903515625,0.06355056396484375,0.89406552734375
-0.0937716015625,0.179478291015625,0.94125271484375
-0.28123603515625,0.208889130859375,1.0339067236328126
-0.2377131640625,0.14124419921875,1.0884669091796875
-0.07942607421875,0.13413657958984376,0.9508376123046876
-0.22579908203125,0.13315621826171875,0.8957858935546875
-0.18081734375,0.11894097900390625,0.9036504248046875
-0.07893978515625,0.014777587890624999,0.884726396484375
-0.32159802734375,0.12727405029296876,0.94715111328125
-0.2600824609375,0.0535018603515625,1.0071181640625
-0.23747001953125,0.1015395654296875,1.0604495166015624
-0.24330548828125,0.11256863037109376,1.1120605029296875
-0.26154132812499997,-0.0190448779296875,0.983033037109375
-0.18106048828125,0.1348718505859375,0.871946533203125
-0.177899609375,0.106931552734375,0.8419630078125
-0.18203306640625,0.00521906494140625,0.7792925244140625
-0.32548833984375003,0.1157548046875,0.8250051123046875
-0.1599069140625,0.1584005224609375,0.97369390625
-0.20294349609375,0.0515411376953125,0.923065986328125
-0.1725504296875,-0.0396324658203125,0.843437607421875
-0.16598552734375,-0.05262225341796875,0.741690234375
-0.17619759765625,0.008895419921875,0.7099863427734375
-0.24330548828125,0.06673673828125,0.7335799365234374
-0.2386857421875,0.07457962890625,0.83213234375
-0.3233000390625,0.06306038330078124,0.93732044921875
-0.30627992187499997,0.05717821533203125,1.0098215966796875
-0.26664736328125,0.16942958740234376,1.0444746875
-0.27515742187500003,0.2098694921875,0.98843990234375
-0.12173322265625,0.16109651611328124,0.984999169921875
-0.20415921875,0.183399736328125,1.057746083984375
-0.29582470703125,0.20227169189453126,1.163917255859375
-0.26713365234374997,0.1142842626953125,1.16145958984375
-0.310170234375,0.1613416064453125,1.117713134765625
-0.32159802734375,0.14001874755859375,1.0621698828125
-0.205131796875,0.05374695068359375,0.9650920751953125
-0.18227621093750002,0.1074217333984375,0.8780906982421874
-0.26421591796875,0.010611052246093749,0.8633447021484375
-0.3096839453125,-0.0259074072265625,0.9134810888671875
-0.2552195703125,0.0338946337890625,0.7748687255859374
-0.20440236328125,-0.03252484619140625,0.6451039599609375
-0.13607875,0.0162481298828125,0.5787469775390625
-0.15966376953125,0.15472416748046874,0.693028447265625
-0.10957599609375,0.20080114990234374,0.967303974609375
-0.159420625,0.13658748291015624,1.1587561572265626
-0.33861814453125,0.2554562939453125,1.3295639453125
-0.2153438671875,0.2726126171875,1.26173236328125
-0.21801845703125,0.106931552734375,1.197341513671875
-0.2766162890625,0.02237538818359375,1.079865078125
-0.162338359375,0.11354899169921875,0.9041419580078125
-0.17303671874999998,0.02776737548828125,0.77609755859375
-0.158448046875,-0.0876701708984375,0.7630719287109375
-0.07699462890625,0.1289896826171875,0.910286123046875
-0.28074974609375003,0.0985984814453125,1.041033955078125
-0.179844765625,0.03659062744140625,1.1287726318359375
-0.27515742187500003,0.1378129345703125,1.0226014599609374
-0.1141957421875,0.14786163818359374,0.954524111328125
-0.14945169921875,0.1603612451171875,1.062661416015625
-0.240144609375,0.2054578662109375,1.2155282421875
-0.1355924609375,0.112813720703125,1.2831140576171876
-0.17692703125,0.21354584716796876,1.285817490234375
-0.27345541015625,0.17384121337890626,1.2590289306640625
-0.29728357421875,0.12776423095703124,1.2688595947265624
-0.16695810546875,0.267710810546875,1.255342431640625
-0.34737134765625,0.110852998046875,1.1656376220703124
-0.27807515625,0.008895419921875,1.087238076171875
-0.17717017578125,0.0299731884765625,1.13196759765625
-0.1501811328125,-0.0210056005859375,1.05135615234375
-0.17911533203125,-0.0533575244140625,0.971236240234375
-0.0932853125,0.0348749951171875,1.010558896484375
-0.16525609375,-0.040122646484374996,0.9835245703125
-0.3515048046875,0.05129604736328125,1.0560257177734376
-0.3349709765625,0.0956573974609375,1.0250591259765625
-0.20804953125,0.0750698095703125,0.837539208984375
-0.35369310546875,0.02874773681640625,0.6846723828125
-0.12829812499999999,0.15178308349609376,0.7321053369140624
-0.11784291015625001,0.18756627197265624,0.8574463037109374
-0.265431640625,0.18438009765625,1.0759328125
-0.28634207031250003,0.2593777392578125,1.12606919921875
-0.1744955859375,0.18315464599609374,1.099034873046875
-0.2921775390625,0.20864404052734375,1.064136015625
-0.28415376953125,0.06281529296875,1.0267794921875
-0.2289599609375,0.0064445166015625,0.9493630126953125
-0.1978374609375,0.05227640869140625,0.8771076318359375
-0.166228671875,-0.05482806640625,0.779538291015625
-0.17182099609375,0.01845394287109375,0.8544971044921875
-0.34834392578125,0.1799684716796875,0.9559987109375
-0.35223423828125,0.1848702783203125,0.9464138134765625
-0.24087404296875,0.22629054443359375,0.8313950439453125
-0.22434021484375,0.23217271240234374,0.8092760498046875
-0.1715778515625,0.252025029296875,0.8466325732421875
-0.2678630859375,0.2172222021484375,1.00613509765625
-0.25351755859375,0.06747200927734374,0.9088115234375
-0.11103486328125,0.1476165478515625,0.801165751953125
-0.15164,0.0848734228515625,0.7286646044921875
-0.06970029296875,0.023845930175781252,0.9252778857421875
-0.2182616015625,0.0319339111328125,1.21847744140625
-0.3233000390625,0.04345315673828125,1.47604083984375
-0.37752126953125,0.17776265869140626,1.4246756201171875
-0.19224513671875,0.12972495361328126,1.0791277783203126
-0.299471875,0.04492369873046875,0.9065996240234375
-0.26713365234374997,0.0927163134765625,0.8825144970703125
-0.2056180859375,0.09590248779296875,0.7539785644531249
-0.04465640625,0.079481435546875,0.6716467529296875
-0.17717017578125,0.05717821533203125,0.7109694091796875
-0.1307295703125,-0.0028689160156250004,0.7453767333984375
-0.117599765625,0.0652661962890625,0.916184521484375
-0.27296912109375,0.20766367919921874,1.122628466796875
-0.30311904296875003,0.19197789794921874,1.173747919921875
-0.187625390625,0.2887885791015625,1.23617263671875
-0.3096839453125,0.3228561352539063,1.209138310546875
-0.2853694921875,0.334375380859375,1.175714052734375
-0.18932740234375,0.36109022705078125,1.2428083349609376
-0.19953947265625,0.25864246826171877,1.216019775390625
-0.21169669921875,0.0008074389648437498,0.9520664453125
-0.10714455078125,0.17825283935546876,1.0417712548828124
-0.14750654296875,0.16869431640625,1.1410609619140626
-0.33132380859375,-0.0386521044921875,1.0427543212890624
-0.2445212109375,0.10399046875,1.048406953125
-0.12246265625,0.21746729248046875,1.12803533203125
-0.28755779296875,0.1015395654296875,1.087729609375
-0.26664736328125,0.077520712890625,1.0778989453125
-0.251815546875,0.0691876416015625,0.9832788037109375
-0.1453182421875,0.0535018603515625,0.9046334912109375
-0.22750109375,0.128499501953125,0.737266435546875
-0.13607875,0.02531647216796875,0.678282451171875
-0.1832487890625,0.05521749267578125,0.726452705078125
-0.189570546875,0.061834931640625,0.80165728515625
-0.09206958984375,0.052031318359375,1.0245675927734375
-0.20197091796875,0.1706550390625,1.2423168017578126
-0.33326896484375,0.18903681396484376,1.3570898046875
-0.280992890625,0.13756784423828125,1.26959689453125
-0.27296912109375,0.25521120361328126,1.10640787109375
-0.23844259765625,0.22187891845703125,1.1211538671875
-0.36196001953125,0.16648850341796875,1.0395593554687501
-0.21947732421875,0.110852998046875,0.87243806640625
-0.06751199218750001,0.12433296630859375,0.6991726123046875
-0.019369375,0.134381669921875,0.6220018994140625
-0.03225603515625,0.1574201611328125,0.820827080078125
-0.23066197265625,0.1809488330078125,1.095102607421875
-0.34032015625,0.2338883447265625,1.2757410595703125
-0.292663828125,0.26648535888671876,1.2890124560546874
-0.35417939453125,0.1574201611328125,1.2452660009765626
-0.113709453125,0.0530116796875,1.039067822265625
-0.35077537109375,0.12874459228515625,0.7719195263671875
-0.13024328125,-0.1219828173828125,0.5841538427734375
-0.06483740234375,-0.165608896484375,0.4848641357421875
-0.172064140625,-0.049926259765625,0.547534619140625
-0.0310403125,0.05276658935546875,0.7121982421874999
-0.14604767578125,-0.19673536865234376,0.9174133544921875
-0.2824517578125,0.03806116943359375,1.0884669091796875
-0.218747890625,0.1995756982421875,1.07101748046875
-0.1788721875,0.19491898193359375,1.025304892578125
-0.28123603515625,0.29197475341796875,1.0196522607421874
-0.19662173828125,0.28707294677734374,1.015474228515625
-0.252788125,0.295160927734375,1.117713134765625
-0.3189234375,0.27726933349609373,1.0850261767578124
-0.2192341796875,0.28168095947265626,1.0206353271484374
-0.12319208984375,0.17261576171875,0.8530225048828125
-0.18154677734375,0.1093824560546875,0.7672499609375
-0.18203306640625,0.2044775048828125,0.854251337890625
-0.22385392578125,0.13707766357421874,0.9080742236328125
-0.228473671875,0.1956542529296875,1.0122792626953125
-0.23747001953125,0.246142861328125,1.1213996337890624
-0.31624884765625,0.271632255859375,1.1833328173828126
-0.22190876953125,0.27432824951171875,1.1140266357421875
-0.199296328125,0.2397705126953125,0.9724650732421874
-0.22579908203125,0.2378097900390625,1.0511103857421875
-0.20415921875,0.11403917236328125,1.0167030615234376
-0.2566784375,0.08707923583984375,0.8992266259765624
-0.23114826171875,0.1280093212890625,0.79182662109375
-0.159420625,0.085363603515625,0.7424275341796875
-0.23844259765625,0.1329111279296875,0.8358188427734374
-0.21461443359375,0.1436951025390625,0.996795966796875
-0.23990146484375,0.10178465576171875,1.1002637060546876
-0.22579908203125,0.0530116796875,1.166374921875
-0.19662173828125,0.11060790771484375,1.1710444873046875
-0.20002576171875,0.0436982470703125,1.0815854443359374
-0.32354318359375,0.17629211669921874,1.0865007763671874
-0.39089421875,0.04051207275390625,0.9120064892578125
-0.25205869140625,0.052031318359375,0.77609755859375
-0.15674603515625,0.0603643896484375,0.6111881689453125
-0.10957599609375,0.0976181201171875,0.5772723779296876
-0.109819140625,0.14908708984375,0.7060540771484375
-0.185680234375,0.2191829248046875,0.9872110693359375
-0.2240970703125,0.31158197998046877,1.1774344189453125
-0.15334201171875,0.40667702880859374,1.45048111328125
-0.15917748046875,0.409863203125,1.60973787109375
-0.3378887109375,-0.046740085449218746,1.3597932373046875
-0.39162365234375,0.03904153076171875,0.956490244140625
-0.30360533203125,0.07457962890625,0.7173593408203125
-0.25935302734375,-0.089140712890625,0.5212375927734375
-0.190543125,-0.189137568359375,0.442838046875
