ax,ay,az
-0.2416034765625,0.03953171142578125,0.965337841796875
-0.19710802734375,0.00791505859375,0.944693447265625
-0.24038775390625,0.0476196923828125,0.9975332666015625
-0.27637314453125,0.02139502685546875,1.0653648486328124
-0.22871681640625,0.0672269189453125,1.0678225146484375
-0.24914095703125,-0.010221625976562499,0.9999909326171875
-0.27272597656249997,-0.01781942626953125,0.9193794873046874
-0.2756437109375,0.0765403515625,0.9685328076171875
-0.21121041015625,-0.0376717431640625,0.9449392138671875
-0.33570041015625,0.07188363525390624,0.93732044921875
-0.14264365234375,0.00766996826171875,0.973202373046875
-0.2221519140625,0.0044837939453125,0.993846767578125
-0.31284482421875,0.10374537841796876,1.149171259765625
-0.2085358203125,0.06158984130859375,1.1007552392578126
-0.2581373046875,0.0750698095703125,0.9960586669921875
-0.304334765625,0.0446786083984375,0.9795923046875
-0.28196546875,0.0535018603515625,1.020389560546875
-0.20975154296875,0.01159141357421875,0.993355234375
-0.35344996093750003,-0.01046671630859375,0.906845390625
-0.2513292578125,0.0008074389648437498,0.8775991650390624
-0.1744955859375,0.05668803466796875,0.8628531689453125
-0.26227076171875,-0.00213364501953125,0.922082919921875
-0.2805066015625,0.059874208984374996,1.031203291015625
-0.25400384765625,0.09247122314453125,1.042017021484375
-0.2299325390625,0.0809519775390625,0.993846767578125
-0.2688356640625,0.0721287255859375,0.956490244140625
-0.2454937890625,0.050070595703125,0.96681244140625
-0.2377131640625,0.073599267578125,1.0103131298828125
-0.2800203125,-0.01095689697265625,0.9872110693359375
-0.2644590625,0.06796218994140625,1.03169482421875
-0.21169669921875,0.012816865234374999,1.0053977978515625
-0.33667298828125003,0.057668395996093746,0.9847534033203125
-0.21607330078125,0.0976181201171875,1.013508095703125
-0.20026890625,0.06673673828125,0.9650920751953125
-0.27199654296875,0.02580665283203125,0.954032578125
-0.2202067578125,0.09345158447265625,1.0619241162109374
-0.23844259765625,0.0289928271484375,0.9837703369140625
-0.30117388671875,0.0137972265625,0.9542783447265625
-0.19248828125,0.03144373046875,1.032186357421875
-0.23747001953125,0.07972652587890625,1.0108046630859375
-0.2561921484375,0.01649322021484375,0.9016842919921875
-0.24768208984375,0.08560869384765625,0.9670582080078125
-0.24938410156250002,0.00276816162109375,0.9397781152343749
-0.27734572265625,0.069677822265625,0.965337841796875
-0.20537494140625,0.0535018603515625,1.0270252587890625
-0.30020130859375,-0.00213364501953125,0.954032578125
-0.22044990234375,0.0740894482421875,0.9429730810546875
-0.21899103515625,0.011346323242187501,0.913235322265625
-0.22336763671875,0.021885207519531248,0.961897109375
-0.18689595703125,0.0515411376953125,1.00810123046875
-0.20051205078125,0.0535018603515625,1.0658563818359374
-0.2795340234375,0.0946770361328125,1.077407412109375
-0.31478998046875,0.024581201171875,1.0712632470703125
-0.29047552734375,0.08217742919921875,1.0530765185546875
-0.27540056640625,0.0427178857421875,1.000728232421875
-0.3067662109375,0.0003172583007812497,0.9429730810546875
-0.14653396484375,0.053992041015625,0.93928658203125
-0.24038775390625,0.06158984130859375,0.9591936767578125
-0.27831830078124997,0.0137972265625,0.9324051171875
-0.253760703125,0.06894255126953125,0.9245405859375
-0.20026890625,0.08953013916015624,0.930438984375
-0.24427806640625,0.0613447509765625,0.91569298828125
-0.28609892578125,0.048109873046875,0.9213456201171875
-0.2600824609375,0.0789912548828125,0.9857364697265625
-0.34032015625,0.01992448486328125,0.9439561474609375
-0.302389609375,0.0721287255859375,1.0171945947265626
-0.2620276171875,0.06624655761718751,0.98450763671875
-0.29387955078125,0.08462833251953125,0.9940925341796875
-0.27345541015625,0.09492212646484376,1.001711298828125
-0.3855450390625,0.0299731884765625,0.9402696484374999
-0.1788721875,0.09394176513671874,0.97860923828125
-0.33132380859375,0.11256863037109376,0.951574912109375
-0.25254498046875,0.019434304199218752,0.93142205078125
-0.22628537109375,0.06453092529296875,0.8930824609375
-0.1842213671875,0.022620478515625,0.8884128955078126
-0.2299325390625,-0.02125069091796875,0.8761245654296875
-0.2474389453125,-0.012672529296875,0.935845849609375
-0.19078626953125,0.09345158447265625,1.0029401318359374
-0.25643529296875,0.0162481298828125,1.007609697265625
-0.2289599609375,0.011346323242187501,1.079373544921875
-0.28172232421875,0.081442158203125,1.0825685107421874
-0.25473328125,0.0750698095703125,1.041033955078125
-0.29631099609375,0.02752228515625,0.973202373046875
-0.24379177734375002,0.0711483642578125,0.990897568359375
-0.26081189453125,0.091245771484375,0.96877857421875
-0.213885,0.00276816162109375,0.924049052734375
-0.2488978125,0.12580350830078124,0.9709904736328125
-0.1550440234375,-0.037916833496093746,0.983033037109375
-0.24938410156250002,0.05325677001953125,0.9572275439453125
-0.257651015625,0.0515411376953125,1.0004824658203124
-0.2503566796875,0.0211499365234375,1.0633987158203124
-0.30409162109375,0.08242251953125,1.0427543212890624
-0.26251390625,0.01159141357421875,1.000728232421875
-0.25643529296875,0.06453092529296875,1.042017021484375
-0.27613,0.0966377587890625,1.0343982568359376
-0.24670951171875,0.04541387939453125,1.00515203125
-0.2970404296875,0.04786478271484375,0.9626344091796875
-0.28318119140625,0.064776015625,0.9149556884765625
-0.181789921875,0.0505607763671875,0.923065986328125
-0.30141703125,0.009140510253906251,0.8884128955078126
-0.2240970703125,0.04933532470703125,0.9272440185546875
-0.25303126953125,-0.0033590966796874996,0.9473968798828125
-0.2532744140625,0.03119864013671875,1.0083469970703125
-0.220693046875,-0.0006631030273437505,1.00023669921875
-0.25473328125,0.07972652587890625,1.0348897900390626
-0.2202067578125,0.13340130859375,1.0609410498046874
-0.30166017578125,0.022620478515625,0.9778719384765625
-0.29242068359375,0.09149086181640625,0.9891772021484375
-0.1958923046875,0.1035002880859375,0.988931435546875
-0.25157240234375,0.0515411376953125,0.9154472216796875
-0.2795340234375,0.03561026611328125,0.9717277734375
-0.205131796875,0.08021670654296875,1.028745625
-0.2644590625,0.0584036669921875,0.9945840673828125
-0.29096181640625,0.05276658935546875,0.9513291455078126
-0.16598552734375,0.08511851318359374,0.9724650732421874
-0.18543708984375,0.030463369140625002,0.9346170166015625
-0.28026345703125,0.0486000537109375,0.978117705078125
-0.247925234375,0.0270321044921875,1.0584833837890626
-0.23309341796875,0.14345001220703124,1.0368559228515626
-0.26640421875,0.02727719482421875,1.0240760595703124
-0.29922873046875,0.0750698095703125,1.088221142578125
-0.22823052734375,0.0691876416015625,0.9992536328125
-0.2678630859375,0.01306195556640625,0.8889044287109376
-0.16525609375,0.06551128662109375,0.8825144970703125
-0.22944625,0.03462990478515625,0.8943112939453125
-0.2231244921875,0.012816865234374999,0.976151572265625
-0.2698082421875,0.02286556884765625,1.0162115283203126
-0.30652306640625,0.01575794921875,0.9704989404296875
-0.1827625,0.08070688720703124,0.933879716796875
-0.237226875,0.09002031982421875,0.9985163330078125
-0.2279873828125,0.08266760986328126,1.0280083251953125
-0.31746457031249997,0.09982393310546875,1.0987891064453126
-0.27394169921875,0.10521592041015625,1.16244265625
-0.27272597656249997,0.04247279541015625,0.9803296044921875
-0.2464663671875,0.11354899169921875,1.0019570654296874
-0.2411171875,0.02360083984375,0.9316678173828125
-0.253760703125,0.081442158203125,0.94911724609375
-0.2172890234375,0.059874208984374996,1.01006736328125
-0.28853037109375,0.0123266845703125,0.9704989404296875
-0.17960162109375,0.0750698095703125,1.0427543212890624
-0.24865466796875,0.0476196923828125,1.013508095703125
-0.2532744140625,0.06600146728515625,0.98843990234375
-0.18592337890625,0.0917359521484375,0.9768888720703125
-0.34542619140624997,0.0740894482421875,0.96288017578125
-0.237226875,0.024581201171875,0.9717277734375
-0.25084296875,0.0878145068359375,0.985490703125
-0.27540056640625,0.07531489990234375,1.0412797216796874
-0.24670951171875,0.06894255126953125,0.9822957373046874
-0.25643529296875,0.09737302978515625,0.9523122119140625
-0.33861814453125,0.06355056396484375,0.98450763671875
-0.22288134765625,0.07874616455078125,0.9567360107421875
-0.25254498046875,0.053992041015625,0.8930824609375
-0.187625390625,0.05889384765625,0.923065986328125
-0.2396583203125,0.06673673828125,0.9591936767578125
-0.292663828125,0.010611052246093749,0.954524111328125
-0.218747890625,0.08634396484375,1.0496357861328125
-0.2610550390625,0.07874616455078125,1.028745625
-0.2698082421875,0.0740894482421875,1.00023669921875
-0.2416034765625,0.06281529296875,1.047915419921875
-0.28658521484375,0.07261890625,1.0373474560546876
-0.23163455078125,0.0603643896484375,1.004660498046875
-0.2707808203125,0.04786478271484375,0.956490244140625
-0.19029998046875,0.02580665283203125,0.88620099609375
-0.25303126953125,0.04149243408203125,0.867522734375
-0.17327986328125,0.122617333984375,0.9847534033203125
-0.24622322265625,0.018699033203125,0.9700074072265625
-0.31697828125,0.12188206298828125,1.0378389892578126
-0.1890842578125,0.0917359521484375,1.0267794921875
-0.2620276171875,0.05619785400390625,0.9129895556640625
-0.2255559375,0.0887948681640625,0.9795923046875
-0.25789416015625,0.01404231689453125,0.9960586669921875
-0.304334765625,0.02237538818359375,0.9744312060546875
-0.22579908203125,0.0848734228515625,1.0132623291015626
-0.255705859375,0.02923791748046875,1.0112961962890625
-0.23917203125,0.103010107421875,1.0235845263671874
-0.218747890625,0.044188427734375,0.99040603515625
-0.30020130859375,0.07874616455078125,0.9980247998046875
-0.20877896484375,0.132420947265625,1.0049062646484375
-0.2416034765625,0.05325677001953125,0.9395323486328125
-0.22968939453125,0.05913893798828125,0.977134638671875
-0.21510072265625,0.04835496337890625,0.981066904296875
-0.25084296875,0.02972809814453125,0.9297016845703125
-0.24962724609375,0.09247122314453125,0.985982236328125
-0.26470220703125,0.07850107421875,0.9803296044921875
-0.349073359375,0.01012087158203125,0.9363373828125
-0.19808060546875,0.08462833251953125,0.9999909326171875
-0.2464663671875,0.112813720703125,1.0122792626953125
-0.20975154296875,0.04149243408203125,0.9965502001953125
-0.19564916015625,0.08364797119140625,1.048898486328125
-0.19127255859375,0.0201695751953125,1.0663479150390625
-0.24865466796875,0.08364797119140625,1.0004824658203124
-0.21583015625000002,-0.02027032958984375,0.9277355517578125
-0.21121041015625,0.079481435546875,0.9714820068359376
-0.22823052734375,0.06109966064453125,0.95304951171875
-0.2484115234375,0.0358553564453125,0.9999909326171875
-0.2600824609375,0.10815700439453126,1.0437373876953124
-0.26640421875,0.1113431787109375,1.0388220556640624
-0.24476435546875,0.062080021972656246,0.958456376953125
-0.1939471484375,0.0427178857421875,0.9370746826171875
-0.25789416015625,0.032424091796875,0.946659580078125
-0.203186640625,0.06796218994140625,1.03661015625
-0.29728357421875,0.0682072802734375,0.991880634765625
-0.2474389453125,0.06649164794921875,1.00613509765625
-0.279047734375,0.075559990234375,0.993846767578125
-0.29096181640625,0.07188363525390624,1.014491162109375
-0.317950859375,0.00865032958984375,0.9798380712890625
-0.22750109375,0.0535018603515625,1.000728232421875
-0.2542469921875,0.0387964404296875,0.94125271484375
-0.21850474609375,0.032424091796875,0.9100403564453124
-0.2007551953125,0.0373258984375,0.909303056640625
-0.27272597656249997,0.06649164794921875,0.9813126708984374
-0.2333365625,0.07065818359375,1.000728232421875
-0.30263275390625,0.06698182861328125,1.0088385302734375
-0.25692158203125,0.10227483642578125,1.0663479150390625
-0.25862359375,0.06649164794921875,1.0228472265625
-0.24938410156250002,0.10227483642578125,1.05233921875
-0.18227621093750002,0.0338946337890625,1.0071181640625
-0.35806970703125,0.09688284912109375,0.9365831494140625
-0.21607330078125,0.044188427734375,0.9577190771484375
-0.24695265625,0.12433296630859375,0.9798380712890625
-0.29290697265625,-0.02223105224609375,0.9272440185546875
-0.24768208984375,0.08658905517578125,0.931913583984375
-0.16501294921875,0.04835496337890625,0.946659580078125
-0.20051205078125,0.01649322021484375,0.9481341796875
-0.2172890234375,0.05276658935546875,0.9955671337890625
-0.29339326171875,0.07335417724609375,1.0584833837890626
-0.24330548828125,0.12335260498046875,0.9965502001953125
-0.26081189453125,0.05178622802734375,0.9336339501953125
-0.23503857421875,0.03855135009765625,1.0260421923828125
-0.21169669921875,0.0922261328125,1.060695283203125
-0.26664736328125,0.07629526123046874,1.0319405908203125
-0.31527626953125,0.1005592041015625,1.070525947265625
-0.26081189453125,0.12384278564453124,1.01596576171875
-0.257651015625,0.09492212646484376,0.90389619140625
-0.22044990234375,0.07678544189453125,0.8928366943359375
-0.232363984375,0.0691876416015625,0.8908705615234375
-0.12270580078125,0.04884514404296875,0.9154472216796875
-0.28853037109375,-0.01144707763671875,0.946659580078125
-0.29339326171875,0.023845930175781252,1.02088109375
-0.14750654296875,0.024581201171875,1.0265337255859375
-0.28901666015625,0.01575794921875,1.053813818359375
-0.224583359375,0.04835496337890625,1.0555341845703126
-0.25059982421875,0.05497240234375,1.0184234277343749
-0.2955815625,0.02972809814453125,0.9685328076171875
-0.310170234375,0.08658905517578125,0.9842618701171875
-0.19127255859375,0.0917359521484375,0.9881941357421875
-0.25157240234375,0.14418528320312501,1.0228472265625
-0.22701480468750002,0.132420947265625,1.03169482421875
-0.17960162109375,0.134381669921875,1.056271484375
-0.30919765625,0.04933532470703125,1.0275167919921875
-0.228473671875,0.07041309326171875,1.043983154296875
-0.197351171875,0.08119706787109375,1.010558896484375
-0.26956509765625,0.032424091796875,0.973202373046875
-0.323786328125,-0.013407800292968751,0.9975332666015625
-0.26664736328125,0.09394176513671874,1.0378389892578126
-0.27929087890625,0.07482471923828125,0.989914501953125
-0.25935302734375,0.00791505859375,0.9402696484374999
-0.19224513671875,0.08609887451171874,0.912252255859375
-0.21947732421875,0.07261890625,0.8874298291015625
-0.206104375,0.1123235400390625,0.97860923828125
-0.25789416015625,0.064776015625,0.97369390625
-0.25351755859375,0.02286556884765625,1.04152548828125
-0.23552486328125,0.096147578125,1.061678349609375
-0.23552486328125,0.06992291259765625,0.946168046875
-0.2022140625,0.049090234375,0.9191337207031249
-0.302389609375,0.01110123291015625,0.9277355517578125
-0.2941226953125,0.03217900146484375,0.996795966796875
-0.2328502734375,0.0770305322265625,1.004660498046875
-0.28391062499999997,0.063795654296875,0.9818042041015624
-0.1949197265625,0.08413815185546875,0.9395323486328125
-0.25838044921875,0.02923791748046875,0.9238032861328125
-0.205131796875,0.12188206298828125,1.0294829248046875
-0.15577345703125,0.0819323388671875,0.9115149560546875
-0.310170234375,0.03708080810546875,0.926015185546875
-0.1477496875,0.07188363525390624,1.0385762890625
-0.21607330078125,0.057913486328125,0.917167587890625
-0.2775888671875,0.05276658935546875,1.0078554638671875
-0.2056180859375,0.0848734228515625,1.0594664501953126
-0.26907880859375,-0.0011532836914062497,0.989914501953125
-0.36293259765625,0.1897720849609375,1.127543798828125
-0.257651015625,0.06551128662109375,1.03169482421875
-0.26372962890625,0.0535018603515625,0.94321884765625
-0.34931650390625,0.1417343798828125,1.039067822265625
-0.20683380859375,0.0799716162109375,0.95108337890625
-0.232363984375,0.05325677001953125,0.7984623193359375
-0.1861665234375,0.06845237060546874,0.862115869140625
-0.1851939453125,0.00178780029296875,0.8102591162109375
-0.2488978125,0.044188427734375,0.878827998046875
-0.22579908203125,0.0030132519531249997,1.0530765185546875
-0.263486484375,-0.06046514404296875,1.003677431640625
-0.27831830078124997,0.0486000537109375,1.0599579833984376
-0.23795630859375,0.0966377587890625,1.07101748046875
-0.30530734375,0.07286399658203124,0.9223286865234375
-0.2474389453125,0.101049384765625,0.9407611816406249
-0.195406015625,0.161831787109375,1.0127707958984375
-0.22725794921875,0.04590406005859375,0.997779033203125
-0.23114826171875,0.13021513427734374,1.0737209130859375
-0.27880458984375,0.1079119140625,1.0614325830078124
-0.25473328125,0.024091020507812498,0.9913891015625
-0.152612578125,0.04737460205078125,0.9454307470703125
-0.290718671875,-0.0739451123046875,0.874895732421875
-0.152612578125,0.0593840283203125,0.9572275439453125
-0.10325423828125,0.152028173828125,0.9818042041015624
-0.30360533203125,-0.07051384765625,1.0280083251953125
-0.2396583203125,0.16673359375,1.3194875146484375
-0.37654869140625,0.099088662109375,1.2253589062499999
-0.3933256640625,-0.0180645166015625,1.128526865234375
-0.27442798828125,0.1838899169921875,1.124594599609375
-0.249870390625,0.0211499365234375,1.0275167919921875
-0.37022693359375003,0.050070595703125,1.067576748046875
-0.22336763671875,0.05472731201171875,1.072000546875
-0.25254498046875,0.02090484619140625,0.9739396728515625
-0.32354318359375,0.00717978759765625,0.938795048828125
-0.22774423828125,0.021885207519531248,0.8879213623046875
-0.1667149609375,0.0123266845703125,0.76233462890625
-0.27345541015625,0.0515411376953125,0.76036849609375
-0.185680234375,0.11943115966796874,0.8891501953125
-0.29363640625,0.1652630517578125,0.886692529296875
-0.30798193359375,0.06281529296875,0.9621428759765625
-0.22434021484375,0.1338914892578125,1.010558896484375
-0.24184662109375,0.18658591064453126,0.839505341796875
-0.20877896484375,0.08217742919921875,0.868014267578125
-0.210967265625,0.0701680029296875,1.039067822265625
-0.26227076171875,0.07065818359375,1.127543798828125
-0.2960678515625,0.0123266845703125,1.1526119921875
-0.30603677734375,0.0584036669921875,1.1351625634765625
-0.2095083984375,0.04149243408203125,0.974185439453125
-0.26178447265625,0.09149086181640625,0.941744248046875
-0.121490078125,0.018699033203125,0.9744312060546875
-0.3417790234375,0.04737460205078125,0.956490244140625
-0.19905318359375002,0.05325677001953125,0.955507177734375
-0.18251935546875,0.0652661962890625,0.9036504248046875
-0.218747890625,0.05815857666015625,0.9009469921875
-0.26081189453125,0.03462990478515625,0.968287041015625
-0.29290697265625,0.10619628173828125,1.047915419921875
-0.17133470703125,0.099088662109375,1.001219765625
-0.38384302734375,0.010611052246093749,0.937811982421875
-0.2571647265625,0.0780108935546875,1.0899415087890625
-0.21655958984375,0.15692998046875,0.98450763671875
-0.35077537109375,-0.00948635498046875,0.8557259375
-0.16209521484375,0.22972180908203124,0.972219306640625
-0.1073876953125,-0.03448556884765625,0.84687833984375
-0.27515742187500003,0.11771552734375,0.9021758251953125
-0.13875333984375,0.08560869384765625,0.9097945898437501
-0.19856689453125,-0.06291604736328126,0.9616513427734374
-0.29339326171875,0.093206494140625,1.0388220556640624
-0.25449013671875,0.02041466552734375,1.043000087890625
-0.26056875,0.03536517578125,0.9503460791015625
-0.23795630859375,0.1613416064453125,0.985490703125
-0.221665625,0.0270321044921875,1.0982975732421876
-0.2843969140625,0.03364954345703125,1.11623853515625
-0.370470078125,0.093206494140625,1.1041959716796874
-0.21583015625000002,0.02090484619140625,1.00023669921875
-0.19370400390625,0.07237381591796875,0.8697346337890625
-0.1735230078125,0.06992291259765625,0.8576920703124999
-0.18981369140625,0.13021513427734374,0.9778719384765625
-0.17084841796875,0.04982550537109375,0.95501564453125
-0.273212265625,0.112813720703125,0.905370791015625
-0.27199654296875,0.0691876416015625,0.9473968798828125
-0.209022109375,0.148106728515625,1.040050888671875
-0.3252451953125,-0.036201201171875,0.927981318359375
-0.265431640625,0.17139031005859376,1.0820769775390624
-0.2785614453125,0.0231106591796875,0.986965302734375
-0.34202216796875,0.01796376220703125,0.9301932177734376
-0.1803310546875,0.09418685546875,1.0068723974609375
-0.18397822265625,0.06747200927734374,0.9587021435546875
-0.222638203125,-0.01634888427734375,0.9532952783203125
-0.299471875,0.083402880859375,0.9614055761718749
-0.18203306640625,0.03315936279296875,0.922082919921875
-0.22288134765625,0.081442158203125,0.906353857421875
-0.1783858984375,0.0172284912109375,0.9577190771484375
-0.3505322265625,0.018699033203125,0.9097945898437501
-0.05948822265625,0.13462676025390624,0.9670582080078125
-0.34883021484375,0.07433453857421875,0.87243806640625
-0.25546271484375,0.14516564453125,1.0149826953125
-0.33983386718749997,0.04124734375,1.100017939453125
-0.3923530859375,0.18119392333984374,1.0973145068359376
-0.18738224609375,0.14884199951171875,0.8938197607421875
-0.1482359765625,0.18952699462890624,0.961897109375
-0.33132380859375,0.0623251123046875,0.991880634765625
-0.30944080078125,0.07457962890625,1.0309575244140625
-0.19662173828125,0.14492055419921876,0.924049052734375
-0.17814275390625,0.09026541015625,0.8490902392578125
-0.23649744140625,0.015022678222656249,0.89013326171875
-0.2552195703125,0.08953013916015624,1.0157199951171876
-0.23260712890625002,0.11771552734375,1.0543053515625
-0.32889236328125,0.13756784423828125,0.97074470703125
-0.1832487890625,0.10031411376953125,0.957473310546875
-0.18251935546875,-0.05458297607421875,1.0555341845703126
-0.3660934765625,-0.010711806640625,1.0938737744140625
-0.23260712890625002,0.13903838623046874,1.024813359375
-0.255705859375,0.05129604736328125,0.871455
-0.3267040625,0.052031318359375,0.851793671875
-0.10106593750000001,0.18756627197265624,0.9677955078125
-0.269321953125,0.05031568603515625,1.0137538623046876
-0.27442798828125,0.03806116943359375,0.98843990234375
-0.10033650390625,0.161831787109375,0.9734481396484375
-0.27005138671875,0.0544822216796875,0.8063268505859374
-0.1633109375,0.0740894482421875,0.85867513671875
-0.18689595703125,0.09296140380859375,0.9906518017578125
-0.3033621875,0.07776580322265625,1.1007552392578126
-0.28318119140625,0.1211467919921875,1.02088109375
-0.18786853515625002,0.069677822265625,0.9719735400390626
-0.2892598046875,0.1387932958984375,0.97271083984375
-0.19953947265625,0.152028173828125,1.058729150390625
-0.24719580078125,0.116735166015625,1.042017021484375
-0.29874244140625,0.1240878759765625,0.9891772021484375
-0.17182099609375,0.1427147412109375,0.9206083203125
-0.18300564453125,0.0012976196289062499,0.84491220703125
-0.25303126953125,0.13021513427734374,0.92748978515625
-0.168173828125,0.07286399658203124,0.8992266259765624
-0.25084296875,0.04639424072265625,0.97369390625
-0.32889236328125,0.055952763671875,0.9665666748046875
-0.19419029296875,0.02139502685546875,0.8908705615234375
-0.19953947265625,0.09541230712890625,0.83114927734375
-0.228473671875,0.0936966748046875,0.8102591162109375
-0.088422421875,0.1280093212890625,0.9075826904296875
-0.25351755859375,-0.0332601171875,0.932896650390625
-0.259596171875,0.08634396484375,1.1017383056640626
-0.2678630859375,0.10864718505859375,1.0643817822265624
-0.24184662109375,0.056933125,1.0874838427734375
-0.207076953125,0.18952699462890624,1.0747039794921875
-0.2989855859375,0.152028173828125,0.9139726220703125
-0.1355924609375,0.1172253466796875,0.9351085498046875
-0.29631099609375,0.22874144775390626,0.9503460791015625
-0.3408064453125,0.18952699462890624,0.964354775390625
-0.15334201171875,0.04124734375,0.950591845703125
-0.2513292578125,0.1672237744140625,0.999745166015625
-0.277102578125,0.05178622802734375,0.985490703125
-0.23455228515625,0.069677822265625,0.9795923046875
-0.2095083984375,0.1574201611328125,1.0024485986328124
-0.25205869140625,0.08805959716796875,1.087238076171875
-0.3262177734375,0.12874459228515625,1.11623853515625
-0.34639876953125,0.101049384765625,0.9852449365234375
-0.23309341796875,0.16673359375,1.057746083984375
-0.249870390625,0.07825598388671876,0.9498545458984375
-0.36487775390625,0.1280093212890625,0.9734481396484375
-0.19953947265625,0.1015395654296875,1.0171945947265626
-0.24184662109375,0.159871064453125,0.9677955078125
-0.33108066406250003,0.101049384765625,0.9700074072265625
-0.19759431640625,0.05325677001953125,1.0078554638671875
-0.26640421875,0.0608545703125,0.9242948193359375
-0.2688356640625,0.0858537841796875,0.9532952783203125
-0.28609892578125,0.038306259765625,0.91372685546875
-0.1764407421875,0.04590406005859375,0.92748978515625
-0.32791978515625,0.011346323242187501,0.9429730810546875
-0.3067662109375,0.040266982421875,1.028254091796875
-0.162338359375,0.0133070458984375,0.903404658203125
-0.212912421875,0.0407571630859375,0.84687833984375
-0.226528515625,0.16011615478515626,0.9183964208984375
-0.20440236328125,0.11305881103515625,0.9385492822265625
-0.28634207031250003,0.15080272216796875,0.9886856689453125
-0.203186640625,0.13266603759765624,1.0343982568359376
-0.2552195703125,0.10717664306640624,0.9321593505859375
-0.220693046875,0.15325362548828125,0.9754142724609375
-0.315033125,0.0740894482421875,0.946168046875
-0.16015005859375,0.14639109619140625,0.9213456201171875
-0.3096839453125,0.07090327392578125,0.9407611816406249
-0.33229638671875,0.0780108935546875,0.969761640625
-0.201241484375,0.10962754638671875,0.899472392578125
-0.15674603515625,-0.01046671630859375,0.875387265625
-0.21121041015625,0.10080429443359375,1.056763017578125
-0.22361078125,-0.07443529296875,0.9815584374999999
-0.23114826171875,0.0417375244140625,0.954524111328125
-0.3057936328125,0.15031254150390624,0.9191337207031249
-0.32354318359375,0.00668960693359375,0.870963466796875
-0.2250696484375,0.20129133056640625,0.9257694189453125
-0.29485212890625,0.21501638916015625,0.94911724609375
-0.1511537109375,0.12286242431640625,0.9528037451171875
-0.16404037109375,0.15080272216796875,1.0884669091796875
-0.29339326171875,0.09345158447265625,1.14671359375
-0.26664736328125,0.06109966064453125,1.0938737744140625
-0.1958923046875,0.214771298828125,0.9756600390625
-0.2912049609375,0.087324326171875,0.89504859375
-0.29582470703125,0.13707766357421874,0.949608779296875
-0.28391062499999997,0.12433296630859375,0.9677955078125
-0.20537494140625,0.17580193603515626,1.1361456298828125
-0.29582470703125,0.18021356201171876,1.09854333984375
-0.26859251953125,0.11649007568359375,1.1041959716796874
-0.1103054296875,0.08462833251953125,1.109848603515625
-0.42080099609375,0.0829127001953125,1.1135351025390625
-0.18738224609375,0.10423555908203125,1.09264494140625
-0.2591098828125,0.08609887451171874,1.0171945947265626
-0.31868029296875,0.15521434814453125,1.0520934521484375
-0.21218298828125,0.09026541015625,1.0700344140625
-0.181789921875,0.0005623486328125002,0.9975332666015625
-0.3320532421875,0.024091020507812498,1.069542880859375
-0.21558701171875,0.10619628173828125,1.0570087841796876
-0.3301080859375,0.0868341455078125,0.8569547705078124
-0.146777109375,0.016738310546875,0.840488408203125
-0.2202067578125,0.10374537841796876,0.95304951171875
-0.30068759765624997,0.021640117187500002,0.9685328076171875
-0.19370400390625,0.0593840283203125,1.119187734375
-0.2843969140625,0.0711483642578125,1.1607222900390626
-0.2800203125,0.0289928271484375,1.14376439453125
-0.24233291015625,0.03928662109375,1.065610615234375
-0.21583015625000002,0.0250713818359375,0.9650920751953125
-0.13875333984375,0.01159141357421875,1.0511103857421875
-0.2357680078125,0.0466393310546875,1.003677431640625
-0.19175884765625,0.06453092529296875,1.1211538671875
-0.4156949609375,0.13805802490234376,1.2029941455078126
-0.387976484375,0.1456558251953125,1.086255009765625
-0.26178447265625,0.10987263671875,0.9872110693359375
-0.32013916015625,0.1652630517578125,0.8879213623046875
-0.10519939453125,0.17776265869140626,0.8422087744140625
-0.201241484375,0.1289896826171875,0.8741584326171875
-0.294608984375,0.14516564453125,0.92159138671875
-0.33326896484375,0.161831787109375,0.8997181591796874
-0.3057936328125,0.0584036669921875,0.9051250244140625
-0.3072525,0.0015427099609375003,0.9206083203125
-0.21704587890625,0.01453249755859375,0.84786140625
-0.25303126953125,0.07825598388671876,0.8984893261718749
-0.3524773828125,0.06992291259765625,0.90782845703125
-0.3826273046875,0.17727247802734375,0.8372934423828124
-0.1813036328125,0.2270258154296875,0.8309035107421875
-0.07359060546875,0.20178151123046875,0.8844806298828125
-0.09498732421875,0.11894097900390625,0.9638632421875
-0.28634207031250003,0.05668803466796875,1.1602307568359376
-0.3164919921875,-0.060710234375,1.1661291552734374
-0.35758341796875,0.02041466552734375,1.1174673681640626
-0.3067662109375,0.04394333740234375,1.0304659912109375
-0.25400384765625,0.0025230712890624996,0.980083837890625
-0.16695810546875,0.0069346972656249995,0.8567090039062499
-0.23139140625,-0.0455146337890625,0.8176321142578125
-0.2027003515625,-0.045024453125,0.9402696484374999
-0.3524773828125,-0.015368522949218751,0.9572275439453125
-0.1686601171875,-0.00409436767578125,0.9631259423828125
-0.1472633984375,0.08364797119140625,0.8928366943359375
-0.29728357421875,0.10472573974609375,0.9559987109375
-0.156502890625,0.09541230712890625,1.0189149609375
-0.36244630859375,0.16011615478515626,1.0417712548828124
-0.3563676953125,0.13854820556640626,1.084288876953125
-0.24476435546875,0.12188206298828125,1.0599579833984376
-0.242089765625,0.09639266845703125,1.088221142578125
-0.34348103515625,0.0466393310546875,1.0712632470703125
-0.222638203125,0.1549692578125,1.044966220703125
-0.28391062499999997,0.11256863037109376,0.9567360107421875
-0.40037685546875,0.08756941650390625,0.977626171875
-0.23552486328125,0.1476165478515625,1.0034316650390624
-0.29096181640625,0.03953171142578125,0.9473968798828125
-0.2571647265625,0.0946770361328125,0.9183964208984375
-0.16938955078125,0.1142842626953125,0.849336005859375
-0.23552486328125,0.04712951171875,0.8938197607421875
-0.26470220703125,0.11354899169921875,1.04742388671875
-0.26616107421875,0.13413657958984376,1.1272980322265624
-0.280992890625,0.08560869384765625,1.1730106201171875
-0.3767918359375,0.099088662109375,1.1749767529296875
-0.1793584765625,0.0829127001953125,1.0402966552734374
-0.26713365234374997,0.07678544189453125,0.9638632421875
-0.389921640625,0.0613447509765625,0.94911724609375
-0.252788125,0.08707923583984375,0.9498545458984375
-0.290718671875,0.059874208984374996,0.8105048828125
-0.19273142578125,0.0574233056640625,0.75840236328125
-0.02593427734375,-0.0141430712890625,0.7456225
-0.12173322265625,-0.06095532470703125,0.9115149560546875
-0.31138595703125,-0.04330882080078125,1.1022298388671874
-0.27199654296875,0.0525214990234375,1.2958939208984375
-0.34032015625,-0.01732924560546875,1.26173236328125
-0.2722396875,0.0878145068359375,1.060695283203125
-0.21412814453125,0.09688284912109375,0.942727314453125
-0.27029453125,0.08413815185546875,0.840488408203125
-0.23260712890625002,0.148106728515625,0.8849721630859375
-0.30457791015625,0.17972338134765625,1.0727378466796875
-0.38043900390625,0.0897752294921875,1.0540595849609375
-0.22531279296875,0.053992041015625,1.07691587890625
-0.22701480468750002,0.08168724853515624,0.99040603515625
-0.2445212109375,0.05962911865234375,0.9591936767578125
-0.2172890234375,0.04541387939453125,0.929947451171875
-0.2260422265625,0.0250713818359375,0.856217470703125
-0.2571647265625,0.052031318359375,0.9080742236328125
-0.2250696484375,0.057668395996093746,0.9913891015625
-0.2299325390625,0.03462990478515625,0.99433830078125
-0.25400384765625,0.0799716162109375,0.963371708984375
-0.2785614453125,0.10521592041015625,1.001219765625
-0.2766162890625,0.009140510253906251,0.9795923046875
-0.279047734375,0.0848734228515625,0.9552614111328125
-0.22385392578125,0.10178465576171875,0.955507177734375
-0.2153438671875,0.019434304199218752,0.851302138671875
-0.2036729296875,0.10668646240234375,0.917167587890625
-0.252788125,-0.0141430712890625,0.987948369140625
-0.25108611328125,0.0760501708984375,1.0560257177734376
-0.2878009375,0.095167216796875,0.9886856689453125
-0.3019033203125,0.0044837939453125,0.9036504248046875
-0.20537494140625,0.1054610107421875,0.872929599609375
-0.22920310546875,0.08119706787109375,0.8574463037109374
-0.268349375,0.120656611328125,1.000728232421875
-0.29922873046875,0.03364954345703125,0.9252778857421875
-0.28269490234375,0.17482157470703125,0.9695158740234375
-0.30992708984375,0.11305881103515625,0.9601767431640625
-0.1988100390625,0.0843832421875,0.9587021435546875
-0.3048210546875,0.13609730224609376,1.0112961962890625
-0.26518849609375,0.012816865234374999,1.028745625
-0.28415376953125,0.0765403515625,0.9473968798828125
-0.22336763671875,0.02531647216796875,0.89406552734375
-0.26956509765625,0.0329142724609375,0.84786140625
-0.1608794921875,0.0123266845703125,0.8200897802734375
-0.25497642578125,0.0652661962890625,0.90782845703125
-0.30214646484375,0.02752228515625,0.979100771484375
-0.230418828125,0.06257020263671875,1.0044147314453125
-0.317950859375,0.14148928955078124,1.016948828125
-0.2425760546875,0.1084020947265625,1.02776255859375
-0.2240970703125,0.0505607763671875,0.965337841796875
-0.30798193359375,0.0348749951171875,0.85474287109375
-0.117599765625,0.05325677001953125,0.884726396484375
-0.22044990234375,0.03119864013671875,0.83114927734375
-0.26859251953125,-0.01830960693359375,0.964354775390625
-0.2299325390625,0.0672269189453125,1.0781447119140626
-0.294608984375,0.06845237060546874,1.04742388671875
-0.28561263671875,0.06060947998046875,1.033169423828125
-0.28974609375,0.05105095703125,0.98450763671875
-0.245980078125,0.07874616455078125,0.966320908203125
-0.25108611328125,0.0809519775390625,0.9734481396484375
-0.28609892578125,0.13021513427734374,1.0098215966796875
-0.2425760546875,0.053992041015625,0.9360916162109375
-0.36463460937500003,0.1280093212890625,0.92945591796875
-0.230418828125,0.06649164794921875,0.946168046875
-0.247925234375,0.01404231689453125,0.8343442431640625
-0.23990146484375,0.09247122314453125,0.928964384765625
-0.22093619140625,0.04051207275390625,0.97467697265625
-0.3262177734375,0.04443351806640625,0.9638632421875
-0.23260712890625002,0.077520712890625,1.0044147314453125
-0.30020130859375,0.03266918212890625,0.986965302734375
-0.1715778515625,0.07850107421875,1.0348897900390626
-0.33278267578125,0.0623251123046875,0.9557529443359375
-0.2328502734375,0.111833359375,0.992863701171875
-0.2065906640625,0.09247122314453125,0.9835245703125
-0.31527626953125,0.1152646240234375,1.0314490576171875
-0.214857578125,0.09737302978515625,1.0919076416015625
-0.24184662109375,0.0843832421875,1.0491442529296875
-0.2678630859375,0.04688442138671875,1.0063808642578125
-0.312115390625,0.071638544921875,0.98843990234375
-0.18859796875,-0.004829638671875,0.9085657568359375
-0.1754681640625,0.017718671875,0.955507177734375
-0.30068759765624997,0.11943115966796874,1.1258234326171874
-0.2912049609375,-0.035711020507812496,1.0914161083984375
-0.23601115234375,0.1044806494140625,1.06511908203125
-0.27272597656249997,0.0642858349609375,0.969270107421875
-0.25643529296875,0.02874773681640625,0.950591845703125
-0.2260422265625,0.09418685546875,0.934862783203125
-0.22968939453125,0.01992448486328125,0.9559987109375
-0.23892888671875,0.016738310546875,0.9360916162109375
-0.27783201171875,0.0486000537109375,1.0353813232421876
-0.2644590625,0.050070595703125,1.09461107421875
-0.3077387890625,0.08903995849609375,1.0196522607421874
-0.30263275390625,0.05325677001953125,0.9886856689453125
-0.16549923828125,0.06845237060546874,1.0260421923828125
-0.2882872265625,0.04124734375,0.9842618701171875
-0.23698373046875,0.02874773681640625,1.1120605029296875
-0.36341888671875,0.1309504052734375,1.1105859033203125
-0.22628537109375,0.03928662109375,1.0407881884765624
-0.26810623046875,0.09149086181640625,0.9528037451171875
-0.28561263671875,-0.008751083984375,0.9469053466796875
-0.22336763671875,0.08315779052734375,1.08478041015625
-0.253760703125,0.06306038330078124,1.1184504345703126
-0.2853694921875,0.0623251123046875,1.0857634765625
-0.3301080859375,0.0686974609375,0.9601767431640625
-0.1735230078125,0.04296297607421875,0.89799779296875
-0.268349375,0.02286556884765625,0.812962548828125
-0.1881116796875,0.02727719482421875,0.86850580078125
-0.249870390625,0.0436982470703125,0.9439561474609375
-0.280992890625,0.02972809814453125,0.9419900146484375
-0.24136033203125,0.0682072802734375,0.9537868115234375
-0.24184662109375,0.04884514404296875,0.9852449365234375
-0.28074974609375003,0.122617333984375,0.9815584374999999
-0.21461443359375,0.03855135009765625,0.9272440185546875
-0.32451576171875,0.09443194580078125,0.9606682763671874
-0.19273142578125,0.0936966748046875,1.0722463134765625
-0.25692158203125,0.09345158447265625,1.0692971142578125
-0.30068759765624997,0.00423870361328125,0.9896687353515625
-0.18884111328125,0.061834931640625,0.9400238818359374
-0.23844259765625,0.04247279541015625,0.9051250244140625
-0.22774423828125,-0.02125069091796875,0.9056165576171875
-0.27418484375,0.07629526123046874,0.9714820068359376
-0.271267109375,0.02286556884765625,1.0343982568359376
-0.24768208984375,-0.01683906494140625,0.9867195361328125
-0.23163455078125,0.0338946337890625,0.9719735400390626
-0.23844259765625,-0.0038492773437499997,0.9646005419921875
-0.27053767578125,0.07090327392578125,0.9599309765625
-0.21583015625000002,0.05031568603515625,0.9031588916015625
-0.29047552734375,0.00987578125,0.9985163330078125
-0.23892888671875,0.0701680029296875,1.055779951171875
-0.16793068359375,0.0691876416015625,0.9616513427734374
-0.23309341796875,0.081442158203125,1.0201437939453124
-0.3281629296875,0.063795654296875,1.051847685546875
-0.2240970703125,0.0451687890625,1.0053977978515625
-0.26761994140625,0.01698340087890625,0.896523193359375
-0.23455228515625,-0.01683906494140625,0.8458952734375
-0.191515703125,0.05962911865234375,0.946168046875
-0.253760703125,-0.0396324658203125,0.9759058056640625
-0.28609892578125,-0.00458454833984375,1.015474228515625
-0.2668905078125,0.0946770361328125,0.989914501953125
-0.3184371484375,0.02139502685546875,0.9567360107421875
-0.191515703125,0.15521434814453125,0.9638632421875
-0.191515703125,0.0535018603515625,0.947642646484375
-0.352963671875,0.020659755859375,1.0535680517578125
-0.23747001953125,0.143204921875,1.1061621044921874
-0.252788125,0.030463369140625002,0.91077765625
-0.3072525,0.14516564453125,0.9547698779296875
-0.19759431640625,0.01551285888671875,0.9559987109375
-0.3349709765625,0.07065818359375,0.934862783203125
-0.23503857421875,0.07678544189453125,0.9655836083984375
-0.26372962890625,0.0603643896484375,0.9877026025390625
-0.23649744140625,0.05276658935546875,0.95108337890625
-0.2503566796875,0.0397768017578125,0.9695158740234375
-0.31673513671875,0.1079119140625,1.025304892578125
-0.29242068359375,0.00227798095703125,0.8721922998046875
-0.30700935546875,0.06673673828125,0.86359046875
-0.22725794921875,0.04737460205078125,0.8943112939453125
-0.23844259765625,7.216796875000007e-05,0.931913583984375
-0.1788721875,0.08119706787109375,1.0235845263671874
-0.3038484765625,0.0584036669921875,1.05528841796875
-0.28804408203125,0.03855135009765625,1.0149826953125
-0.21583015625000002,0.0956573974609375,1.044966220703125
-0.29971501953125,-0.00458454833984375,0.98843990234375
-0.24768208984375,0.02360083984375,0.9614055761718749
-0.22482650390625,0.0456589697265625,0.91372685546875
-0.25108611328125,0.00178780029296875,0.9061080908203125
-0.17765646484375,0.0843832421875,0.94911724609375
-0.28196546875,0.07457962890625,0.987948369140625
-0.24476435546875,0.06796218994140625,1.0978060400390626
-0.25838044921875,0.0436982470703125,1.0702801806640625
-0.21193984375,0.09026541015625,1.0914161083984375
-0.27296912109375,0.0250713818359375,0.990897568359375
-0.25692158203125,-0.0121823486328125,0.9975332666015625
-0.2941226953125,0.08266760986328126,1.0346440234375
-0.25497642578125,0.0015427099609375003,0.90782845703125
-0.27442798828125,0.03561026611328125,0.9075826904296875
-0.1764407421875,0.0765403515625,1.0130165625
-0.24525064453125,-0.00213364501953125,1.0157199951171876
-0.3038484765625,0.03119864013671875,1.0348897900390626
-0.24136033203125,0.01747358154296875,0.986965302734375
-0.21996361328125,0.07041309326171875,0.95108337890625
-0.2255559375,0.02580665283203125,0.9402696484374999
-0.2406308984375,0.0515411376953125,1.0973145068359376
-0.22750109375,0.0608545703125,1.1636714892578124
-0.3252451953125,0.0515411376953125,1.1164843017578125
-0.2610550390625,0.05080586669921875,1.0663479150390625
-0.25838044921875,-0.04306373046875,0.9424815478515625
-0.252788125,0.0829127001953125,0.9478884130859375
-0.22361078125,-0.0249270458984375,0.8992266259765624
-0.237226875,-0.05850442138671875,0.9582106103515625
-0.2454937890625,0.03512008544921875,0.9921264013671875
-0.22944625,-0.0866898095703125,0.8874298291015625
-0.242089765625,0.04100225341796875,0.882760263671875
-0.22531279296875,0.09933375244140626,0.93437125
-0.25886673828125,0.08364797119140625,0.9999909326171875
-0.24525064453125,0.0682072802734375,1.094119541015625
-0.2561921484375,0.12335260498046875,1.176697119140625
-0.2824517578125,0.0221302978515625,1.0796193115234376
-0.277102578125,0.014777587890624999,1.0294829248046875
-0.22190876953125,0.07678544189453125,0.9390408154296875
-0.210967265625,-0.068553125,0.855234404296875
-0.24476435546875,0.02286556884765625,0.8933282275390625
-0.23698373046875,-0.03522083984375,0.899472392578125
-0.242089765625,-0.008751083984375,0.894557060546875
-0.20002576171875,0.07384435791015626,0.8984893261718749
-0.23552486328125,-0.0200252392578125,0.91176072265625
-0.221665625,-0.004829638671875,0.9724650732421874
-0.25740787109375,0.0358553564453125,1.0543053515625
-0.30214646484375,-0.044044091796875,0.9852449365234375
-0.20051205078125,0.03315936279296875,0.905370791015625
-0.19273142578125,0.0037485229492187503,0.8407341748046875
-0.216802734375,0.00816014892578125,0.878827998046875
-0.24816837890625,-0.0464949951171875,0.943710380859375
-0.22336763671875,0.04124734375,1.0348897900390626
-0.24816837890625,0.01649322021484375,0.987948369140625
-0.2756437109375,-0.027868129882812502,0.965829375
-0.16136578125,0.019679394531249998,0.9577190771484375
-0.2800203125,-0.03350520751953125,0.915201455078125
-0.21972046875,0.01110123291015625,0.9936010009765625
-0.14556138671875,-0.0121823486328125,1.001219765625
-0.27151025390625,0.030463369140625002,1.104933271484375
-0.13680818359375,0.10766682373046875,1.1919346484375
-0.26810623046875,-0.08154291259765625,1.14769666015625
-0.413263515625,-0.0719843896484375,1.119187734375
-0.33715927734375,-0.00507472900390625,1.001711298828125
-0.386031328125,-0.0396324658203125,0.78494515625
-0.23455228515625,0.0878145068359375,0.729401904296875
-0.17473873046875,0.11698025634765626,0.69745224609375
-0.1151683203125,0.0633054736328125,0.6932742138671875
-0.041495527343750005,-0.026397587890625,0.915201455078125
-0.26518849609375,0.05570767333984375,1.314326416015625
-0.517329375,0.03266918212890625,1.422463720703125
-0.3077387890625,0.10472573974609375,1.304495751953125
-0.44511544921875,-0.032279755859375,0.97467697265625
-0.30749564453125,0.03953171142578125,0.8948028271484375
-0.30263275390625,-0.08963089355468751,0.741690234375
-0.10519939453125,-0.0063001806640625,0.7660211279296875
-0.16647181640625,-0.01291761962890625,0.7733941259765625
-0.15917748046875,-0.11977700439453125,0.8557259375
-0.20197091796875,-0.08742508056640624,0.9095488232421876
-0.41812640624999997,-0.134237333984375,0.854251337890625
-0.06872771484375,0.04933532470703125,0.9459222802734375
-0.26907880859375,-0.11536537841796875,0.9257694189453125
-0.27199654296875,0.00619942626953125,1.1209081005859376
-0.28609892578125,0.08609887451171874,1.1528577587890625
-0.3038484765625,0.05472731201171875,0.9680412744140625
-0.1978374609375,0.04394333740234375,0.9051250244140625
-0.27151025390625,0.0515411376953125,0.9306847509765624
-0.30020130859375,0.06011929931640625,1.0184234277343749
-0.34056330078125,-0.0906112548828125,1.0184234277343749
-0.2980130078125,0.073599267578125,1.056763017578125
-0.28512634765625,-0.0337502978515625,0.8967689599609375
-0.18106048828125,-0.01046671630859375,0.9046334912109375
-0.1866528125,-0.1161006494140625,0.9370746826171875
-0.26081189453125,-0.0288484912109375,0.977626171875
-0.2299325390625,-0.116590830078125,0.9965502001953125
0.04895423828125,0.017718671875,1.1902142822265624
0.02536921875,0.06158984130859375,1.3538948388671874
-0.33229638671875,-0.02174087158203125,1.499142900390625
-0.386031328125,0.110852998046875,1.4050142919921875
-0.24670951171875,0.055952763671875,1.2049602783203124
-0.41447923828125,0.0446786083984375,1.233714970703125
-0.41691068359375,-0.1768830517578125,1.2784444921875
-0.40621232421875,-0.204823349609375,1.0810939111328124
-0.23503857421875,-0.0661022216796875,0.77216529296875
-0.19175884765625,-0.13938423095703126,0.471838505859375
-0.0451426953125,-0.13840386962890625,0.447261845703125
-0.02131453125,-0.2308029248046875,0.66009572265625
-0.172064140625,-0.298938037109375,1.0860092431640624
-0.25254498046875,-0.20212735595703124,1.405751591796875
-0.37995271484375,7.216796875000007e-05,1.3494710400390626
-0.36536404296875,-0.10164031982421876,1.0167030615234376
-0.21558701171875,0.0765403515625,1.0314490576171875
-0.4458448828125,0.104970830078125,0.8825144970703125
-0.29509527343749997,0.22187891845703125,0.9397781152343749
-0.255705859375,0.1976149755859375,1.007609697265625
-0.26324333984375,0.1628121484375,1.065610615234375
-0.18227621093750002,0.008895419921875,1.0329236572265625
-0.14410251953125,-0.07713128662109375,1.2462490673828124
-0.27199654296875,0.026541923828125,1.4217264208984375
-0.518301953125,-0.0190448779296875,1.3216994140625
-0.3262177734375,0.09541230712890625,1.2076637109375
-0.2931501171875,-0.0415931884765625,0.917167587890625
-0.19029998046875,0.02972809814453125,0.747097099609375
-0.084532109375,-0.09526797119140624,0.7935469873046875
-0.30409162109375,-0.1273748046875,1.009575830078125
-0.37363095703125,-0.04526954345703125,1.237155703125
-0.34883021484375,-0.149923115234375,1.249444033203125
-0.18300564453125,-0.0827683642578125,1.22044357421875
-0.168173828125,-0.1553151025390625,1.108865537109375
-0.1735230078125,-0.163648173828125,1.11820466796875
-0.24330548828125,-0.114630107421875,1.03759322265625
-0.3578265625,-0.1023755908203125,0.8972604931640625
-0.21461443359375,-0.07835673828125,0.84687833984375
-0.26178447265625,-0.04968116943359375,0.86457353515625
-0.2007551953125,0.1015395654296875,0.8815314306640625
-0.10495625,-0.02664267822265625,0.8889044287109376
-0.3106565234375,0.014777587890624999,0.9913891015625
-0.45484123046875,0.14099910888671874,1.035135556640625
-0.39818855468750003,0.08658905517578125,0.7797840576171875
-0.07407689453124999,-0.0661022216796875,0.65026505859375
0.005431367187500001,0.015022678222656249,0.868997333984375
-0.084532109375,-0.0013983740234375002,1.0810939111328124
-0.21996361328125,-0.00360418701171875,1.2496897998046874
-0.2338228515625,0.026296833496093748,1.4300824853515626
-0.316005703125,0.018699033203125,1.43671818359375
-0.321841171875,0.04492369873046875,1.2821309912109375
-0.263486484375,-0.05311243408203125,1.0968229736328126
-0.36244630859375,-0.06732767333984375,1.0127707958984375
-0.2688356640625,-0.059484782714843754,0.914218388671875
-0.26421591796875,-0.09796396484375,0.67582478515625
-0.160393203125,-0.112669384765625,0.6020948046875
0.02512607421875,-0.07468038330078125,0.631095263671875
0.058436875,0.0020328906249999995,0.7802755908203125
-0.20026890625,-0.03742665283203125,0.9604225097656249
-0.23528171875,-0.126394443359375,1.1302472314453125
-0.06532369140625,-0.05164189208984375,1.260257763671875
-0.18835482421875,-0.0778665576171875,1.3914971289062499
-0.34104958984375,-0.0063001806640625,1.5025836328125
-0.41423609375,-0.01978014892578125,1.4045227587890625
-0.37508982421875,0.07972652587890625,1.160968056640625
-0.40669861328125,0.06698182861328125,1.0117877294921875
-0.3651208984375,0.0182088525390625,0.86064126953125
-0.13778076171875,-0.10727739746093751,0.84491220703125
-0.17084841796875,0.0221302978515625,0.8161575146484374
-0.1093328515625,-0.0631611376953125,0.7709364599609375
-0.3033621875,-0.0710040283203125,0.735300302734375
-0.15869119140625,0.0642858349609375,0.746114033203125
-0.13948277343749999,-0.03840701416015625,0.7522581982421875
-0.22944625,-0.00850599365234375,0.7330884033203124
-0.1025248046875,-0.0768861962890625,0.7751144921875
-0.17668388671875,-0.13497260498046876,0.88816712890625
-0.2255559375,0.03708080810546875,0.9970417333984375
-0.3777644140625,-0.1386489599609375,1.066593681640625
-0.312115390625,-0.1523740185546875,1.151137392578125
-0.47259078125,-0.0974737841796875,1.03562708984375
-0.35369310546875,-0.081297822265625,0.7483259326171875
-0.09425789062500001,-0.09012107421875,0.6018490380859375
-0.12513724609375,-0.01438816162109375,0.6544430908203125
-0.20415921875,-0.0072805419921875,0.6414174609375
-0.16160892578125,-0.0621807763671875,0.6972064794921875
-0.09985021484375001,-0.10213050048828125,0.6588668896484375
-0.16793068359375,-0.11438501708984375,0.725961171875
-0.142886796875,-0.02223105224609375,0.7099863427734375
0.02318091796875,-0.21438187255859376,0.807064150390625
-0.07991236328125,0.0103659619140625,1.1902142822265624
-0.45192349609375,-0.045024453125,1.3848614306640625
-0.44754689453125,0.02923791748046875,1.296631220703125
-0.4818302734375,-0.00581,1.088221142578125
-0.3811684375,-0.01978014892578125,0.8697346337890625
-0.20197091796875,-0.00801581298828125,0.718588173828125
-0.16355408203125,0.00570924560546875,0.682214716796875
-0.22920310546875,0.04443351806640625,0.6760705517578125
-0.11395259765625,-0.09918941650390625,0.71514744140625
-0.12221951171875,-0.01978014892578125,0.810996416015625
-0.29776986328125,-0.0474753564453125,0.8984893261718749
-0.21315556640625,-0.10580685546875,0.9397781152343749
-0.3651208984375,-0.071494208984375,0.89799779296875
-0.21461443359375,0.03855135009765625,0.86260740234375
-0.29387955078125,0.038306259765625,0.8854636962890625
-0.34785763671875003,0.062080021972656246,0.84294607421875
-0.30020130859375,0.07457962890625,0.8773533984374999
-0.2785614453125,-0.0097314453125,0.9198710205078124
-0.29290697265625,0.0250713818359375,1.022355693359375
-0.13534931640625,-0.0028689160156250004,1.1213996337890624
-0.21607330078125,-0.05703387939453125,1.072000546875
-0.09425789062500001,-0.01193725830078125,0.9572275439453125
-0.03614634765625,-0.107767578125,0.978117705078125
-0.34591248046875,-0.057278969726562504,1.0265337255859375
-0.20877896484375,0.02090484619140625,1.0543053515625
-0.237226875,0.015022678222656249,1.0535680517578125
-0.3349709765625,-0.0004180126953125,1.022355693359375
-0.19321771484375,0.0064445166015625,0.978117705078125
-0.24281919921875,-0.06683749267578125,1.052830751953125
-0.268349375,0.07041309326171875,1.1248403662109374
-0.27613,0.0123266845703125,1.114763935546875
-0.2143712890625,0.019434304199218752,1.101984072265625
-0.28658521484375,-0.01144707763671875,1.1054248046875
-0.22482650390625,-0.02076051025390625,1.030220224609375
-0.18689595703125,-0.050661530761718754,1.062661416015625
-0.221665625,0.0093856005859375,1.0936280078125
-0.17036212890625,-0.04919098876953125,1.05332228515625
-0.30846822265625,0.00619942626953125,1.0737209130859375
-0.29533841796875,0.05178622802734375,1.0319405908203125
-0.273212265625,-0.06683749267578125,0.9046334912109375
-0.21972046875,0.021885207519531248,1.08478041015625
-0.35588140625,0.0030132519531249997,1.086255009765625
-0.19078626953125,-0.11879664306640625,1.0481611865234375
-0.20804953125,0.0044837939453125,1.055779951171875
-0.2970404296875,-0.055808427734375,1.0235845263671874
-0.166228671875,0.02335574951171875,1.0412797216796874
-0.26616107421875,-0.07664110595703125,1.031203291015625
-0.268349375,0.0093856005859375,1.14671359375
-0.16112263671875,0.040266982421875,1.0923991748046875
-0.26251390625,-0.0055649096679687505,1.0565172509765626
-0.1015522265625,-0.0415931884765625,1.01399962890625
-0.23601115234375,0.024091020507812498,1.0363643896484376
-0.222638203125,-0.112669384765625,0.9724650732421874
-0.28755779296875,0.016738310546875,0.9862280029296875
-0.28026345703125,-0.048945898437499996,0.9714820068359376
-0.1774133203125,-0.0288484912109375,0.9547698779296875
-0.2532744140625,0.00423870361328125,0.969270107421875
-0.195406015625,-0.07468038330078125,1.00023669921875
-0.27880458984375,-0.0298288525390625,1.0825685107421874
-0.159420625,0.03536517578125,1.0540595849609375
-0.32111173828125,-0.0768861962890625,1.0329236572265625
-0.298499296875,0.00619942626953125,1.0707717138671875
-0.17814275390625,0.026541923828125,1.04939001953125
-0.2523018359375,-0.0710040283203125,0.9717277734375
-0.23357970703125,-0.02860340087890625,0.8154202148437499
-0.0762651953125,-0.04968116943359375,0.769707626953125
-0.2644590625,-0.08595453857421875,0.8623616357421875
-0.32548833984375003,-0.046249904785156254,1.046932353515625
-0.28609892578125,-0.11536537841796875,1.04545775390625
-0.2561921484375,-0.0553182470703125,1.004660498046875
-0.27102396484375,0.05276658935546875,0.883251796875
-0.19710802734375,-0.06634731201171876,0.8471241064453126
-0.24136033203125,-0.0955130615234375,0.9007012255859375
-0.22725794921875,-0.04575972412109375,0.97860923828125
-0.18008791015625,-0.06928839599609375,0.9675497412109375
-0.1866528125,-0.06242586669921875,0.834590009765625
-0.131215859375,0.03659062744140625,0.891116328125
-0.1803310546875,-0.10164031982421876,0.9537868115234375
-0.31235853515625,0.0093856005859375,1.0737209130859375
-0.25108611328125,0.02972809814453125,1.03562708984375
-0.28974609375,-0.09624833251953124,0.9481341796875
-0.2630001953125,0.021885207519531248,0.9756600390625
-0.2698082421875,-0.025662316894531252,0.9292101513671875
-0.2445212109375,-0.0788469189453125,0.89799779296875
-0.2688356640625,-0.08252327392578125,0.9788550048828125
-0.13778076171875,0.06060947998046875,1.0511103857421875
-0.2022140625,-0.022476142578125,0.9528037451171875
-0.23309341796875,-0.0053198193359375,1.0250591259765625
-0.2805066015625,0.05374695068359375,1.0267794921875
-0.26664736328125,-0.093062158203125,0.95304951171875
-0.265431640625,-0.07222947998046875,0.9213456201171875
-0.20197091796875,-0.081297822265625,0.8262339453125
-0.23819945312500002,-0.07860182861328124,0.867031201171875
-0.22871681640625,-0.044534272460937496,0.99040603515625
-0.29728357421875,-0.00605509033203125,1.1486797265625
-0.31381740234375,-0.0710040283203125,1.1513831591796875
-0.2892598046875,0.0407571630859375,1.1744852197265625
-0.1900568359375,-0.00409436767578125,1.1644087890625
-0.327676640625,-0.1553151025390625,1.0103131298828125
-0.24330548828125,0.05423713134765625,1.07691587890625
-0.29776986328125,-0.16144236083984376,0.9454307470703125
-0.27588685546875,-0.14869766357421876,0.7947758203124999
-0.11638404296875,-0.08644471923828125,0.782487490234375
-0.15625974609374998,-0.10065995849609374,0.8309035107421875
-0.3466419140625,-0.02517213623046875,0.92748978515625
-0.1511537109375,-0.07419020263671874,0.946168046875
-0.3612305859375,-0.0562986083984375,0.90782845703125
-0.20877896484375,-0.0739451123046875,0.9191337207031249
-0.24670951171875,-0.0739451123046875,0.99237216796875
-0.339347578125,-0.01879978759765625,1.047915419921875
-0.22093619140625,0.04933532470703125,1.025304892578125
-0.304334765625,-0.07860182861328124,0.801165751953125
-0.230418828125,-0.0641414990234375,0.754961630859375
-0.140941640625,-0.0023787353515625003,0.839996875
-0.21266927734375,0.0015427099609375003,0.954032578125
-0.1803310546875,0.0137972265625,1.1093570703125
-0.33813185546875,-0.01291761962890625,1.1218911669921874
-0.24038775390625,0.03266918212890625,1.0407881884765624
-0.1560166015625,-0.0759058349609375,0.9011927587890625
-0.3164919921875,-0.011201987304687501,0.9324051171875
-0.17327986328125,-0.034240478515625,1.0348897900390626
-0.2289599609375,-0.0925719775390625,1.1233657666015624
-0.39891798828125,-0.037916833496093746,1.1096028369140625
-0.2396583203125,-0.0006631030273437505,1.0621698828125
-0.30068759765624997,-0.08154291259765625,1.048898486328125
-0.27442798828125,-0.10654212646484375,0.9616513427734374
-0.170118984375,-0.0239466845703125,0.859166669921875
-0.21169669921875,-0.0646316796875,0.8304119775390625
-0.16015005859375,-0.1308060693359375,0.8812856640625
-0.19127255859375,-0.10065995849609374,0.82328474609375
-0.13048642578125,-0.0474753564453125,0.882760263671875
-0.21704587890625,-0.03742665283203125,0.9837703369140625
-0.24330548828125,-0.09404251953125001,1.0147369287109376
-0.24962724609375,0.0740894482421875,1.1248403662109374
-0.24768208984375,-0.00409436767578125,1.1051790380859374
-0.20537494140625,-0.010711806640625,1.13098453125
-0.26761994140625,-0.0092412646484375,1.2233927734375
-0.27199654296875,-0.079337099609375,1.1538408251953125
-0.3660934765625,-0.085219267578125,1.060695283203125
-0.12756869140625,-0.0004180126953125,0.975168505859375
-0.28123603515625,-0.0337502978515625,0.892590927734375
-0.17376615234375,-0.0915916162109375,0.94223578125
-0.174981875,-0.01585870361328125,1.0543053515625
-0.2746711328125,-0.00801581298828125,1.0044147314453125
-0.1696326953125,0.01404231689453125,0.9129895556640625
-0.26810623046875,-0.0180645166015625,0.9191337207031249
-0.24914095703125,0.00766996826171875,1.00613509765625
-0.28366748046875,-0.07026875732421875,1.0255506591796875
-0.2425760546875,0.03855135009765625,1.1346710302734375
-0.37265837890625,-0.038161923828125,1.0609410498046874
-0.18932740234375,-0.01144707763671875,1.0152284619140626
-0.30214646484375,-0.0411030078125,0.990897568359375
-0.16549923828125,-0.07026875732421875,1.0270252587890625
-0.2980130078125,-0.02517213623046875,1.002694365234375
-0.18981369140625,-0.14575657958984375,0.949608779296875
-0.15066742187499998,-0.06095532470703125,0.8834975634765625
-0.26081189453125,-0.08595453857421875,0.9542783447265625
-0.1501811328125,-0.11732610107421874,0.9129895556640625
-0.27005138671875,-0.01732924560546875,0.907336923828125
-0.19637859375,0.011346323242187501,1.051847685546875
-0.325731484375,-0.08595453857421875,1.0348897900390626
-0.29047552734375,-0.00581,1.0127707958984375
-0.15577345703125,-0.0455146337890625,0.9931094677734374
-0.30798193359375,-0.02615249755859375,0.9537868115234375
-0.20975154296875,-0.08595453857421875,0.911269189453125
-0.19564916015625,-0.09771887451171875,0.9405154150390624
-0.3223274609375,-0.0749254736328125,0.851793671875
-0.05997451171875,-0.1062970361328125,0.7788009912109375
-0.16938955078125,-0.01928996826171875,0.7498005322265625
-0.26275705078125,-0.0332601171875,0.9085657568359375
-0.236254296875,-0.0553182470703125,0.98254150390625
-0.1540714453125,0.06306038330078124,1.0378389892578126
-0.39405509765625,-0.0038492773437499997,1.072000546875
-0.1949197265625,-0.00850599365234375,1.0958399072265625
-0.3267040625,0.10031411376953125,1.0668394482421875
-0.36730919921875,-0.04575972412109375,0.9326508837890625
-0.0996070703125,0.053992041015625,0.9429730810546875
-0.29582470703125,-0.09624833251953124,0.914709921875
-0.2882872265625,-0.05090662109375,1.0098215966796875
-0.1633109375,-0.060710234375,0.93338818359375
-0.3602580078125,-0.0621807763671875,0.8879213623046875
-0.1949197265625,-0.015368522949218751,0.952557978515625
-0.30652306640625,-0.0749254736328125,0.873912666015625
-0.25157240234375,-0.02713285888671875,0.9331424169921875
-0.228473671875,-0.01193725830078125,1.008592763671875
-0.3670660546875,-0.07173929931640625,0.9542783447265625
-0.28998923828125,-0.0788469189453125,0.920116787109375
-0.273212265625,0.0030132519531249997,0.8603955029296875
-0.15042427734375,-0.07909200927734375,0.8422087744140625
-0.33424154296874997,-0.022476142578125,0.9532952783203125
-0.2454937890625,-0.0406128271484375,1.019406494140625
-0.24670951171875,-0.0229663232421875,1.028745625
-0.33910443359375,-0.1876670263671875,0.99237216796875
-0.189570546875,0.0780108935546875,1.0221099267578124
-0.265431640625,-0.08399381591796876,0.9206083203125
-0.2955815625,-0.0710040283203125,0.9483799462890625
-0.21850474609375,0.0030132519531249997,1.0174403613281249
-0.34639876953125,-0.09722869384765626,0.9724650732421874
-0.315033125,-0.1033559521484375,0.89799779296875
-0.18786853515625002,-0.0680629443359375,0.822793212890625
-0.240144609375,-0.0327699365234375,0.7672499609375
-0.20245720703125,-0.10065995849609374,0.770690693359375
-0.252788125,0.00668960693359375,0.9400238818359374
-0.331566953125,0.02482629150390625,1.06905134765625
-0.3476144921875,0.0231106591796875,1.038084755859375
-0.25157240234375,-0.03914228515625,0.952557978515625
-0.29971501953125,0.11599989501953126,0.9442019140625
-0.25838044921875,-0.0175743359375,1.0083469970703125
-0.38432931640625,-0.027868129882812502,0.991880634765625
-0.21461443359375,-0.0396324658203125,0.880794130859375
-0.18543708984375,0.008895419921875,0.8943112939453125
-0.20537494140625,-0.0680629443359375,0.9085657568359375
-0.37800755859375,-0.00458454833984375,0.9815584374999999
-0.20148462890625,-0.01634888427734375,1.0845346435546874
-0.2882872265625,-0.01095689697265625,1.144255927734375
-0.33083751953125,0.09933375244140626,1.1695698876953124
-0.27345541015625,0.013552136230468751,1.0083469970703125
-0.2454937890625,0.04345315673828125,0.9478884130859375
-0.15625974609374998,0.02874773681640625,0.92355751953125
-0.2800203125,-0.02860340087890625,0.848352939453125
-0.032499179687500004,-0.10850284912109374,0.9080742236328125
-0.2211793359375,0.0608545703125,1.0122792626953125
-0.11930177734375,-0.11487519775390626,1.0761785791015626
-0.44851947265625003,-0.0808076416015625,1.1504000927734375
-0.3096839453125,0.00472888427734375,1.1469593603515624
-0.29242068359375,-0.05874951171875,0.9075826904296875
-0.34056330078125,-0.0759058349609375,0.81640328125
-0.20440236328125,-0.057769150390625,0.8058353173828126
-0.13948277343749999,-0.07835673828125,0.810013349609375
-0.1851939453125,0.008405239257812499,0.9321593505859375
-0.092312734375,-0.1406096826171875,1.0004824658203124
-0.1015522265625,-0.0817880029296875,1.17817171875
-0.35904228515625003,-0.07443529296875,1.2469863671875
-0.2357680078125,-0.076396015625,1.072000546875
-0.28974609375,0.0008074389648437498,0.9739396728515625
-0.39843169921875,-0.0567887890625,0.915201455078125
-0.35612455078125,-0.03546593017578125,0.8584293701171875
-0.26859251953125,0.04835496337890625,0.923065986328125
-0.3145468359375,-0.09918941650390625,0.8476156396484374
-0.15164,0.01575794921875,0.8957858935546875
-0.2095083984375,0.08903995849609375,0.9449392138671875
-0.1988100390625,0.036345537109375,1.0727378466796875
-0.2260422265625,0.15129290283203126,1.2270792724609374
-0.3777644140625,0.15080272216796875,1.2265877392578124
-0.30530734375,0.01845394287109375,1.131476064453125
-0.2668905078125,0.1549692578125,1.18112091796875
-0.45143720703125,0.03806116943359375,1.1626884228515626
-0.3865176171875,-0.035711020507812496,1.0078554638671875
-0.13024328125,-0.07517056396484376,0.9139726220703125
-0.29242068359375,0.0103659619140625,0.810013349609375
-0.23017568359375,-0.06144550537109375,0.7743771923828124
-0.16160892578125,-0.10065995849609374,0.9464138134765625
-0.14410251953125,0.11403917236328125,1.1513831591796875
-0.38627447265625,-0.036201201171875,1.2388760693359375
-0.3738741015625,0.1025199267578125,1.2629611962890626
-0.39989056640625,0.07482471923828125,1.043000087890625
-0.27151025390625,-0.028113220214843748,0.8166490478515624
-0.20634751953125,0.0966377587890625,0.757910830078125
-0.25886673828125,-0.0631611376953125,0.7670041943359375
-0.1813036328125,-0.10899302978515625,0.8279543115234375
-0.265431640625,-0.0661022216796875,0.9795923046875
-0.32354318359375,-0.06291604736328126,1.09461107421875
-0.366579765625,-0.03742665283203125,1.2142994091796875
-0.300444453125,-0.149923115234375,1.0933822412109375
-0.23552486328125,0.0064445166015625,0.8982435595703124
-0.23892888671875,-0.06095532470703125,0.765283828125
-0.14750654296875,0.008895419921875,0.8702261669921875
-0.191515703125,-0.045024453125,0.876861865234375
-0.11978806640625,-0.0298288525390625,0.991880634765625
-0.22482650390625,0.06011929931640625,1.220935107421875
-0.34737134765625,-0.034240478515625,1.2772156591796875
-0.27394169921875,0.08021670654296875,1.2781987255859375
-0.36366203125,0.15325362548828125,1.2315030712890624
-0.26275705078125,0.0270321044921875,1.0697886474609375
-0.28196546875,0.1201664306640625,1.04152548828125
-0.2255559375,0.0750698095703125,0.9901602685546875
-0.26129818359375,0.0012976196289062499,0.9262609521484375
-0.1555303125,0.0525214990234375,0.965337841796875
-0.12270580078125,0.042227705078125,1.0759328125
-0.23212083984375,-0.04085791748046875,1.1644087890625
-0.34591248046875,0.04786478271484375,1.24600330078125
-0.28172232421875,-0.0033590966796874996,1.1680952880859374
-0.0840458203125,-0.12541408203125,1.079373544921875
-0.38700390625000003,0.00619942626953125,1.2634527294921876
-0.36755234375,-0.04821062744140625,1.248460966796875
-0.3291355078125,-0.09183670654296874,1.03562708984375
-0.33229638671875,0.04198261474609375,0.94321884765625
-0.23747001953125,-0.0808076416015625,0.76626689453125
-0.12805498046875,-0.04085791748046875,0.8028861181640625
-0.17522501953125,-0.02370159423828125,0.8712092333984375
-0.27053767578125,-0.0161037939453125,0.8717007666015625
-0.1710915625,-0.01291761962890625,0.823776279296875
-0.31965287109375,-0.0028689160156250004,0.844420673828125
-0.24768208984375,0.00766996826171875,0.92945591796875
-0.24573693359375,0.0613447509765625,1.0520934521484375
-0.333512109375,0.09002031982421875,1.1958669140625
-0.3894353515625,0.06011929931640625,1.1528577587890625
-0.2542469921875,-0.0435539111328125,1.0186691943359376
-0.17522501953125,-0.006790361328125,0.9913891015625
-0.267376796875,-0.0190448779296875,1.02088109375
-0.3923530859375,0.0280124658203125,1.06118681640625
-0.3111428125,-0.08056255126953125,0.9198710205078124
-0.27102396484375,-0.046740085449218746,0.6910623144531249
-0.103983671875,-0.057769150390625,0.6667314208984375
-0.164283515625,-0.09330724853515625,0.8392595751953125
-0.237226875,0.04320806640625,0.97271083984375
-0.2357680078125,0.00717978759765625,0.8989808593749999
-0.30530734375,0.0789912548828125,0.8616243359375
-0.2600824609375,0.028502646484374998,0.8495817724609375
-0.20877896484375,0.05178622802734375,0.918150654296875
-0.26518849609375,0.03806116943359375,0.957473310546875
-0.2882872265625,0.1235976953125,1.0299744580078125
-0.24914095703125,0.0103659619140625,0.9677955078125
-0.253760703125,0.04443351806640625,0.9965502001953125
-0.27929087890625,0.03413972412109375,0.9994993994140625
-0.172064140625,-0.01487834228515625,1.0112961962890625
-0.2396583203125,0.064776015625,0.9972875
-0.2746711328125,-0.046740085449218746,1.068559814453125
-0.30530734375,-0.03693647216796875,1.016948828125
-0.31819400390625,-0.05311243408203125,0.92355751953125
-0.216802734375,-0.0474753564453125,0.9675497412109375
-0.249870390625,-0.0001729223632812504,0.9953213671875
-0.30944080078125,-0.046004814453125,0.9483799462890625
-0.19370400390625,0.0397768017578125,0.9999909326171875
-0.3670660546875,0.0123266845703125,1.0476696533203125
-0.3500459375,0.0191892138671875,1.001711298828125
-0.259596171875,0.07629526123046874,0.9449392138671875
-0.23163455078125,-0.00752563232421875,0.8358188427734374
-0.2736985546875,0.03168882080078125,0.7237492724609375
-0.10374052734375,-0.08889562255859375,0.7910893212890625
-0.23601115234375,-0.02737794921875,0.9311762841796875
-0.34226531250000003,-0.06487677001953125,0.93732044921875
-0.140941640625,-0.09575815185546875,0.8820229638671875
-0.3466419140625,-0.12320826904296875,0.8009199853515625
-0.2124261328125,-0.02125069091796875,0.8458952734375
-0.2085358203125,-0.06144550537109375,0.7694618603515625
-0.2396583203125,-0.042328459472656246,0.8048522509765625
-0.17279357421875,0.140263837890625,0.978117705078125
-0.2357680078125,0.0574233056640625,1.0973145068359376
-0.37898013671874997,0.14418528320312501,1.1587561572265626
-0.3213548828125,0.11550971435546875,1.0565172509765626
-0.23844259765625,0.1760470263671875,0.98057537109375
-0.331566953125,0.15472416748046874,0.9891772021484375
-0.240144609375,-0.0180645166015625,0.93928658203125
-0.21607330078125,0.0564429443359375,0.9572275439453125
-0.1783858984375,-0.0018885546875000003,0.9646005419921875
-0.2333365625,-0.034240478515625,0.8795652978515625
-0.22190876953125,-0.010221625976562499,0.8554801708984375
-0.27637314453125,0.0064445166015625,0.8844806298828125
-0.30506419921875,0.04100225341796875,1.0137538623046876
-0.3057936328125,0.04737460205078125,1.1526119921875
-0.33521412109375,0.0319339111328125,1.1287726318359375
-0.32548833984375003,-0.0023787353515625003,1.0599579833984376
-0.29922873046875,-0.07370002197265625,0.89504859375
-0.2347954296875,-0.044534272460937496,0.7031048779296875
-0.04003666015625,-0.11291447509765624,0.6829520166015625
-0.20683380859375,-0.05311243408203125,0.8146829150390625
-0.244034921875,-0.05703387939453125,0.926998251953125
-0.09523046875,0.009140510253906251,1.122628466796875
-0.23795630859375,0.07041309326171875,1.2253589062499999
-0.339347578125,-0.0386521044921875,1.22044357421875
-0.3301080859375,0.0858537841796875,1.1469593603515624
-0.31722142578125,0.09590248779296875,1.0700344140625
-0.25351755859375,-0.0121823486328125,1.02383029296875
-0.31770771484375,0.071638544921875,1.009575830078125
-0.12416466796875,0.0652661962890625,1.1150097021484375
-0.34007701171875,0.050070595703125,1.1526119921875
-0.38530189453125,0.06698182861328125,1.0874838427734375
-0.31284482421875,-0.05311243408203125,0.89504859375
-0.23917203125,-0.0553182470703125,0.712689775390625
-0.20440236328125,-0.0435539111328125,0.5566279833984376
-0.06410796875,-0.09967959716796874,0.5497465185546875
-0.11978806640625,-0.10727739746093751,0.644858193359375
-0.2698082421875,-0.0190448779296875,0.8154202148437499
-0.25838044921875,0.11403917236328125,0.9877026025390625
-0.27734572265625,0.09418685546875,1.230765771484375
-0.4215304296875,0.16991976806640624,1.4182856884765624
-0.4672416015625,0.26084828125,1.293682021484375
-0.257651015625,0.03536517578125,1.0584833837890626
-0.1793584765625,-0.0097314453125,0.9646005419921875
-0.28561263671875,0.0250713818359375,0.9950756005859375
-0.21193984375,0.0037485229492187503,1.0049062646484375
-0.25205869140625,-0.01193725830078125,1.00613509765625
-0.323786328125,0.040266982421875,1.030220224609375
-0.30798193359375,-0.03546593017578125,0.9228202197265625
-0.24306234375,0.038306259765625,0.844420673828125
-0.1385101953125,0.038306259765625,0.882760263671875
-0.26056875,-0.04306373046875,1.0633987158203124
-0.31746457031249997,0.01649322021484375,1.2949108544921875
-0.40864376953125,0.00399361328125,1.2526389990234374
-0.4176401171875,0.05472731201171875,0.9233117529296875
-0.3145468359375,0.00178780029296875,0.6839350830078125
-0.05413904296875,0.0010525292968750002,0.6342902294921875
-0.05122130859375,0.024581201171875,0.7851909228515626
-0.27734572265625,-0.008996174316406251,1.0444746875
-0.32354318359375,-0.012427438964843749,1.1843158837890626
-0.32354318359375,0.04100225341796875,1.0855177099609374
-0.14896541015625,-0.0298288525390625,0.8957858935546875
-0.18495080078125,0.09247122314453125,0.906845390625
-0.26251390625,0.0544822216796875,0.9717277734375
-0.15382830078125,0.04639424072265625,1.2305200048828124
-0.321841171875,0.05497240234375,1.394446328125
-0.4589746875,-0.06732767333984375,1.3076907177734376
-0.30798193359375,0.008895419921875,1.2172486083984375
-0.317950859375,-0.052867343750000004,0.993355234375
-0.2260422265625,-0.046004814453125,0.902421591796875
-0.24038775390625,-0.020515419921875,0.926998251953125
-0.20683380859375,-0.0729647509765625,0.9410069482421874
-0.2736985546875,-0.04968116943359375,0.8569547705078124
-0.21583015625000002,-0.053847705078125,0.7987080859375
-0.13583560546875,-0.0033590966796874996,0.81738634765625
-0.273212265625,-0.01193725830078125,0.8451579736328125
-0.1336473046875,0.04737460205078125,0.9980247998046875
-0.30652306640625,0.0574233056640625,1.092153408203125
-0.3344846875,0.016738310546875,1.1172216015625
-0.23552486328125,0.04100225341796875,1.0039231982421875
-0.21266927734375,-0.02468195556640625,0.8294289111328125
-0.1939471484375,-0.0170841552734375,0.8141913818359375
-0.2022140625,0.00987578125,0.9852449365234375
-0.35223423828125,-0.0151234326171875,1.1626884228515626
-0.174009296875,0.02580665283203125,1.163917255859375
-0.33326896484375,0.08560869384765625,1.0614325830078124
-0.25692158203125,0.05080586669921875,0.9877026025390625
-0.20537494140625,-0.0006631030273437505,0.9070911572265625
-0.27491427734375,0.0407571630859375,0.8830060302734375
-0.20780638671875,-0.01978014892578125,0.8073099169921875
-0.20342978515625,-0.00654527099609375,0.8092760498046875
-0.29874244140625,0.02874773681640625,0.8874298291015625
-0.30214646484375,-0.0411030078125,0.9478884130859375
-0.31576255859375,0.028257556152343752,0.9675497412109375
-0.32889236328125,-0.01561361328125,0.947642646484375
-0.22190876953125,0.11649007568359375,1.033169423828125
-0.2542469921875,0.0231106591796875,0.9191337207031249
-0.30530734375,-0.0210056005859375,0.9031588916015625
-0.13097271484375,-0.0347306591796875,0.8564632373046875
-0.1365650390625,0.0074248779296875,0.8490902392578125
-0.2785614453125,-0.09036616455078125,0.894557060546875
-0.24573693359375,-0.0724745703125,1.0142453955078126
-0.24476435546875,0.02041466552734375,1.0739666796875
-0.25205869140625,-0.1219828173828125,0.9621428759765625
-0.32086859375,0.0064445166015625,0.86359046875
-0.201241484375,-0.0259074072265625,0.7483259326171875
-0.127325546875,-0.107767578125,0.8043607177734375
-0.26713365234374997,0.030463369140625002,0.9520664453125
-0.312115390625,0.0231106591796875,1.1002637060546876
-0.25351755859375,-0.0121823486328125,1.133442197265625
-0.31527626953125,0.16452778076171876,1.065610615234375
-0.31187224609374997,0.07531489990234375,0.8997181591796874
-0.14556138671875,0.0613447509765625,0.8898874951171875
-0.29776986328125,0.0525214990234375,0.977626171875
-0.2800203125,0.05521749267578125,0.9097945898437501
-0.21655958984375,-0.04698517578125,0.8151744482421874
-0.218747890625,0.014777587890624999,0.8549886376953125
-0.257651015625,0.014777587890624999,0.8544971044921875
-0.22920310546875,0.01208159423828125,0.8790737646484375
-0.259596171875,-0.0043394580078125,0.9822957373046874
-0.27418484375,0.04835496337890625,1.1010010058593749
-0.38919220703125,0.05080586669921875,1.1548238916015625
-0.30555048828125,-0.03987755615234375,1.0953483740234375
-0.30895451171875,0.063795654296875,1.077407412109375
-0.27977716796875,0.03928662109375,1.0707717138671875
-0.29436583984375,-0.042328459472656246,0.968287041015625
-0.23941517578125,0.02580665283203125,0.920116787109375
-0.253760703125,-0.05360261474609375,0.8653108349609375
-0.16258150390625,0.00399361328125,0.88226873046875
-0.29825615234375,-0.008996174316406251,0.9127437890625
-0.263486484375,-0.060710234375,0.979100771484375
-0.12027435546875,0.049090234375,1.0108046630859375
-0.33253953125,0.02923791748046875,1.1430270947265626
-0.34032015625,-0.05997496337890625,1.1769428857421875
-0.290718671875,0.06698182861328125,1.1543323583984375
-0.36390517578125,0.02360083984375,1.00220283203125
-0.31697828125,-0.0768861962890625,0.946168046875
-0.15723232421875,-0.02468195556640625,0.9874568359375
-0.3495596484375,-0.04575972412109375,0.8687515673828125
-0.146777109375,-0.0700236669921875,0.8608870361328125
-0.29193439453125003,0.00325834228515625,0.8682600341796876
-0.25108611328125,-0.0259074072265625,0.9218371533203125
-0.2299325390625,0.028502646484374998,0.8930824609375
-0.206104375,0.0584036669921875,0.906353857421875
-0.2561921484375,0.03659062744140625,1.0049062646484375
-0.37581925781250003,0.07727562255859374,1.097068740234375
-0.27685943359375,0.07065818359375,1.12410306640625
-0.321841171875,0.017718671875,0.9820499707031249
-0.2221519140625,0.05889384765625,0.94518498046875
-0.2707808203125,0.08021670654296875,1.021372626953125
-0.22871681640625,-0.03938737548828125,1.1769428857421875
-0.33813185546875,-0.03742665283203125,1.2580458642578125
-0.38724705078125,0.0005623486328125002,1.1422897949218749
-0.197351171875,-0.059729873046875,0.9587021435546875
-0.24695265625,-0.0435539111328125,0.86359046875
-0.18981369140625,-0.0337502978515625,0.8849721630859375
-0.23844259765625,-0.0023787353515625003,0.9945840673828125
-0.2873146484375,-0.04379900146484375,1.0791277783203126
-0.27807515625,0.012816865234374999,1.087238076171875
-0.25449013671875,-0.030073942871093752,1.0196522607421874
-0.27540056640625,0.00816014892578125,0.99827056640625
-0.18057419921875,0.0294830078125,1.0884669091796875
-0.35199109375,-0.0347306591796875,1.092153408203125
-0.292663828125,-0.10188541015625,1.0444746875
-0.18932740234375,0.05276658935546875,1.0152284619140626
-0.22750109375,-0.06095532470703125,0.9061080908203125
-0.2022140625,0.00963069091796875,0.9916348681640625
-0.37800755859375,-0.0337502978515625,0.954032578125
-0.18495080078125,-0.01879978759765625,0.9277355517578125
-0.089395,0.04712951171875,0.9872110693359375
-0.3942982421875,0.03315936279296875,1.0776531787109376
-0.23260712890625002,-0.01438816162109375,1.1017383056640626
-0.28415376953125,-0.00581,1.05332228515625
-0.29631099609375,0.04296297607421875,0.9992536328125
-0.2912049609375,-0.05360261474609375,0.972219306640625
-0.24330548828125,-0.010711806640625,0.956490244140625
-0.2333365625,-0.01291761962890625,0.903404658203125
-0.2756437109375,-0.08301345458984374,0.9228202197265625
-0.2746711328125,0.071638544921875,1.135408330078125
-0.15771861328125,-0.06291604736328126,1.148188193359375
-0.33108066406250003,0.0211499365234375,1.0142453955078126
-0.20804953125,0.132420947265625,1.0464408203125
-0.1939471484375,0.0064445166015625,0.9994993994140625
-0.28464005859375,-0.02468195556640625,0.9813126708984374
-0.2785614453125,-0.0121823486328125,1.043000087890625
-0.26372962890625,0.02041466552734375,1.0516019189453125
-0.253760703125,-0.03522083984375,0.9414984814453125
-0.2688356640625,-0.0190448779296875,0.8773533984374999
-0.30409162109375,0.05962911865234375,0.946659580078125
-0.2202067578125,-0.02149578125,0.9405154150390624
-0.2878009375,-0.0210056005859375,0.882760263671875
-0.24184662109375,-0.00654527099609375,0.9636174755859375
-0.191515703125,-0.0028689160156250004,0.97664310546875
-0.26664736328125,-0.0053198193359375,0.9481341796875
-0.298499296875,-0.0415931884765625,0.993355234375
-0.1890842578125,0.10325519775390625,0.934862783203125
-0.30409162109375,0.0387964404296875,0.86064126953125
-0.2561921484375,0.0505607763671875,0.9410069482421874
-0.17133470703125,0.0407571630859375,0.9891772021484375
-0.33472783203125,0.032424091796875,1.0024485986328124
-0.24695265625,0.0530116796875,0.97369390625
-0.24622322265625,-0.0337502978515625,0.8653108349609375
-0.21947732421875,0.091245771484375,0.981066904296875
-0.26518849609375,0.0123266845703125,1.0599579833984376
-0.286828359375,-0.04281864013671875,1.001711298828125
-0.3048210546875,-0.0006631030273437505,0.9370746826171875
-0.19613544921875,0.0201695751953125,0.9061080908203125
-0.29776986328125,0.0037485229492187503,0.905370791015625
-0.2279873828125,0.0201695751953125,1.011541962890625
-0.27418484375,0.04884514404296875,0.9911433349609375
-0.25400384765625,-0.01928996826171875,0.9513291455078126
-0.23357970703125,0.0495804150390625,0.922574453125
-0.23212083984375,-0.004829638671875,0.9179048876953125
-0.30871136718750003,0.026296833496093748,1.0019570654296874
