ax,ay,az
-0.3427516015625,0.22580036376953125,1.1258234326171874
-0.32013916015625,0.12629368896484375,0.969270107421875
-0.19613544921875,0.0378160791015625,0.8235305126953125
-0.3291355078125,0.0368357177734375,0.8333611767578125
-0.2172890234375,-0.14918784423828124,0.85474287109375
-0.3213548828125,-0.116590830078125,0.90782845703125
-0.2639727734375,-0.12761989501953125,0.7591396630859375
-0.16404037109375,-0.22124440185546876,0.744147900390625
-0.33083751953125,-0.1082577587890625,0.9009469921875
-0.3904079296875,-0.01732924560546875,0.9911433349609375
-0.33375525390625,-0.0175743359375,1.0624156494140624
-0.30652306640625,0.03953171142578125,1.0894499755859375
-0.335457265625,0.16599832275390625,0.99040603515625
-0.177899609375,0.00963069091796875,0.8903790283203125
-0.259596171875,0.09590248779296875,0.8269712451171874
-0.2289599609375,-0.0013983740234375002,0.813945615234375
-0.24087404296875,-0.10164031982421876,1.0638902490234374
-0.31697828125,-0.008751083984375,1.3509456396484376
-0.39818855468750003,0.10178465576171875,1.2909785888671874
-0.35588140625,0.03806116943359375,0.938303515625
-0.20440236328125,0.08021670654296875,0.76626689453125
-0.41156150390625,0.08070688720703124,0.86260740234375
-0.38043900390625,0.13560712158203125,1.0806023779296874
-0.30944080078125,0.093206494140625,1.076424345703125
-0.18981369140625,0.21305566650390625,0.985982236328125
-0.17425244140625,0.05423713134765625,0.8943112939453125
-0.04344068359375,0.069677822265625,1.1749767529296875
-0.23139140625,0.0255615625,1.402310859375
-0.4419545703125,-0.05874951171875,1.6411959960937499
-0.49763466796875,0.0976181201171875,1.554194619140625
-0.4137498046875,-0.05556333740234375,1.2133163427734375
-0.32889236328125,0.02580665283203125,1.0019570654296874
-0.27029453125,-0.07909200927734375,0.952557978515625
-0.26275705078125,-0.09134652587890625,1.1010010058593749
-0.27831830078124997,-0.13154134033203124,1.08379734375
-0.2989855859375,-0.02125069091796875,1.0621698828125
-0.1793584765625,-0.08252327392578125,0.9272440185546875
-0.249870390625,-0.03399538818359375,0.8849721630859375
-0.22288134765625,-0.093062158203125,0.803131884765625
-0.1569891796875,0.062080021972656246,0.94321884765625
-0.24525064453125,0.138303115234375,1.1764513525390625
-0.32864921874999997,0.1000690234375,1.3298097119140624
-0.455084375,0.17040994873046875,1.5180669287109374
-0.36366203125,0.1956542529296875,1.385107197265625
-0.3816547265625,0.2672206298828125,1.2000449462890626
-0.32986494140625,0.07384435791015626,1.0737209130859375
-0.20634751953125,0.0069346972656249995,1.0221099267578124
-0.2299325390625,0.0299731884765625,1.127543798828125
-0.16209521484375,-0.02149578125,1.00810123046875
-0.2367405859375,0.020659755859375,0.91077765625
-0.22434021484375,-0.0082609033203125,0.9206083203125
-0.28561263671875,-0.03644629150390625,0.928964384765625
-0.23649744140625,0.03168882080078125,1.0407881884765624
-0.27783201171875,0.022620478515625,1.1076367041015625
-0.29387955078125,-0.06830803466796875,1.0299744580078125
-0.19953947265625,-0.02762303955078125,1.022355693359375
-0.43368765625,0.01575794921875,0.9655836083984375
-0.24087404296875,0.008895419921875,0.9272440185546875
-0.1210037890625,0.026296833496093748,0.99040603515625
-0.3072525,0.16942958740234376,1.166374921875
-0.28415376953125,0.0123266845703125,1.1997991796875
-0.29582470703125,0.062080021972656246,1.108865537109375
-0.17814275390625,-0.05090662109375,0.979100771484375
-0.24914095703125,-0.09330724853515625,0.95108337890625
-0.21364185546875,-0.08742508056640624,0.974185439453125
-0.19224513671875,-0.11242429443359375,0.9508376123046876
-0.33910443359375,-0.03840701416015625,0.9636174755859375
-0.3301080859375,-0.0327699365234375,0.951574912109375
-0.33472783203125,-0.067572763671875,0.87047193359375
-0.2960678515625,0.0887948681640625,0.9080742236328125
-0.28269490234375,0.0878145068359375,0.7915808544921875
-0.12440781249999999,0.0530116796875,0.8159117480468749
-0.19419029296875,-0.04281864013671875,0.9021758251953125
-0.2255559375,-0.055808427734375,1.074458212890625
-0.33570041015625,0.05325677001953125,1.125577666015625
-0.10082279296875,0.03021827880859375,0.9953213671875
-0.20804953125,0.1878113623046875,1.0688055810546875
-0.3855450390625,0.02482629150390625,1.208155244140625
-0.3009307421875,0.03266918212890625,1.2074179443359374
-0.32986494140625,0.03928662109375,1.01006736328125
-0.33667298828125003,0.0436982470703125,0.8419630078125
-0.22239505859375,-0.035711020507812496,0.7783094580078125
-0.21461443359375,-0.09624833251953124,0.78592822265625
-0.2766162890625,-0.0308092138671875,0.828691611328125
-0.25838044921875,0.02335574951171875,0.820827080078125
-0.23455228515625,7.216796875000007e-05,0.7365291357421875
-0.22336763671875,-0.067572763671875,0.710723642578125
-0.154557734375,0.0623251123046875,0.77806369140625
-0.17133470703125,0.11771552734375,0.7158847412109375
-0.19078626953125,-0.18644157470703124,0.7635634619140625
-0.187625390625,-0.1621776318359375,1.031203291015625
-0.41545181640625,-0.09624833251953124,0.9365831494140625
-0.44535859375,-0.03644629150390625,0.7869112890625
-0.3126016796875,-0.076396015625,0.68270625
-0.2095083984375,-0.03252484619140625,0.6480531591796875
-0.2211793359375,-0.07762146728515625,0.685163916015625
-0.08526154296874999,-0.1896277490234375,0.7591396630859375
-0.0030786914062500004,-0.0700236669921875,0.8333611767578125
-0.25449013671875,0.0152677685546875,0.9818042041015624
-0.408400625,0.08266760986328126,1.18603625
-0.29533841796875,0.1368325732421875,1.1902142822265624
-0.39867484375,0.18045865234375,1.17817171875
-0.40280830078125,0.1941837109375,1.0491442529296875
-0.26275705078125,0.0946770361328125,0.922574453125
-0.16136578125,0.0731090869140625,0.8132083154296875
-0.22044990234375,0.06306038330078124,0.7743771923828124
-0.2396583203125,0.05423713134765625,0.7788009912109375
-0.2464663671875,0.09026541015625,0.8451579736328125
-0.3485870703125,0.0936966748046875,0.97074470703125
-0.2309051171875,0.077520712890625,1.0722463134765625
-0.2231244921875,0.06649164794921875,1.1572815576171875
-0.29363640625,0.0008074389648437498,1.174239453125
-0.36050115234375,0.0838930615234375,1.1523662255859375
-0.40086314453125,0.04884514404296875,0.9670582080078125
-0.3349709765625,-0.02860340087890625,0.86457353515625
-0.1385101953125,0.02286556884765625,0.88226873046875
-0.37217208984375,-0.17761832275390624,0.9591936767578125
-0.286828359375,-0.157766005859375,1.0142453955078126
-0.1881116796875,-0.0798272802734375,0.879811064453125
-0.30068759765624997,-0.0072805419921875,0.7620888623046875
-0.18446451171875,0.15472416748046874,0.7942842871093749
0.0093216796875,0.08217742919921875,1.0810939111328124
0.04992681640625,0.19197789794921874,1.5006175
-0.68291080078125,0.11992134033203125,1.6026106396484374
-0.5061447265625,-0.042083369140625,1.5136431298828126
-0.34883021484375,-0.22761675048828126,1.1213996337890624
-0.28609892578125,-0.01438816162109375,0.7011387451171875
-0.214857578125,-0.12663953369140624,0.6249510986328125
-0.2882872265625,-0.0724745703125,0.8156659814453124
-0.316005703125,0.15717507080078125,1.02088109375
-0.413263515625,-0.0210056005859375,1.087729609375
-0.27102396484375,0.0633054736328125,1.1769428857421875
-0.1988100390625,0.0289928271484375,1.047915419921875
0.00956482421875,-0.00654527099609375,0.8702261669921875
-0.01669478515625,0.06281529296875,0.783470556640625
-0.2800203125,-0.0964934228515625,0.868014267578125
-0.446331171875,0.0368357177734375,1.1105859033203125
-0.58759814453125,0.08903995849609375,1.21454517578125
-0.41010263671875,0.04100225341796875,1.1317218310546875
-0.22677166015625,0.0309535498046875,1.011541962890625
-0.2085358203125,0.1123235400390625,0.84097994140625
-0.18495080078125,0.00766996826171875,0.808047216796875
-0.23357970703125,0.0221302978515625,0.8987350927734374
-0.35904228515625003,0.0201695751953125,0.9557529443359375
-0.18835482421875,-0.03105430419921875,1.057746083984375
-0.15480087890625,0.03168882080078125,1.0071181640625
-0.23747001953125,-0.1170810107421875,0.8490902392578125
-0.0011335351562500005,0.09198104248046875,0.8834975634765625
-0.1278118359375,-0.0464949951171875,0.8721922998046875
-0.34348103515625,0.11379408203125,1.0226014599609374
-0.25546271484375,0.0843832421875,1.1435186279296874
-0.35223423828125,-0.01169216796875,1.38756486328125
-0.50954875,0.00987578125,1.5382197900390624
-0.401592578125,0.0633054736328125,1.2216724072265626
-0.1696326953125,0.067717099609375,0.8181236474609375
-0.13778076171875,0.026541923828125,0.7050710107421875
-0.08866556640625001,-0.087179990234375,0.7869112890625
-0.22531279296875,-0.11830646240234374,1.0250591259765625
-0.21121041015625,-0.14624676025390626,1.1447474609375
-0.22750109375,-0.189137568359375,1.1845616503906249
-0.20780638671875,-0.0513968017578125,0.9572275439453125
-0.07966921874999999,-0.24036144775390625,0.6839350830078125
-0.21266927734375,-0.23938108642578126,0.5824334765625
-0.29436583984375,0.07776580322265625,0.628146064453125
-0.37071322265625,0.1093824560546875,0.7463597998046875
-0.45532751953125,0.12580350830078124,0.9601767431640625
-0.35758341796875,0.24981921630859374,0.9813126708984374
-0.10374052734375,0.19295825927734375,0.9306847509765624
-0.10276794921875,-0.00777072265625,0.9999909326171875
-0.11589775390625,-0.04821062744140625,1.154086591796875
-0.3417790234375,0.00791505859375,1.265173095703125
-0.44803318359375,0.11060790771484375,1.2142994091796875
-0.25594900390624997,0.1564397998046875,0.9778719384765625
-0.25643529296875,0.11796061767578125,0.917167587890625
-0.2775888671875,0.13805802490234376,0.9886856689453125
-0.25643529296875,0.06281529296875,0.9520664453125
-0.20537494140625,0.034384814453125,0.8933282275390625
-0.439523125,7.216796875000007e-05,0.855234404296875
-0.30603677734375,0.099088662109375,0.7940385205078125
-0.2450075,0.08070688720703124,0.7252238720703125
-0.26421591796875,0.06306038330078124,0.6917996142578124
-0.1735230078125,0.0368357177734375,0.752012431640625
-0.2027003515625,0.02041466552734375,0.849336005859375
-0.13486302734375,0.199085517578125,1.0216183935546874
-0.2999581640625,0.008405239257812499,1.062661416015625
-0.259596171875,-0.05899460205078125,1.177680185546875
-0.37922328125,-0.012427438964843749,1.0329236572265625
-0.257651015625,-0.02860340087890625,0.8830060302734375
-0.16015005859375,-0.02664267822265625,0.7812586572265625
-0.330594375,-0.13742350830078126,0.8097675830078125
-0.28658521484375,0.10766682373046875,0.8790737646484375
-0.09595990234375,0.018699033203125,0.856217470703125
-0.18592337890625,0.20619313720703125,0.9759058056640625
0.0467659375,0.04712951171875,1.1857904833984374
-0.36487775390625,-0.12712971435546874,1.50160056640625
-0.5207333984375,0.20668331787109376,1.464735576171875
-0.382141015625,0.026051743164062502,1.196358447265625
-0.22920310546875,-0.2136466015625,0.9483799462890625
-0.24136033203125,0.1329111279296875,0.9975332666015625
-0.16404037109375,0.03610044677734375,0.948625712890625
-0.419098984375,0.1084020947265625,0.876861865234375
-0.1599069140625,0.1157548046875,0.8078014501953125
-0.183735078125,0.03315936279296875,1.0068723974609375
-0.43587595703125,-0.07075893798828126,1.164900322265625
-0.34226531250000003,-0.1513936572265625,1.1010010058593749
-0.18446451171875,-0.05556333740234375,1.0157199951171876
-0.23139140625,-0.0043394580078125,0.873912666015625
-0.183735078125,0.09418685546875,0.851302138671875
-0.1997826171875,0.0789912548828125,1.148188193359375
-0.5421301171875,0.10619628173828125,1.31973328125
-0.4823165625,0.20472259521484376,1.2319946044921875
-0.25643529296875,0.02580665283203125,1.1572815576171875
-0.25084296875,0.1672237744140625,0.9356000830078125
-0.16258150390625,0.15766525146484375,0.801165751953125
-0.1521262890625,-0.0602200537109375,0.809030283203125
-0.27345541015625,0.04639424072265625,0.868997333984375
-0.30871136718750003,0.0152677685546875,1.0049062646484375
-0.1788721875,-0.136198056640625,1.1346710302734375
-0.39575710937499997,0.00178780029296875,1.0668394482421875
-0.22701480468750002,-0.023456503906250002,0.9186421875
-0.2425760546875,-0.08693489990234375,0.8599039697265625
-0.308225078125,0.09492212646484376,0.8328696435546875
-0.35709712890625,0.05178622802734375,0.8849721630859375
-0.2970404296875,0.06404074462890624,1.040050888671875
-0.26470220703125,0.17139031005859376,1.05332228515625
-0.07456318359375,0.1025199267578125,1.0280083251953125
-0.1365650390625,0.0466393310546875,1.1204165673828126
-0.24427806640625,0.13854820556640626,1.2654188623046876
-0.41642439453125,0.057913486328125,1.2197062744140625
-0.421044140625,-0.013652890625,1.0343982568359376
-0.1346198828125,0.08070688720703124,0.7866655224609375
-0.14653396484375,-0.01095689697265625,0.6686975537109375
-0.1210037890625,-0.0043394580078125,0.743164833984375
-0.2970404296875,-0.0719843896484375,0.884726396484375
-0.35612455078125,0.004973974609375,1.09067880859375
-0.3495596484375,-0.10605194580078126,1.167849521484375
-0.22944625,-0.0641414990234375,1.0896957421875
-0.11225058593750001,-0.07664110595703125,0.9638632421875
-0.1540714453125,-0.1013952294921875,0.7812586572265625
-0.25789416015625,-0.053847705078125,0.765775361328125
-0.315033125,-0.01193725830078125,0.80165728515625
-0.24962724609375,0.06551128662109375,0.7453767333984375
-0.22871681640625,0.03315936279296875,0.7674957275390625
-0.19759431640625,0.010856142578125,0.86064126953125
-0.21461443359375,0.03659062744140625,0.8970147265625
-0.36001486328125,-0.015368522949218751,0.819844013671875
-0.252788125,0.01404231689453125,0.77806369140625
-0.25692158203125,0.0012976196289062499,0.741198701171875
-0.26056875,0.061834931640625,0.83901380859375
-0.2386857421875,0.05105095703125,0.948625712890625
-0.36439146484375,-0.0317895751953125,0.968287041015625
-0.21266927734375,0.1329111279296875,0.9277355517578125
-0.2678630859375,0.09296140380859375,0.7615973291015625
-0.20829267578125,0.1157548046875,0.8343442431640625
-0.226528515625,0.1436951025390625,0.9793465380859375
-0.23357970703125,0.13732275390625,1.1125520361328125
-0.2882872265625,0.065756376953125,1.117713134765625
-0.3456693359375,0.13315621826171875,1.021372626953125
-0.2425760546875,0.09149086181640625,0.95304951171875
-0.24914095703125,0.0858537841796875,0.891607861328125
-0.23844259765625,0.10399046875,0.85277673828125
-0.34104958984375,0.04051207275390625,0.887675595703125
-0.35126166015625,-0.0038492773437499997,0.868997333984375
-0.24281919921875,-0.11242429443359375,0.818860947265625
-0.257651015625,-0.0411030078125,0.8790737646484375
-0.24525064453125,-0.046249904785156254,0.907336923828125
-0.1832487890625,-0.087179990234375,0.90193005859375
-0.292663828125,0.06109966064453125,0.9660751416015625
-0.24865466796875,0.03266918212890625,1.0570087841796876
-0.25400384765625,-0.09428760986328125,1.0648733154296874
-0.27929087890625,0.04124734375,0.9739396728515625
-0.195406015625,0.0020328906249999995,0.89013326171875
-0.31624884765625,-0.0631611376953125,0.8972604931640625
-0.220693046875,0.0574233056640625,0.891607861328125
-0.259596171875,-0.0631611376953125,0.905370791015625
-0.290718671875,0.11305881103515625,1.0191607275390624
-0.2659179296875,0.055462583007812497,1.0948568408203125
-0.361716875,0.10913736572265625,1.1621968896484376
-0.31989601562500003,0.05521749267578125,1.04939001953125
-0.31478998046875,-0.06193568603515625,0.8717007666015625
-0.1686601171875,-0.0915916162109375,0.7556989306640625
-0.15236943359375,-0.00777072265625,0.6539515576171875
-0.11298001953125,0.04688442138671875,0.66599412109375
-0.2411171875,-0.01732924560546875,0.786419755859375
-0.3339983984375,0.040266982421875,0.9931094677734374
-0.413263515625,0.1510478125,1.101984072265625
-0.30555048828125,0.11599989501953126,1.042017021484375
-0.185680234375,0.1740863037109375,0.858183603515625
-0.2853694921875,0.1348718505859375,0.80362341796875
-0.337402421875,0.075559990234375,0.915201455078125
-0.3203823046875,-0.01585870361328125,1.0284998583984375
-0.27515742187500003,0.07678544189453125,1.0068723974609375
-0.13729447265625,-0.0376717431640625,0.9559987109375
-0.2474389453125,0.009140510253906251,1.0776531787109376
-0.26251390625,0.01159141357421875,1.1427813281249999
-0.27005138671875,-0.0406128271484375,1.1798920849609376
-0.337402421875,0.06992291259765625,1.178663251953125
-0.329621796875,0.0348749951171875,1.1907058154296875
-0.3077387890625,0.3228561352539063,1.240596435546875
-0.41107521484375,0.146146005859375,1.0722463134765625
-0.23552486328125,-0.0700236669921875,1.0009739990234374
-0.19467658203125,-0.08399381591796876,0.9660751416015625
-0.34810078125,-0.04428918212890625,0.8569547705078124
-0.345183046875,7.216796875000007e-05,0.9370746826171875
-0.2746711328125,-0.0827683642578125,1.158510390625
-0.42931105468749997,-0.0710040283203125,1.1287726318359375
-0.32281375,0.026296833496093748,1.10444173828125
-0.221665625,-0.0151234326171875,1.0255506591796875
-0.28172232421875,0.0466393310546875,0.926998251953125
-0.2182616015625,0.075559990234375,0.911269189453125
-0.28366748046875,-0.1719812451171875,0.921099853515625
-0.31624884765625,-0.03252484619140625,1.0176861279296876
-0.2454937890625,-0.07222947998046875,0.985982236328125
-0.40378087890625003,0.010856142578125,1.0014655322265624
-0.36098744140625,0.02286556884765625,0.996795966796875
-0.27637314453125,-0.1357078759765625,0.9559987109375
-0.31089966796875,-0.0543378857421875,0.92945591796875
-0.14118478515625,-0.04477936279296875,0.9321593505859375
-0.15528716796875,-0.036201201171875,1.007609697265625
-0.195406015625,-0.07811164794921875,1.10444173828125
-0.407428046875,0.05962911865234375,1.0702801806640625
-0.28901666015625,-0.01291761962890625,1.0284998583984375
-0.2921775390625,0.064776015625,0.8599039697265625
-0.25400384765625,0.04982550537109375,0.7871570556640625
-0.15431458984375,-0.011201987304687501,0.8267254785156251
-0.29436583984375,0.11845079833984375,1.0235845263671874
-0.302389609375,0.17286085205078125,1.1277895654296874
-0.2814791796875,0.10129447509765625,1.1644087890625
-0.33521412109375,-0.07958218994140626,1.0621698828125
-0.20877896484375,0.1476165478515625,1.2093840771484374
-0.54091439453125,-0.02713285888671875,0.988931435546875
-0.2377131640625,-0.06144550537109375,0.66009572265625
-0.004294414062500002,-0.02149578125,0.685163916015625
-0.23406599609375,-0.08203309326171875,0.8618701025390625
-0.26421591796875,-0.12565917236328125,1.1872650830078124
-0.3699837890625,-0.0043394580078125,1.26369849609375
-0.41812640624999997,0.0182088525390625,1.0226014599609374
-0.2133987109375,-0.04698517578125,0.8707177001953125
-0.16160892578125,0.1436951025390625,1.0923991748046875
-0.422989296875,0.1505576318359375,1.1400778955078126
-0.3767918359375,0.093206494140625,1.1661291552734374
-0.31381740234375,0.17874302001953124,1.121645400390625
-0.273212265625,0.00227798095703125,0.875387265625
-0.09085386718749999,0.030708459472656248,0.94125271484375
-0.3495596484375,-0.12811007568359375,0.94911724609375
-0.1521262890625,0.03021827880859375,0.89013326171875
-0.3388612890625,-0.139139140625,0.796250419921875
-0.214857578125,0.1005592041015625,0.8815314306640625
-0.2795340234375,0.0858537841796875,0.870963466796875
-0.37144265625,-0.1121792041015625,0.8775991650390624
-0.26032560546875,0.1623219677734375,0.9257694189453125
-0.29509527343749997,0.20398732421875,0.9631259423828125
-0.28755779296875,0.0093856005859375,0.92552365234375
-0.3767918359375,0.20913422119140626,1.032186357421875
-0.251815546875,0.1564397998046875,1.0727378466796875
-0.3485870703125,0.09100068115234375,0.9768888720703125
-0.17911533203125,0.1270289599609375,0.899472392578125
-0.26616107421875,-0.16634416748046876,0.8407341748046875
-0.2717533984375,0.1191860693359375,0.86359046875
-0.18154677734375,0.06281529296875,0.8446664404296875
-0.24914095703125,0.04712951171875,1.138357529296875
-0.40256515625,0.16550814208984374,1.3312843115234374
-0.3835998828125,-0.03105430419921875,1.277952958984375
-0.376305546875,0.09541230712890625,1.223884306640625
-0.47380650390625,0.22236909912109376,1.0358728564453126
-0.19419029296875,0.11992134033203125,0.935845849609375
-0.3466419140625,-0.0175743359375,0.92650671875
-0.2386857421875,0.106931552734375,1.041033955078125
-0.24379177734375002,-0.05017135009765625,1.0034316650390624
-0.25205869140625,-0.01978014892578125,1.0938737744140625
-0.3515048046875,0.06060947998046875,0.977134638671875
-0.42517759765625,0.03413972412109375,0.9048792578125
-0.21801845703125,-0.00458454833984375,0.991880634765625
-0.1871391015625,0.11403917236328125,1.099034873046875
-0.43052677734375,-0.0011532836914062497,1.1272980322265624
-0.3242726171875,0.05031568603515625,1.031203291015625
-0.2474389453125,0.1084020947265625,0.8323781103515625
-0.3641483203125,0.03168882080078125,0.972219306640625
-0.32743349609375,0.00791505859375,1.1017383056640626
-0.218747890625,0.07825598388671876,1.1073909375
-0.24695265625,-0.006790361328125,0.9877026025390625
-0.210967265625,-0.013407800292968751,0.9016842919921875
-0.230418828125,0.05717821533203125,0.9916348681640625
-0.2955815625,0.0417375244140625,1.1277895654296874
-0.38457246093749997,0.096147578125,1.091170341796875
-0.298499296875,0.0593840283203125,1.08281427734375
-0.252788125,0.1260485986328125,1.2290454052734374
-0.378250703125,0.06796218994140625,1.17915478515625
-0.403537734375,0.044188427734375,0.98254150390625
-0.18300564453125,0.0093856005859375,0.8407341748046875
-0.33642984375,0.018699033203125,0.7974792529296875
-0.15480087890625,-0.0001729223632812504,1.028745625
-0.29047552734375,0.08364797119140625,1.2801648583984375
-0.36244630859375,0.146146005859375,1.163917255859375
-0.21023783203125002,0.1299700439453125,1.0260421923828125
-0.2484115234375,0.034384814453125,0.9513291455078126
-0.25449013671875,0.04345315673828125,1.0422627880859374
-0.3855450390625,-0.00605509033203125,1.0884669091796875
-0.1404553515625,0.10962754638671875,1.195375380859375
-0.28464005859375,0.0613447509765625,1.2290454052734374
-0.4195852734375,0.06355056396484375,1.200290712890625
-0.3485870703125,-0.011201987304687501,0.9881941357421875
-0.29242068359375,0.0613447509765625,0.8154202148437499
-0.17303671874999998,0.06551128662109375,0.725469638671875
-0.1929745703125,-0.00507472900390625,0.94321884765625
-0.22677166015625,0.095167216796875,1.1140266357421875
-0.42371873046874997,0.0936966748046875,1.0162115283203126
-0.1813036328125,-0.035711020507812496,0.8869382958984375
-0.18057419921875,0.11845079833984375,0.8852179296875
-0.32159802734375,-0.01095689697265625,0.96877857421875
-0.277102578125,0.05031568603515625,0.9906518017578125
-0.207076953125,0.08609887451171874,0.9965502001953125
-0.2104809765625,0.0407571630859375,0.9670582080078125
-0.4847480078125,-0.040122646484374996,0.986965302734375
-0.18106048828125,0.01183650390625,0.952557978515625
-0.16598552734375,0.033404453125,0.838522275390625
-0.2523018359375,0.14639109619140625,0.7955131201171874
-0.15188314453125001,0.00521906494140625,0.8254966455078125
-0.19224513671875,-0.0016434643554687498,0.92650671875
-0.32086859375,0.17482157470703125,0.9272440185546875
-0.10471310546875,0.014777587890624999,1.0267794921875
-0.28415376953125,0.099088662109375,1.221426640625
-0.46991619140625,0.16673359375,1.11623853515625
-0.18884111328125,-0.0006631030273437505,0.9405154150390624
-0.3077387890625,0.008895419921875,0.80067421875
-0.1881116796875,0.0319339111328125,0.8166490478515624
-0.252788125,0.07261890625,0.8338527099609375
-0.19346085937500002,-0.0092412646484375,0.890624794921875
-0.30603677734375,0.04933532470703125,0.899472392578125
-0.2912049609375,-0.0053198193359375,0.8365561425781249
-0.18300564453125,-0.04134809814453125,0.8264797119140626
-0.25303126953125,0.110852998046875,0.91569298828125
-0.3369161328125,0.01453249755859375,0.8746499658203125
-0.25497642578125,0.06011929931640625,0.8127167822265625
-0.22579908203125,0.046149150390625,0.81935248046875
-0.28269490234375,-0.0621807763671875,0.8500733056640625
-0.2561921484375,0.04786478271484375,0.80853875
-0.20342978515625,0.09149086181640625,0.7404614013671875
-0.23844259765625,-0.00213364501953125,0.7360376025390625
-0.23139140625,-0.01953505859375,0.9139726220703125
-0.31089966796875,0.0044837939453125,1.0063808642578125
-0.27272597656249997,0.03659062744140625,0.951574912109375
-0.2561921484375,0.09418685546875,0.810013349609375
-0.09839134765625,0.07335417724609375,0.8648193017578125
-0.38821962890625,0.11550971435546875,1.0594664501953126
-0.35199109375,-0.02125069091796875,1.0766701123046876
-0.321841171875,-0.020515419921875,0.7817501904296875
-0.17692703125,-0.01144707763671875,0.5413904541015625
-0.045628984375,-0.07566074462890625,0.5738316455078125
-0.230418828125,0.0427178857421875,0.675333251953125
-0.32889236328125,0.009140510253906251,0.765283828125
-0.299471875,0.06796218994140625,0.91765912109375
-0.40037685546875,0.11698025634765626,1.068559814453125
-0.2231244921875,0.07261890625,0.968287041015625
-0.234309140625,0.05472731201171875,0.9749227392578125
-0.44900576171875,0.05472731201171875,0.9965502001953125
-0.304334765625,-0.06291604736328126,1.067576748046875
-0.3291355078125,-0.144040947265625,0.9186421875
-0.23455228515625,0.103010107421875,0.8181236474609375
-0.26227076171875,0.05497240234375,0.7239950390625
-0.20975154296875,0.014777587890624999,0.7323511035156249
-0.10811712890625,0.04002189208984375,0.969761640625
-0.3563676953125,0.08315779052734375,1.197833046875
-0.38821962890625,0.06257020263671875,1.212087509765625
-0.3446967578125,0.04835496337890625,1.1636714892578124
-0.38773333984375,0.15864561279296874,1.021372626953125
-0.316005703125,0.05325677001953125,0.934862783203125
-0.218747890625,0.03659062744140625,0.92552365234375
-0.31308796875,0.02531647216796875,0.8628531689453125
-0.30117388671875,0.077520712890625,0.8156659814453124
-0.212912421875,-0.0337502978515625,0.800182685546875
-0.21315556640625,-0.01978014892578125,0.914218388671875
-0.39867484375,-0.0141430712890625,0.9950756005859375
-0.249870390625,0.023845930175781252,1.0653648486328124
-0.2688356640625,0.0407571630859375,1.02776255859375
-0.28853037109375,0.03315936279296875,1.1051790380859374
-0.288773515625,0.10129447509765625,1.1936550146484375
-0.2785614453125,0.07727562255859374,1.284342890625
-0.38092529296875,0.165753232421875,1.3838783642578125
-0.4195852734375,0.15227326416015624,1.2315030712890624
-0.05243703125,0.0054641552734375,1.1892312158203124
-0.32257060546875,-0.00850599365234375,1.445074248046875
-0.54674986328125,-0.12712971435546874,1.2762325927734375
-0.11395259765625,-0.11536537841796875,0.88226873046875
-0.09304216796875,0.0191892138671875,0.6824604833984375
-0.1657423828125,0.10913736572265625,0.70335064453125
-0.18251935546875,0.07825598388671876,0.9621428759765625
-0.32257060546875,0.0289928271484375,1.301546552734375
-0.3262177734375,0.11452935302734375,1.4315570849609376
-0.33813185546875,0.055952763671875,1.4826765380859375
-0.5187882421875,0.01404231689453125,1.2251131396484376
-0.29169125,0.044188427734375,0.885709462890625
-0.28196546875,-0.07566074462890625,0.7704449267578125
-0.40037685546875,-0.046249904785156254,0.7522581982421875
-0.25692158203125,-0.08056255126953125,0.81640328125
-0.17814275390625,-0.0028689160156250004,0.942727314453125
-0.1735230078125,0.1456558251953125,1.0280083251953125
-0.22385392578125,0.142224560546875,1.0511103857421875
-0.25594900390624997,0.0008074389648437498,0.889641728515625
-0.2386857421875,0.095167216796875,0.7778179248046875
-0.30895451171875,-0.01978014892578125,0.778555224609375
-0.31868029296875,0.01159141357421875,0.899472392578125
-0.206104375,0.0505607763671875,1.0432458544921874
-0.28415376953125,0.07850107421875,1.2017653125
-0.35904228515625003,0.028257556152343752,1.374785
-0.4954463671875,0.1142842626953125,1.33546234375
-0.32354318359375,0.177517568359375,1.0747039794921875
-0.33108066406250003,0.004973974609375,0.965829375
-0.1258666796875,-0.0960032421875,1.0130165625
-0.18786853515625002,0.110852998046875,1.2393676025390625
-0.547479296875,-0.07909200927734375,0.9729566064453125
0.03314984375,-0.09845414550781251,0.778555224609375
0.0900456640625,-0.11977700439453125,0.88226873046875
-0.3485870703125,-0.0808076416015625,1.2472321337890624
-0.46481015625,0.1829095556640625,1.0520934521484375
-0.4332013671875,-0.1023755908203125,0.9360916162109375
-0.19832375,0.103010107421875,0.932896650390625
-0.31381740234375,-0.0092412646484375,0.9331424169921875
-0.0879361328125,0.0682072802734375,0.8576920703124999
-0.38335673828125,0.1760470263671875,0.87637033203125
-0.36196001953125,0.204967685546875,0.90389619140625
-0.35904228515625003,0.26256391357421877,1.032677890625
-0.158448046875,-0.025662316894531252,1.0963314404296876
-0.07748091796875001,0.05962911865234375,0.9088115234375
-0.098148203125,-0.093062158203125,0.741690234375
-0.17376615234375,-0.07566074462890625,0.8063268505859374
-0.30603677734375,-0.0033590966796874996,0.93142205078125
-0.3111428125,0.02360083984375,1.1528577587890625
-0.54091439453125,0.13732275390625,1.3081822509765626
-0.44608802734374997,0.1392834765625,1.093136474609375
-0.21364185546875,0.08609887451171874,0.8889044287109376
-0.27418484375,0.09394176513671874,0.735300302734375
-0.24281919921875,-0.0474753564453125,0.6057813037109375
-0.07188859375000001,-0.14379585693359376,0.723503505859375
-0.09255587890625,-0.067572763671875,0.89504859375
-0.3145468359375,0.0093856005859375,1.056271484375
-0.35369310546875,-0.07713128662109375,1.065610615234375
-0.19419029296875,0.0652661962890625,1.013508095703125
-0.37922328125,0.053992041015625,0.902421591796875
-0.1560166015625,-0.0376717431640625,0.8923451611328125
-0.31235853515625,0.05227640869140625,0.938303515625
-0.36876806640625,-0.0513968017578125,0.8918536279296875
-0.29971501953125,0.1084020947265625,0.935845849609375
-0.39818855468750003,0.08658905517578125,0.8771076318359375
-0.146777109375,0.059874208984374996,0.829674677734375
-0.31868029296875,0.22138873779296875,0.86457353515625
-0.20926525390625,0.18952699462890624,0.9402696484374999
-0.20294349609375,0.0103659619140625,0.888658662109375
-0.17692703125,0.17188049072265624,0.9852449365234375
-0.19419029296875,0.03512008544921875,0.9405154150390624
-0.2941226953125,-0.06536695068359374,0.94125271484375
-0.29825615234375,-0.01561361328125,0.8360646093749999
-0.3233000390625,-0.06928839599609375,0.6608330224609374
-0.22288134765625,-0.09404251953125001,0.6308494970703125
-0.37168580078125,-0.0955130615234375,0.59914560546875
-0.2630001953125,-0.06095532470703125,0.6814774169921874
-0.286828359375,-0.089140712890625,0.7443936669921875
-0.19175884765625,-0.1053166748046875,0.845403740234375
-0.3806821484375,-0.0641414990234375,0.952557978515625
-0.27296912109375,0.00472888427734375,1.116730068359375
-0.18397822265625,-0.00605509033203125,1.1695698876953124
-0.22093619140625,0.09835339111328124,1.1941465478515625
-0.221665625,0.04320806640625,1.166374921875
-0.2678630859375,0.02090484619140625,1.1076367041015625
-0.31746457031249997,0.04688442138671875,1.0147369287109376
-0.32354318359375,0.09149086181640625,0.963371708984375
-0.28196546875,0.0255615625,0.831640810546875
-0.2853694921875,0.04002189208984375,0.81148794921875
-0.34810078125,-0.015368522949218751,0.94911724609375
-0.30749564453125,-0.09012107421875,1.0457035205078125
-0.31819400390625,-0.006790361328125,1.066593681640625
-0.26907880859375,-0.020515419921875,0.992863701171875
-0.21558701171875,-0.05874951171875,0.896523193359375
-0.236254296875,0.06992291259765625,0.9577190771484375
-0.25084296875,0.0294830078125,0.988931435546875
-0.2221519140625,0.021885207519531248,0.965829375
-0.3038484765625,0.06845237060546874,0.9557529443359375
-0.2931501171875,0.0843832421875,0.93732044921875
-0.1958923046875,0.0505607763671875,0.94223578125
-0.37508982421875,0.0044837939453125,1.009084296875
-0.230418828125,0.08634396484375,1.06315294921875
-0.44754689453125,-0.0847290869140625,0.9901602685546875
-0.22190876953125,-0.00654527099609375,0.9754142724609375
-0.2785614453125,0.03928662109375,0.9183964208984375
-0.30068759765624997,0.08168724853515624,0.977134638671875
-0.2853694921875,-0.00605509033203125,0.9282270849609375
-0.28707150390625,0.0368357177734375,1.0260421923828125
-0.2941226953125,-0.00213364501953125,0.954524111328125
-0.24622322265625,0.016738310546875,0.9061080908203125
-0.28609892578125,0.110852998046875,0.9097945898437501
-0.2980130078125,0.00791505859375,0.94125271484375
-0.2853694921875,0.00227798095703125,0.9395323486328125
-0.2581373046875,0.05031568603515625,0.96484630859375
-0.27418484375,-0.03987755615234375,0.9127437890625
-0.24476435546875,0.03462990478515625,0.8957858935546875
-0.32864921874999997,0.00472888427734375,0.9559987109375
-0.3670660546875,-0.0013983740234375002,1.0122792626953125
-0.2805066015625,0.04394333740234375,1.0395593554687501
-0.22531279296875,0.1270289599609375,1.0712632470703125
-0.32281375,0.0466393310546875,0.9252778857421875
-0.33642984375,-0.03203466552734375,0.9596852099609375
-0.212912421875,0.1584005224609375,1.0157199951171876
-0.2717533984375,0.00816014892578125,0.9095488232421876
-0.24087404296875,-0.0170841552734375,1.02186416015625
-0.3096839453125,0.1093824560546875,1.147205126953125
-0.30749564453125,-0.024436865234375,1.043983154296875
-0.25205869140625,0.07188363525390624,1.0928907080078125
-0.23357970703125,0.16158669677734375,1.0476696533203125
-0.26372962890625,-0.095022880859375,0.89209939453125
-0.3233000390625,-0.01291761962890625,1.03169482421875
-0.31333111328125,0.08462833251953125,1.033169423828125
-0.28415376953125,-0.08227818359375,0.908319990234375
-0.25157240234375,0.0417375244140625,1.0614325830078124
-0.23528171875,0.0270321044921875,1.003677431640625
-0.44122513671875,0.0044837939453125,0.932896650390625
-0.13680818359375,0.00276816162109375,1.0648733154296874
-0.26227076171875,0.010611052246093749,1.0427543212890624
-0.30263275390625,0.0172284912109375,1.07888201171875
-0.17133470703125,0.08070688720703124,1.1002637060546876
-0.3417790234375,0.07237381591796875,0.95698177734375
-0.3111428125,0.03855135009765625,1.0501273193359375
-0.2396583203125,0.09051050048828126,1.0742124462890625
-0.244034921875,-0.118551552734375,0.9056165576171875
-0.294608984375,0.04198261474609375,0.9601767431640625
-0.27151025390625,0.022620478515625,1.04742388671875
-0.35661083984374997,-0.05115171142578125,1.0471781201171875
-0.20780638671875,0.067717099609375,1.0727378466796875
-0.2318776953125,0.10423555908203125,1.04545775390625
-0.174009296875,0.01257177490234375,1.0149826953125
-0.29728357421875,0.06158984130859375,1.09657720703125
-0.24768208984375,0.05227640869140625,1.0727378466796875
-0.26640421875,0.004973974609375,1.001219765625
-0.316005703125,0.08805959716796875,0.9670582080078125
-0.23503857421875,0.1338914892578125,0.9501003125
-0.32402947265625,0.0373258984375,0.9360916162109375
-0.2931501171875,0.16991976806640624,1.0491442529296875
-0.267376796875,0.1456558251953125,1.1017383056640626
-0.269321953125,0.11060790771484375,1.12606919921875
-0.1633109375,0.07776580322265625,1.094119541015625
-0.18738224609375,-0.03693647216796875,0.90389619140625
-0.40134943359374997,0.00619942626953125,0.954032578125
-0.42128728515625,0.0137972265625,1.084288876953125
-0.26324333984375,0.0456589697265625,1.0909245751953125
-0.26275705078125,0.159871064453125,1.0869923095703125
-0.27613,-0.0332601171875,1.02383029296875
-0.097175625,-0.044534272460937496,1.064627548828125
-0.23892888671875,0.04884514404296875,1.158018857421875
-0.3262177734375,0.00766996826171875,1.09657720703125
-0.29144810546875,-0.06928839599609375,1.0024485986328124
-0.18640966796875,0.016738310546875,0.9768888720703125
-0.3729015234375,-0.09967959716796874,0.8495817724609375
-0.20804953125,-0.06095532470703125,0.9407611816406249
-0.3242726171875,0.02923791748046875,1.0260421923828125
-0.220693046875,-0.055808427734375,0.9704989404296875
-0.22336763671875,-0.1327667919921875,0.984999169921875
-0.35709712890625,0.080461796875,1.1415524951171876
-0.38141158203125003,0.07923634521484375,1.067576748046875
-0.31965287109375,-0.0582593310546875,1.024321826171875
-0.24136033203125,0.1574201611328125,0.9572275439453125
-0.2503566796875,-0.027868129882812502,0.8441749072265625
-0.236254296875,0.044188427734375,1.0230929931640624
-0.27588685546875,0.17261576171875,1.14966279296875
-0.35563826171875,0.08560869384765625,1.0530765185546875
-0.39405509765625,0.08707923583984375,1.0058893310546875
-0.29387955078125,0.16844922607421875,0.9547698779296875
-0.22361078125,0.1221271533203125,0.926998251953125
-0.3437241796875,0.11796061767578125,0.8431918408203125
-0.3330258203125,-0.09624833251953124,0.6962234130859375
-0.1112780078125,-0.07320984130859375,0.728418837890625
-0.247925234375,-0.12761989501953125,0.7257154052734375
-0.23795630859375,-0.10164031982421876,0.657638056640625
-0.25157240234375,-0.186196484375,0.7576650634765625
-0.21801845703125,-0.09281706787109376,0.92945591796875
-0.290718671875,-0.0038492773437499997,1.0058893310546875
-0.411318359375,0.0922261328125,0.93535431640625
-0.18251935546875,0.127519140625,0.8613785693359375
-0.07359060546875,0.16648850341796875,0.9297016845703125
-0.35126166015625,0.25079957763671873,1.0771616455078126
-0.29169125,0.08070688720703124,1.156052724609375
-0.27491427734375,-0.07075893798828126,1.2319946044921875
-0.39259623046875003,0.05178622802734375,1.162934189453125
-0.28998923828125,-0.16144236083984376,0.985490703125
-0.21510072265625,-0.05458297607421875,0.8962774267578125
-0.31478998046875,0.015022678222656249,0.98942296875
-0.36779548828124997,0.023845930175781252,1.0953483740234375
-0.247925234375,-0.093062158203125,1.077407412109375
-0.34445361328125,0.09247122314453125,1.0978060400390626
-0.21558701171875,0.13462676025390624,1.0014655322265624
-0.09839134765625,-0.04134809814453125,0.8136998486328125
-0.2017277734375,0.03413972412109375,0.921099853515625
-0.34299474609375,-0.0254172265625,0.9783634716796875
-0.27199654296875,-0.05874951171875,1.0658563818359374
-0.228473671875,0.1035002880859375,1.2590289306640625
-0.42323244140625,0.18217428466796876,1.2192147412109375
-0.4108320703125,0.05913893798828125,1.0565172509765626
-0.2941226953125,0.00472888427734375,0.9926179345703126
-0.36220316406249997,0.16893940673828126,0.93142205078125
-0.21947732421875,0.04712951171875,0.8019030517578125
-0.07577890625,-0.1435507666015625,0.799199619140625
-0.156502890625,-0.05703387939453125,0.9700074072265625
-0.4001337109375,-0.00703545166015625,1.0503730859375
-0.2805066015625,-0.104826494140625,1.06806828125
-0.31089966796875,0.08217742919921875,1.0149826953125
-0.28026345703125,-0.0009081933593750001,0.810996416015625
-0.205131796875,0.008895419921875,0.7733941259765625
-0.24281919921875,-0.0759058349609375,0.82721701171875
-0.37338781249999997,0.1250682373046875,0.94321884765625
-0.312115390625,0.056933125,0.8952943603515625
-0.22968939453125,0.134381669921875,0.871455
-0.1550440234375,0.067717099609375,0.984016103515625
-0.30506419921875,-0.01561361328125,1.0579918505859376
-0.22361078125,0.022620478515625,1.0933822412109375
-0.294608984375,-0.0778665576171875,1.0267794921875
-0.2085358203125,0.01600303955078125,1.08871267578125
-0.33521412109375,0.04884514404296875,1.1272980322265624
-0.3252451953125,0.0623251123046875,1.15556119140625
-0.28561263671875,0.11011772705078125,1.0078554638671875
-0.302389609375,0.0003172583007812497,0.84687833984375
-0.19175884765625,0.04345315673828125,0.8569547705078124
-0.20148462890625,0.02531647216796875,0.780521357421875
-0.21266927734375,-0.01561361328125,0.84687833984375
-0.17036212890625,0.0544822216796875,0.9557529443359375
-0.314060546875,-0.07026875732421875,1.0245675927734375
-0.30506419921875,0.01551285888671875,1.2037314453125
-0.34542619140624997,0.07139345458984375,1.0044147314453125
-0.28269490234375,0.021885207519531248,0.850319072265625
-0.2172890234375,0.04296297607421875,0.8485987060546875
-0.23357970703125,-0.01169216796875,0.882760263671875
-0.2260422265625,0.01575794921875,0.929947451171875
-0.24719580078125,0.0451687890625,0.7947758203124999
-0.2600824609375,0.0373258984375,0.845403740234375
-0.277102578125,-0.0661022216796875,0.8662939013671875
-0.2523018359375,-0.0298288525390625,0.95796484375
-0.30530734375,0.02972809814453125,1.03562708984375
-0.33181009765625,-0.0337502978515625,0.9311762841796875
-0.2800203125,-0.0513968017578125,0.9363373828125
-0.25594900390624997,-0.05262225341796875,0.8756330322265625
-0.2722396875,-0.046004814453125,0.83311541015625
-0.22142248046875002,-0.06242586669921875,0.833606943359375
-0.24427806640625,-0.048455717773437504,0.777572158203125
-0.23795630859375,-0.0337502978515625,0.78396208984375
-0.22823052734375,0.028257556152343752,0.868014267578125
-0.24427806640625,-0.05801424072265625,0.8662939013671875
-0.27005138671875,0.0711483642578125,0.9442019140625
-0.24573693359375,0.03806116943359375,0.993846767578125
-0.3417790234375,0.0221302978515625,1.0179318945312499
-0.30846822265625,0.0162481298828125,0.9972875
-0.33764556640625,-0.010221625976562499,0.8825144970703125
-0.265431640625,0.0530116796875,0.7139186083984375
-0.129270703125,0.06011929931640625,0.6593584228515625
-0.15723232421875,0.0878145068359375,0.8264797119140626
-0.28950294921874997,0.01575794921875,1.0255506591796875
-0.265431640625,0.0250713818359375,1.1096028369140625
-0.277102578125,0.14639109619140625,1.1287726318359375
-0.3913805078125,0.08315779052734375,1.0157199951171876
-0.25594900390624997,0.08242251953125,0.9424815478515625
-0.30506419921875,-0.00311400634765625,0.9572275439453125
-0.18470765625,-0.01487834228515625,0.924049052734375
-0.222638203125,0.0255615625,0.82525087890625
-0.2678630859375,-0.0033590966796874996,0.7729025927734375
-0.2931501171875,-0.00997653564453125,0.9481341796875
-0.384086171875,0.030463369140625002,1.132459130859375
-0.25886673828125,0.0035034326171875,1.0702801806640625
-0.24573693359375,0.014777587890624999,1.029237158203125
-0.302389609375,-0.04575972412109375,1.044966220703125
-0.2240970703125,0.03610044677734375,1.23224037109375
-0.34104958984375,0.11894097900390625,1.1828412841796876
-0.269321953125,0.1015395654296875,1.0307117578125
-0.24184662109375,0.0035034326171875,0.811979482421875
-0.28196546875,0.07090327392578125,0.9454307470703125
-0.3155194140625,0.09418685546875,1.1061621044921874
-0.33253953125,0.10864718505859375,0.952557978515625
-0.19370400390625,-0.01953505859375,0.841471474609375
-0.2722396875,0.0338946337890625,0.8859552294921875
-0.24816837890625,-0.0023787353515625003,1.03661015625
-0.34104958984375,0.0211499365234375,1.0621698828125
-0.36196001953125,0.01600303955078125,1.0044147314453125
-0.325731484375,-0.0729647509765625,0.8780906982421874
-0.3145468359375,0.028502646484374998,0.863098935546875
-0.1735230078125,0.01575794921875,0.8694888671875
-0.0957167578125,0.0270321044921875,1.02972869140625
-0.3612305859375,0.0770305322265625,1.0865007763671874
-0.40037685546875,0.08560869384765625,1.1292641650390625
-0.27442798828125,-0.0028689160156250004,1.0806023779296874
-0.252788125,0.05031568603515625,1.069542880859375
-0.30919765625,-0.0298288525390625,0.9916348681640625
-0.21607330078125,0.02286556884765625,1.0643817822265624
-0.3446967578125,0.03855135009765625,1.0742124462890625
-0.38821962890625,0.0701680029296875,1.0825685107421874
-0.3038484765625,-0.046004814453125,1.0511103857421875
-0.199296328125,-0.05605351806640625,1.00220283203125
-0.20391607421875,0.03266918212890625,0.957473310546875
-0.2989855859375,0.026051743164062502,0.9606682763671874
-0.265431640625,0.02776737548828125,1.0683140478515625
-0.2172890234375,0.015022678222656249,1.162934189453125
-0.28026345703125,0.04639424072265625,1.236664169921875
-0.29485212890625,0.1025199267578125,1.0889584423828125
-0.24719580078125,0.02580665283203125,0.9292101513671875
-0.2411171875,0.0280124658203125,0.98254150390625
-0.33642984375,0.050070595703125,1.06708521484375
-0.32013916015625,-0.03693647216796875,1.062661416015625
-0.22142248046875002,0.06109966064453125,1.0167030615234376
-0.3194097265625,-0.0768861962890625,0.9346170166015625
-0.30798193359375,0.0780108935546875,0.9164302880859375
-0.1667149609375,0.0686974609375,0.9700074072265625
-0.23917203125,-0.01291761962890625,0.9650920751953125
-0.2153438671875,-0.1121792041015625,0.97860923828125
-0.259596171875,-0.08693489990234375,1.005643564453125
-0.2668905078125,-0.09036616455078125,0.954032578125
-0.27734572265625,0.0329142724609375,0.871946533203125
-0.18300564453125,-0.010711806640625,0.705808310546875
-0.2289599609375,0.04198261474609375,0.780521357421875
-0.279047734375,0.0544822216796875,0.9370746826171875
-0.2357680078125,0.02776737548828125,1.0992806396484376
-0.27053767578125,0.0037485229492187503,0.9985163330078125
-0.175954453125,-0.02321141357421875,0.9370746826171875
-0.29047552734375,-0.114630107421875,0.8613785693359375
-0.2396583203125,0.0505607763671875,0.883743330078125
-0.26324333984375,0.05080586669921875,0.8717007666015625
-0.21461443359375,0.0191892138671875,0.88030259765625
-0.23917203125,0.04737460205078125,0.9690243408203125
-0.28196546875,0.13511694091796875,1.1479424267578124
-0.2843969140625,0.1387932958984375,1.1926719482421875
-0.35199109375,0.05962911865234375,0.98450763671875
-0.3048210546875,0.061834931640625,0.8923451611328125
-0.31673513671875,0.069677822265625,0.866048134765625
-0.29144810546875,-0.044044091796875,0.913235322265625
-0.2484115234375,-0.0082609033203125,0.799199619140625
-0.1686601171875,-0.02517213623046875,0.7104778759765625
-0.2299325390625,-0.00458454833984375,0.8943112939453125
-0.2766162890625,0.030463369140625002,1.1381117626953126
-0.30992708984375,0.01551285888671875,1.195375380859375
-0.31697828125,-0.013162709960937501,1.1720275537109375
-0.48012826171875,-0.0023787353515625003,1.087729609375
-0.2834243359375,-0.083258544921875,0.909303056640625
-0.3145468359375,-0.0749254736328125,0.829674677734375
-0.11784291015625001,0.052031318359375,0.7615973291015625
-0.19029998046875,-0.1308060693359375,0.7335799365234374
-0.29096181640625,-0.04698517578125,0.8869382958984375
-0.37168580078125,-0.138158779296875,1.0280083251953125
-0.3155194140625,0.03217900146484375,0.8775991650390624
-0.21655958984375,-0.0866898095703125,0.7031048779296875
-0.21972046875,0.06943273193359376,0.737266435546875
-0.210967265625,0.06649164794921875,0.8576920703124999
-0.31527626953125,0.02360083984375,0.9080742236328125
-0.3446967578125,0.07065818359375,0.8736668994140625
-0.37144265625,0.0270321044921875,0.7989538525390625
-0.2610550390625,-0.07173929931640625,0.9134810888671875
-0.3437241796875,0.09590248779296875,1.171781787109375
-0.35320681640625,0.0897752294921875,1.05233921875
-0.24087404296875,0.03462990478515625,1.071509013671875
-0.2416034765625,0.08168724853515624,0.9459222802734375
-0.2853694921875,-0.0567887890625,0.9277355517578125
-0.22968939453125,0.01992448486328125,1.00810123046875
-0.33326896484375,-0.013162709960937501,0.8957858935546875
-0.27783201171875,-0.1131595654296875,0.9577190771484375
-0.27199654296875,0.10987263671875,1.0348897900390626
-0.279047734375,-0.13987441162109376,0.971236240234375
-0.24281919921875,-0.07811164794921875,1.016948828125
-0.26032560546875,0.03462990478515625,1.0678225146484375
-0.26032560546875,-0.10948321044921874,0.90586232421875
-0.20002576171875,-0.03350520751953125,0.91176072265625
-0.2503566796875,-0.13717841796875,0.9311762841796875
-0.25789416015625,-0.14183513427734376,0.9196252539062499
-0.30895451171875,-0.0151234326171875,0.9363373828125
-0.333512109375,-0.0562986083984375,0.8151744482421874
-0.23747001953125,-0.057278969726562504,0.8407341748046875
-0.28561263671875,-0.14894275390625,0.8210728466796875
-0.3019033203125,-0.19330410400390624,0.7832247900390625
-0.28172232421875,-0.06389640869140625,0.79772501953125
-0.23795630859375,-0.0371815625,0.7414444677734375
-0.2328502734375,0.018699033203125,0.7625803955078125
-0.27151025390625,-0.0161037939453125,0.800182685546875
-0.181789921875,-0.00777072265625,0.8572005371093749
-0.28998923828125,-0.02664267822265625,0.9196252539062499
-0.29679728515625,0.0299731884765625,0.84097994140625
-0.3189234375,-0.03350520751953125,0.86260740234375
-0.2056180859375,0.03757098876953125,0.9591936767578125
-0.28755779296875,0.08242251953125,0.9503460791015625
-0.335457265625,0.0182088525390625,0.8156659814453124
-0.24233291015625,0.04835496337890625,0.899472392578125
-0.2707808203125,0.0319339111328125,0.8992266259765624
-0.251815546875,-0.0028689160156250004,1.0186691943359376
-0.27977716796875,0.0530116796875,0.9129895556640625
-0.27929087890625,-0.0700236669921875,0.7534870312499999
-0.2386857421875,-0.08301345458984374,0.8643277685546875
-0.32694720703125,0.032424091796875,1.13589986328125
-0.2406308984375,0.14418528320312501,1.01989802734375
-0.24233291015625,-0.05458297607421875,0.7488174658203125
-0.29047552734375,-0.032279755859375,0.85867513671875
-0.36876806640625,0.03953171142578125,1.0896957421875
-0.27613,-0.0288484912109375,1.15556119140625
-0.29728357421875,0.05472731201171875,0.870963466796875
-0.23917203125,-0.08154291259765625,0.7139186083984375
-0.25643529296875,-0.12222790771484375,0.943710380859375
-0.33764556640625,-0.04723026611328125,1.2752495263671875
-0.30141703125,-0.0259074072265625,1.1970957470703125
-0.29144810546875,-0.18497103271484375,0.881777197265625
-0.22920310546875,-0.1768830517578125,0.85867513671875
-0.36876806640625,-0.042328459472656246,1.1494170263671875
-0.30798193359375,-0.030319033203124998,1.0943653076171875
-0.232363984375,-0.1161006494140625,0.8692431005859375
-0.34032015625,-0.10507158447265624,0.861132802734375
-0.25303126953125,-0.06267095703125,1.0373474560546876
-0.21558701171875,0.0030132519531249997,1.1005094726562499
-0.29631099609375,-0.0009081933593750001,0.9756600390625
-0.18592337890625,-0.1062970361328125,0.7945300537109374
-0.27613,-0.01046671630859375,0.8839890966796875
-0.27248283203125,-0.012672529296875,1.0014655322265624
-0.325731484375,-0.0055649096679687505,1.0825685107421874
-0.18786853515625002,0.0574233056640625,1.0307117578125
-0.21412814453125,-0.02615249755859375,0.9520664453125
-0.28074974609375003,0.03168882080078125,1.0511103857421875
-0.29485212890625,0.063795654296875,1.0643817822265624
-0.27515742187500003,0.06600146728515625,1.057746083984375
-0.24476435546875,0.148106728515625,0.92650671875
-0.3145468359375,0.05105095703125,0.8092760498046875
-0.2114535546875,0.009140510253906251,0.9847534033203125
-0.2124261328125,-0.0308092138671875,0.941744248046875
-0.20415921875,-0.05997496337890625,0.963371708984375
-0.189570546875,-0.0219859619140625,1.079373544921875
-0.31138595703125,0.0142874072265625,0.966320908203125
-0.26032560546875,-0.09085634521484375,0.92945591796875
-0.2600824609375,-0.07713128662109375,1.071509013671875
-0.1764407421875,-0.027868129882812502,1.1014925390624999
-0.26081189453125,-0.06193568603515625,0.9606682763671874
-0.25254498046875,-0.085219267578125,0.78002982421875
-0.21072412109375,-0.17247142578125,0.7473428662109375
-0.2746711328125,-0.1670794384765625,1.0597122167968749
-0.1910294140625,-0.16291290283203125,1.0267794921875
-0.24719580078125,-0.18815720703125,0.9191337207031249
-0.19516287109375,-0.1210024560546875,0.7581565966796875
-0.20464550781250002,0.0015427099609375003,0.7763433251953125
-0.1900568359375,-0.0268877685546875,0.8569547705078124
-0.1628246484375,0.04394333740234375,0.8653108349609375
-0.23114826171875,0.0530116796875,0.881777197265625
-0.346155625,0.06624655761718751,0.9704989404296875
-0.3578265625,0.0887948681640625,1.0584833837890626
-0.25546271484375,0.0878145068359375,1.0761785791015626
-0.28269490234375,0.1152646240234375,0.7930554541015625
-0.36439146484375,-0.0425735498046875,0.73087650390625
-0.23139140625,7.216796875000007e-05,0.8997181591796874
-0.30700935546875,0.00766996826171875,1.0319405908203125
-0.37606240234375,-0.02762303955078125,0.984999169921875
-0.1696326953125,-0.015368522949218751,0.8259881787109375
-0.2834243359375,-0.12761989501953125,0.78986048828125
-0.23698373046875,0.05815857666015625,1.0174403613281249
-0.29144810546875,0.06109966064453125,1.0363643896484376
-0.2192341796875,-0.0210056005859375,0.97369390625
-0.38870591796875,0.0466393310546875,0.947642646484375
-0.34226531250000003,-0.0729647509765625,1.0975602734375
-0.39697283203125,-0.04183827880859375,1.209138310546875
-0.46797103515625,-0.13987441162109376,0.9481341796875
-0.20926525390625,-0.13644314697265625,0.5605602490234375
-0.06678255859375,-0.0646316796875,0.4873218017578125
-0.2591098828125,-0.08889562255859375,0.7055625439453125
-0.197351171875,-0.18497103271484375,1.0004824658203124
-0.25497642578125,-0.09722869384765626,1.2777071923828125
-0.5285140234375,0.0329142724609375,1.27254609375
-0.37217208984375,-0.0337502978515625,1.0543053515625
-0.35369310546875,-0.00507472900390625,1.0820769775390624
-0.463837578125,-0.01046671630859375,0.84786140625
-0.28415376953125,-0.11561046875,0.7070371435546875
-0.23260712890625002,-0.295016591796875,0.6662398876953125
-0.17668388671875,-0.0602200537109375,0.7335799365234374
-0.1210037890625,-0.0788469189453125,0.88226873046875
-0.36390517578125,-0.1484525732421875,0.9874568359375
-0.41010263671875,-0.00360418701171875,1.0071181640625
-0.3388612890625,-0.2445279833984375,1.034152490234375
-0.16890326171875,-0.2043331689453125,1.1189419677734376
-0.2231244921875,-0.093062158203125,1.1400778955078126
-0.34445361328125,-0.2268814794921875,1.1297556982421875
-0.17182099609375,-0.0464949951171875,1.0806023779296874
-0.41545181640625,0.01698340087890625,1.00613509765625
-0.430769921875,-0.11095375244140625,1.300071953125
-0.43587595703125,-0.11928682373046876,1.3760138330078124
-0.27588685546875,0.030708459472656248,1.2044687451171874
-0.2736985546875,0.0829127001953125,1.0358728564453126
-0.237226875,0.020659755859375,1.0068723974609375
-0.27734572265625,-0.08889562255859375,1.212087509765625
-0.30068759765624997,0.06600146728515625,1.4305740185546876
-0.44511544921875,0.09051050048828126,1.441633515625
-0.44511544921875,0.08707923583984375,1.2437914013671876
-0.3651208984375,0.0152677685546875,1.0348897900390626
-0.310170234375,-0.0229663232421875,0.9827872705078124
-0.312115390625,-0.0582593310546875,1.16145958984375
-0.1229489453125,0.0069346972656249995,1.1919346484375
-0.17376615234375,-0.0396324658203125,1.346767607421875
-0.4983641015625,0.00399361328125,1.3588101708984375
-0.37946642578125,-0.11732610107421874,1.1233657666015624
-0.21583015625000002,-0.1543347412109375,1.09854333984375
-0.2211793359375,-0.02027032958984375,1.2811479248046875
-0.26859251953125,0.021885207519531248,1.2300284716796874
-0.3242726171875,-0.0964934228515625,1.0683140478515625
-0.27491427734375,-0.22663638916015624,1.0343982568359376
-0.34445361328125,-0.04183827880859375,1.0707717138671875
-0.35126166015625,-0.21242114990234376,1.0078554638671875
-0.29679728515625,-0.1013952294921875,1.069542880859375
-0.2566784375,0.04247279541015625,1.0663479150390625
-0.28901666015625,-0.00654527099609375,0.9324051171875
-0.23114826171875,-0.0710040283203125,0.8068183837890625
-0.267376796875,0.024581201171875,0.9655836083984375
-0.1540714453125,-0.1719812451171875,0.905370791015625
-0.2542469921875,-0.0210056005859375,1.2676307617187499
-0.50055240234375,0.19491898193359375,1.3494710400390626
-0.22190876953125,0.01110123291015625,0.998762099609375
-0.1754681640625,0.09051050048828126,1.0810939111328124
-0.28123603515625,0.09688284912109375,0.9872110693359375
-0.3116291015625,-0.1464918505859375,1.032677890625
-0.26324333984375,0.0868341455078125,1.23224037109375
-0.32548833984375003,0.01257177490234375,1.0619241162109374
-0.32694720703125,-0.09624833251953124,0.996795966796875
-0.26178447265625,-0.04526954345703125,0.85867513671875
-0.12659611328125,-0.18840229736328126,0.83311541015625
-0.271267109375,-0.07909200927734375,0.82525087890625
-0.29363640625,-0.11732610107421874,0.73775796875
-0.17182099609375,-0.19624518798828125,0.777080625
-0.27540056640625,-0.075415654296875,0.8033776513671875
-0.2878009375,-0.154824921875,0.8756330322265625
-0.19346085937500002,-0.151883837890625,0.878827998046875
-0.31138595703125,-0.07051384765625,0.8107506494140625
-0.27588685546875,-0.16854998046875,0.790352021484375
-0.28318119140625,-0.05997496337890625,0.7869112890625
-0.247925234375,-0.027868129882812502,0.8397511083984375
-0.2056180859375,0.055462583007812497,0.8559717041015625
-0.22677166015625,0.0633054736328125,0.86653966796875
-0.20804953125,-0.035711020507812496,0.8618701025390625
-0.218747890625,0.04247279541015625,0.94518498046875
-0.18106048828125,-0.0308092138671875,1.034152490234375
-0.31527626953125,-0.02860340087890625,1.107882470703125
-0.27151025390625,-0.1406096826171875,1.0049062646484375
-0.35077537109375,-0.01978014892578125,0.9009469921875
-0.2814791796875,0.0711483642578125,0.788385888671875
-0.333512109375,0.052031318359375,0.7271900048828125
-0.18738224609375,-0.0063001806640625,0.8520394384765625
-0.2566784375,-0.1038461328125,1.0280083251953125
-0.2192341796875,-0.07051384765625,0.9931094677734374
-0.27005138671875,-0.1033559521484375,0.7335799365234374
-0.23917203125,-0.1587463671875,0.683197783203125
-0.17765646484375,-0.10654212646484375,0.91077765625
-0.31381740234375,-0.0543378857421875,1.06020375
-0.30846822265625,-0.05752406005859375,1.0255506591796875
-0.30263275390625,-0.0945327001953125,0.887675595703125
-0.28901666015625,-0.14502130859375,0.954524111328125
-0.299471875,-0.08423890625,1.062661416015625
-0.3485870703125,-0.052867343750000004,0.95108337890625
-0.20804953125,-0.09012107421875,0.678282451171875
-0.2318776953125,-0.083258544921875,0.834590009765625
-0.21996361328125,-0.07419020263671874,1.11034013671875
-0.2133987109375,-0.10507158447265624,1.149171259765625
-0.37022693359375003,-0.01046671630859375,0.975168505859375
-0.2425760546875,-0.15948163818359376,0.7340714697265625
-0.3057936328125,0.00521906494140625,0.858183603515625
-0.39478453125,0.0838930615234375,1.0496357861328125
-0.2435486328125,0.00227798095703125,0.97369390625
-0.2912049609375,-0.03056412353515625,0.7453767333984375
-0.2600824609375,0.0020328906249999995,0.8240220458984375
-0.24233291015625,0.016738310546875,0.9609140429687499
-0.30068759765624997,0.0010525292968750002,1.0004824658203124
-0.315033125,-0.0001729223632812504,0.9129895556640625
-0.24938410156250002,-0.17173615478515625,0.93732044921875
-0.32840607421875,-0.20163717529296876,1.035135556640625
-0.2561921484375,-0.06144550537109375,0.9945840673828125
-0.21947732421875,-0.14698203125,0.902421591796875
-0.16549923828125,-0.1347275146484375,0.8790737646484375
-0.16647181640625,-0.01095689697265625,0.9759058056640625
-0.32208431640625,-0.0857094482421875,1.0088385302734375
-0.331566953125,-0.10899302978515625,1.013508095703125
-0.25059982421875,-0.10507158447265624,0.9999909326171875
-0.30409162109375,-0.11242429443359375,0.8775991650390624
-0.26129818359375,-0.13252170166015625,0.9272440185546875
-0.2299325390625,-0.2464887060546875,0.9196252539062499
-0.14312994140625,-0.1680597998046875,1.0383305224609374
-0.2488978125,-0.17663796142578125,1.011541962890625
-0.37314466796875,-0.1553151025390625,0.9277355517578125
-0.2153438671875,-0.212666240234375,0.809030283203125
-0.1073876953125,-0.07713128662109375,0.8365561425781249
-0.24136033203125,-0.050661530761718754,0.9714820068359376
-0.3500459375,0.010856142578125,1.229782705078125
-0.16015005859375,-0.1023755908203125,1.3706069677734374
-0.4400094140625,0.02090484619140625,1.360530537109375
-0.3466419140625,-0.0268877685546875,1.2349438037109375
-0.302389609375,-0.1484525732421875,1.0501273193359375
-0.32159802734375,-0.1170810107421875,0.951574912109375
-0.19613544921875,-0.140119501953125,0.694011513671875
-0.117599765625,-0.181294677734375,0.5959506396484375
-0.27005138671875,-0.1553151025390625,0.692045380859375
-0.1842213671875,-0.21585241455078125,0.758893896484375
-0.3067662109375,-0.24624361572265624,0.8972604931640625
-0.39405509765625,-0.09183670654296874,0.9478884130859375
-0.2484115234375,-0.15703073486328126,0.769707626953125
-0.314060546875,-0.1357078759765625,0.7556989306640625
-0.33959072265625,0.04492369873046875,0.9186421875
-0.22750109375,-0.09820905517578125,0.84491220703125
-0.37752126953125,-0.05409279541015625,0.9793465380859375
-0.32597462890625,-0.04575972412109375,1.198324580078125
-0.26421591796875,-0.09967959716796874,1.106899404296875
-0.24136033203125,-0.02370159423828125,1.1091113037109375
-0.29728357421875,0.0133070458984375,1.049881552734375
-0.32354318359375,-0.19403937500000001,0.7778179248046875
-0.2795340234375,-0.1259042626953125,0.9191337207031249
-0.37703498046875,0.0103659619140625,1.01989802734375
-0.3184371484375,-0.09477779052734375,0.8392595751953125
-0.35028908203125,-0.18399067138671876,0.880794130859375
-0.34980279296875,-0.18840229736328126,0.7340714697265625
-0.23819945312500002,-0.21438187255859376,0.5942302734375
-0.16841697265625,-0.15556019287109374,0.6991726123046875
-0.3359435546875,0.014777587890624999,0.7212916064453125
-0.32986494140625,-0.00605509033203125,0.8525309716796875
-0.39867484375,-0.0798272802734375,1.07691587890625
-0.3612305859375,0.03315936279296875,1.056271484375
-0.1715778515625,-0.02958376220703125,0.9528037451171875
-0.1443456640625,-0.228352021484375,0.8913620947265625
-0.44900576171875,-0.02272123291015625,1.0648733154296874
-0.2989855859375,-0.1700205224609375,1.0147369287109376
-0.04052294921875,-0.189137568359375,1.0496357861328125
-0.35223423828125,-0.0337502978515625,1.16342572265625
-0.38457246093749997,-0.17835359375,1.096085673828125
-0.2591098828125,-0.068553125,1.04152548828125
-0.27807515625,-0.1102184814453125,1.0157199951171876
-0.29752671875000003,-0.107767578125,1.0211268603515624
-0.19710802734375,-0.2190385888671875,0.98450763671875
-0.29825615234375,-0.04723026611328125,1.001711298828125
-0.226528515625,-0.12124754638671875,0.88226873046875
-0.2114535546875,-0.23594982177734375,0.8136998486328125
-0.1861665234375,-0.19207865234375,0.945676513671875
-0.3797095703125,-0.09036616455078125,1.041033955078125
-0.31187224609374997,0.04124734375,1.01596576171875
-0.2036729296875,-0.03497574951171875,0.8884128955078126
-0.253760703125,0.02335574951171875,0.894557060546875
-0.25084296875,0.01845394287109375,1.0801108447265624
-0.2333365625,-0.01438816162109375,1.0592206835937499
-0.2464663671875,0.14124419921875,1.0594664501953126
-0.21655958984375,0.010611052246093749,0.9768888720703125
-0.09134015625,-0.00605509033203125,0.97369390625
-0.18689595703125,0.03021827880859375,1.0464408203125
-0.2513292578125,-0.1195319140625,0.9007012255859375
-0.1492085546875,-0.09796396484375,0.874895732421875
-0.257651015625,-0.0925719775390625,0.8893959619140624
-0.2736985546875,-0.14967802490234375,1.0132623291015626
-0.23139140625,-0.02958376220703125,0.9936010009765625
-0.292663828125,-0.15359947021484374,0.725469638671875
-0.209022109375,-0.2058037109375,0.6416632275390625
-0.205131796875,-0.10286577148437501,0.7856824560546875
-0.3126016796875,-0.12614935302734376,0.709740576171875
-0.240144609375,-0.13987441162109376,0.6824604833984375
-0.18640966796875,-0.11389483642578124,0.7950215869140624
-0.24622322265625,-0.07615092529296875,0.6269172314453125
-0.1550440234375,-0.149923115234375,0.6460870263671875
-0.2484115234375,-0.126394443359375,0.7198170068359375
-0.3048210546875,-0.13938423095703126,0.573094345703125
-0.190543125,-0.14477621826171874,0.6416632275390625
-0.27005138671875,-0.1317864306640625,0.6593584228515625
-0.2843969140625,-0.11364974609375,0.588823408203125
-0.27005138671875,-0.15654055419921875,0.589806474609375
-0.30141703125,-0.12811007568359375,0.6436293603515625
-0.2367405859375,-0.1523740185546875,0.5207460595703125
-0.22093619140625,-0.18987283935546875,0.4942032666015625
-0.23649744140625,-0.060710234375,0.6947488134765625
-0.24768208984375,-0.25261596435546874,0.6711552197265624
-0.1851939453125,0.04835496337890625,0.7424275341796875
-0.19564916015625,-0.0386521044921875,0.693028447265625
-0.018396796875,0.0691876416015625,0.82328474609375
-0.42760904296875,0.13805802490234376,0.9886856689453125
-0.4020788671875,0.03928662109375,0.938795048828125
-0.26056875,-0.15114856689453124,0.762826162109375
-0.36390517578125,0.021640117187500002,0.7493089990234375
-0.36293259765625,-0.16977543212890625,0.5556449169921875
-0.19321771484375,-0.23913599609375,0.491499833984375
-0.1287844140625,-0.20702916259765625,0.5182883935546875
-0.15528716796875,-0.0371815625,0.63256986328125
-0.23212083984375,-0.0366913818359375,0.72497810546875
-0.3155194140625,-0.13154134033203124,0.91372685546875
-0.27272597656249997,-0.0719843896484375,1.0142453955078126
-0.19467658203125,-0.044044091796875,0.8967689599609375
-0.26275705078125,-0.0376717431640625,0.9346170166015625
-0.33424154296874997,-0.0935523388671875,1.053813818359375
-0.27734572265625,7.216796875000007e-05,1.21061291015625
-0.32694720703125,0.081442158203125,1.2555881982421875
-0.33642984375,-0.0406128271484375,1.2329776708984375
-0.4682141796875,0.07776580322265625,1.1420440283203126
-0.279047734375,-0.0513968017578125,0.784453623046875
-0.23260712890625002,-0.02664267822265625,0.668451787109375
-0.15480087890625,-0.09183670654296874,0.6672229541015625
-0.0840458203125,-0.18521612304687501,0.6529684912109375
-0.1492085546875,-0.0999246875,0.80362341796875
-0.20294349609375,-0.11291447509765624,1.0599579833984376
-0.35344996093750003,-0.1288453466796875,1.0678225146484375
-0.44171142578125,0.02580665283203125,1.2098756103515624
-0.446331171875,0.12972495361328126,1.2811479248046875
-0.37849384765625,0.1235976953125,1.05725455078125
-0.2955815625,0.01747358154296875,1.0938737744140625
-0.05900193359375,0.04247279541015625,1.269105361328125
-0.4040240234375,0.1985953369140625,1.3275978125
-0.4973915234375,0.02139502685546875,1.2452660009765626
0.03339298828125,-0.09281706787109376,1.0543053515625
-0.0918264453125,0.00668960693359375,1.0776531787109376
-0.46262185546875,-0.1023755908203125,1.31973328125
-0.17862904296875,-0.1268846240234375,1.3317758447265624
-0.5207333984375,-0.057278969726562504,1.1710444873046875
-0.36536404296875,-0.01879978759765625,1.1228742333984374
-0.40329458984375,0.026296833496093748,0.9960586669921875
-0.3631757421875,0.08658905517578125,0.7915808544921875
-0.28196546875,0.15080272216796875,0.68958771484375
-0.02933830078125,-0.00703545166015625,0.5846453759765625
-0.06872771484375,0.07065818359375,0.788385888671875
-0.38724705078125,0.00987578125,1.22044357421875
-0.42031470703125,0.04394333740234375,1.4374554833984374
-0.1555303125,0.08413815185546875,1.4900495361328125
-0.12902755859375,0.13560712158203125,1.58614427734375
-0.66151408203125,0.07188363525390624,1.2914701220703124
-0.38092529296875,0.18805645263671875,0.9886856689453125
-0.32086859375,0.18413500732421875,0.912252255859375
-0.21169669921875,0.2074185888671875,0.8559717041015625
-0.13607875,-0.104826494140625,1.028745625
-0.25254498046875,-0.022476142578125,1.3745392333984374
-0.32475890625,0.00178780029296875,1.3647085693359375
-0.26154132812499997,-0.13350206298828124,1.275003759765625
-0.39502767578125,0.04492369873046875,1.2349438037109375
-0.2416034765625,0.15864561279296874,1.3111314501953124
-0.3233000390625,0.15619470947265626,1.4197602880859375
-0.3057936328125,0.08854977783203125,1.22437583984375
-0.24136033203125,0.0358553564453125,1.157035791015625
-0.343237890625,-0.11830646240234374,1.0653648486328124
-0.22920310546875,-0.1719812451171875,0.8726838330078125
-0.21583015625000002,-0.16291290283203125,0.6691890869140625
-0.15334201171875,-0.18055940673828125,0.6804943505859375
-0.220693046875,-0.18742193603515625,0.7788009912109375
-0.21947732421875,-0.14379585693359376,0.7751144921875
-0.252788125,-0.05482806640625,0.980083837890625
-0.29339326171875,-0.042328459472656246,1.120662333984375
-0.38432931640625,0.01600303955078125,1.180629384765625
-0.41253408203124997,0.1495772705078125,1.0982975732421876
-0.36682291015625,0.24540759033203124,0.9916348681640625
-0.26640421875,0.2571719262695312,0.981066904296875
-0.21996361328125,0.259867919921875,1.0009739990234374
-0.29679728515625,0.09492212646484376,1.07691587890625
-0.2279873828125,0.11943115966796874,1.1184504345703126
-0.1715778515625,0.07286399658203124,1.039067822265625
-0.2027003515625,0.01306195556640625,1.071509013671875
-0.339347578125,0.0505607763671875,1.163917255859375
-0.51173705078125,0.06845237060546874,1.1798920849609376
-0.46481015625,0.1319307666015625,1.2123332763671875
-0.31989601562500003,-0.0523771630859375,1.04939001953125
-0.26859251953125,-0.1053166748046875,0.945676513671875
-0.28561263671875,-0.1445311279296875,1.03366095703125
-0.20440236328125,-0.10948321044921874,1.176697119140625
-0.45289607421875,-0.11757119140625,1.0948568408203125
-0.28123603515625,0.010611052246093749,1.07298361328125
-0.20099833984375,-0.071494208984375,0.9835245703125
-0.23260712890625002,0.0182088525390625,1.0221099267578124
-0.20780638671875,-0.012672529296875,0.935845849609375
-0.20342978515625,-0.06095532470703125,0.91077765625
-0.3738741015625,-0.07566074462890625,0.9326508837890625
-0.389921640625,-0.08056255126953125,0.9009469921875
-0.30214646484375,-0.09134652587890625,0.858183603515625
-0.32257060546875,0.02776737548828125,0.8984893261718749
-0.2668905078125,0.057913486328125,0.985490703125
-0.26470220703125,0.03119864013671875,1.014491162109375
-0.4108320703125,0.09100068115234375,1.144255927734375
-0.17717017578125,0.07972652587890625,1.119679267578125
-0.2435486328125,0.0564429443359375,1.0938737744140625
-0.2912049609375,-0.0006631030273437505,1.1445016943359374
-0.2814791796875,0.07482471923828125,0.984016103515625
-0.2177753125,-0.07713128662109375,0.8441749072265625
-0.29631099609375,0.0309535498046875,0.944693447265625
-0.37338781249999997,0.15325362548828125,0.968287041015625
-0.20683380859375,-0.0210056005859375,1.036118623046875
-0.3096839453125,0.11501953369140624,0.9773804052734375
-0.187625390625,0.02090484619140625,0.8048522509765625
-0.22871681640625,0.055952763671875,1.035135556640625
-0.31138595703125,0.10423555908203125,1.2614865966796875
-0.30020130859375,0.26942644287109374,1.4236925537109375
-0.20829267578125,0.25668174560546875,1.3116229833984374
-0.23528171875,0.2407508740234375,1.2069264111328124
-0.3106565234375,-0.07075893798828126,1.2489525
-0.22725794921875,-0.02149578125,1.312360283203125
-0.18300564453125,-0.08056255126953125,1.150154326171875
-0.26227076171875,-0.136198056640625,1.0786362451171876
-0.22677166015625,-0.03644629150390625,1.0348897900390626
-0.34396732421875,-0.10727739746093751,1.0938737744140625
-0.34226531250000003,-0.07320984130859375,1.2197062744140625
-0.22944625,-0.0621807763671875,1.1597392236328126
-0.226528515625,-0.04526954345703125,1.04939001953125
-0.23844259765625,-0.15408965087890625,0.97860923828125
-0.23917203125,-0.146001669921875,0.8653108349609375
-0.09839134765625,-0.0543378857421875,0.7689703271484375
-0.21364185546875,-0.13203152099609375,0.7670041943359375
-0.20245720703125,-0.1273748046875,0.9213456201171875
-0.32840607421875,-0.08399381591796876,1.1189419677734376
-0.36536404296875,-0.0254172265625,1.032677890625
-0.315033125,-0.09085634521484375,0.83704767578125
-0.17814275390625,-0.1626678125,0.80952181640625
-0.294608984375,-0.02223105224609375,0.874895732421875
-0.20148462890625,-0.14183513427734376,0.854251337890625
-0.2396583203125,-0.073454931640625,0.9493630126953125
-0.3777644140625,-0.0018885546875000003,1.0732293798828125
-0.41350666015625,-0.00458454833984375,0.8795652978515625
-0.26324333984375,-0.0043394580078125,0.6925369140625
-0.18884111328125,-0.04526954345703125,0.4902710009765625
-0.14847912109375,-0.07762146728515625,0.3649300341796875
-0.11492517578125,-0.12614935302734376,0.4784742041015625
-0.2795340234375,-0.1788437744140625,0.45512637695312497
-0.23406599609375,-0.19526482666015624,0.3211835791015625
-0.08720669921875,-0.08546435791015625,0.4479991455078125
-0.245980078125,-0.12075736572265625,0.2538435302734375
-0.13024328125,0.015022678222656249,0.259496162109375
-0.1005796484375,-0.045024453125,0.4376769482421875
-0.138996484375,-0.05482806640625,0.440380380859375
-0.21412814453125,-0.10360104248046875,0.5391785546875
-0.34226531250000003,-0.1273748046875,0.94321884765625
-0.40669861328125,-0.06977857666015624,1.0191607275390624
-0.2328502734375,0.0348749951171875,0.9842618701171875
-0.23503857421875,0.07482471923828125,0.8751414990234375
-0.15771861328125,0.05129604736328125,0.47331310546875
-0.01912623046875,-0.013407800292968751,0.36148930175781246
-0.15164,-0.100905048828125,0.5096865625
-0.111764296875,-0.10948321044921874,0.5276275244140625
-0.218747890625,-0.136198056640625,0.84884447265625
-0.3033621875,-0.0011532836914062497,1.0250591259765625
-0.30117388671875,0.0010525292968750002,1.0447204541015624
-0.33375525390625,0.04835496337890625,0.9847534033203125
-0.22677166015625,0.10864718505859375,0.8972604931640625
-0.34639876953125,0.16746886474609374,1.0378389892578126
-0.46164927734375,-0.0219859619140625,1.0727378466796875
-0.12465095703125,0.06796218994140625,0.950591845703125
-0.290718671875,0.09296140380859375,0.993846767578125
-0.3408064453125,-0.020515419921875,0.8549886376953125
-0.03760521484375,0.1079119140625,0.8267254785156251
-0.13632189453125,0.20521277587890624,0.9331424169921875
-0.33667298828125003,0.12090170166015625,1.0604495166015624
-0.39648654296875,0.23143744140625,1.0466865869140625
-0.3096839453125,-0.0063001806640625,0.79772501953125
-0.20197091796875,-0.19379428466796875,0.6650110546875
-0.42955419921875,0.00521906494140625,0.70335064453125
-0.32840607421875,0.017718671875,0.5133730615234375
-0.0412523828125,0.0765403515625,0.461024775390625
-0.08744984375,0.189281904296875,0.7552073974609375
-0.2425760546875,0.18830154296875,0.93437125
-0.33715927734375,0.2451625,1.2762325927734375
-0.38870591796875,0.28952385009765624,1.5495250537109375
-0.30992708984375,0.3895207055664063,1.4357351171875
-0.31284482421875,0.3005529150390625,1.22240970703125
-0.28196546875,0.24099596435546874,1.0417712548828124
-0.327676640625,0.2522701196289063,1.0653648486328124
-0.42712275390625,0.23756469970703126,1.1695698876953124
-0.415208671875,0.2897689404296875,1.26369849609375
-0.302389609375,0.26011301025390626,1.2860632568359376
-0.3155194140625,0.13462676025390624,1.2005364794921876
-0.20683380859375,0.14884199951171875,1.186527783203125
-0.41691068359375,0.04688442138671875,1.3322673779296874
-0.36001486328125,0.12727405029296876,1.4984056005859374
-0.1608794921875,0.11011772705078125,1.429345185546875
-0.41423609375,0.0211499365234375,1.3686408349609376
-0.368524921875,0.11771552734375,1.4477776806640625
-0.22968939453125,0.0966377587890625,1.32858087890625
-0.41496552734375003,0.0966377587890625,1.137374462890625
-0.22774423828125,0.05815857666015625,1.1272980322265624
-0.207076953125,0.00276816162109375,1.12410306640625
-0.22701480468750002,0.01110123291015625,1.1145181689453125
-0.38141158203125003,-0.0974737841796875,1.22634197265625
-0.32694720703125,-0.02149578125,1.245020234375
-0.257651015625,-0.06095532470703125,1.2098756103515624
-0.28026345703125,0.1740863037109375,1.1268064990234374
-0.30457791015625,0.04688442138671875,1.1073909375
-0.251815546875,0.17825283935546876,1.14179826171875
-0.30360533203125,0.0789912548828125,0.971236240234375
-0.22239505859375,-0.0092412646484375,0.9685328076171875
-0.20732009765625,0.075559990234375,1.140323662109375
-0.32791978515625,0.00766996826171875,1.169815654296875
-0.23528171875,0.09933375244140626,1.046932353515625
-0.28512634765625,0.03315936279296875,0.938795048828125
-0.2450075,-0.06659240234375,0.9518206787109375
-0.23455228515625,0.0270321044921875,1.01989802734375
-0.28172232421875,-0.008996174316406251,0.9881941357421875
-0.2095083984375,0.10619628173828125,1.0579918505859376
-0.17230728515625,0.14394019287109375,1.092153408203125
-0.3019033203125,0.034384814453125,0.9124980224609375
-0.12076064453125,0.0407571630859375,0.865065068359375
-0.1754681640625,0.026541923828125,0.91372685546875
-0.22701480468750002,0.0495804150390625,0.9660751416015625
-0.22725794921875,0.05962911865234375,0.941744248046875
-0.17279357421875,0.0289928271484375,0.8304119775390625
-0.19905318359375002,-0.02174087158203125,0.7365291357421875
-0.2255559375,-0.00777072265625,0.7085117431640625
-0.22044990234375,-0.04306373046875,0.788385888671875
-0.1599069140625,0.01110123291015625,0.757419296875
-0.20829267578125,-0.0053198193359375,0.6328156298828125
-0.1540714453125,0.0348749951171875,0.704825244140625
-0.1997826171875,0.09051050048828126,0.8156659814453124
-0.24768208984375,0.02041466552734375,0.81935248046875
-0.2377131640625,0.09810830078125,0.7856824560546875
-0.1881116796875,0.02580665283203125,0.68762158203125
-0.21972046875,0.07286399658203124,0.590789541015625
-0.199296328125,0.073599267578125,0.710723642578125
