ax,ay,az
-0.3573402734375,-0.01928996826171875,1.0597122167968749
-0.210967265625,-0.03252484619140625,0.8653108349609375
-0.23309341796875,0.0093856005859375,1.00023669921875
-0.3184371484375,-0.03203466552734375,1.1774344189453125
-0.31430369140625003,-0.1268846240234375,1.081339677734375
-0.15188314453125001,-0.15850127685546875,0.88226873046875
-0.22288134765625,-0.13595296630859374,0.7434106005859376
-0.1890842578125,-0.07713128662109375,0.7026133447265624
-0.206104375,-0.09967959716796874,0.788385888671875
-0.32062544921875,0.03806116943359375,1.005643564453125
-0.4215304296875,0.1152646240234375,1.138357529296875
-0.362689453125,-0.02272123291015625,1.146222060546875
-0.3437241796875,-0.0680629443359375,1.0919076416015625
-0.2912049609375,0.04198261474609375,1.0206353271484374
-0.3388612890625,-0.02174087158203125,1.0093300634765625
-0.29631099609375,0.0495804150390625,0.8962774267578125
-0.210967265625,0.0633054736328125,0.764792294921875
-0.18106048828125,-0.0268877685546875,0.7987080859375
-0.27102396484375,0.03855135009765625,0.89406552734375
-0.2800203125,0.0003172583007812497,0.926015185546875
-0.34250845703125,0.0020328906249999995,0.98057537109375
-0.41302037109375,-0.0268877685546875,1.0019570654296874
-0.37752126953125,-0.02909358154296875,1.0604495166015624
-0.35272052734375,-0.0886505322265625,0.995812900390625
-0.2795340234375,-0.05850442138671875,0.9913891015625
-0.299471875,-0.1298257080078125,0.8554801708984375
-0.12635296875,-0.1641383544921875,0.91176072265625
-0.28901666015625,-0.0513968017578125,1.15359505859375
-0.41034578125,-0.126394443359375,1.3607763037109375
-0.273212265625,-0.0229663232421875,1.46129484375
-0.284883203125,-0.03644629150390625,1.3455387744140626
-0.3641483203125,-0.02076051025390625,1.153103525390625
-0.3660934765625,-0.06046514404296875,0.9127437890625
-0.17084841796875,-0.051886982421875,0.8250051123046875
-0.26859251953125,0.0525214990234375,0.8889044287109376
-0.30530734375,-0.144040947265625,1.148188193359375
-0.33375525390625,-0.059729873046875,1.4148449560546874
-0.32986494140625,-0.028358310546875,1.3219451806640625
-0.27831830078124997,-0.057769150390625,1.109848603515625
-0.23819945312500002,-0.08007237060546875,0.9990078662109375
-0.2878009375,-0.0053198193359375,1.0506188525390625
-0.2736985546875,-0.07051384765625,1.0786362451171876
-0.2824517578125,-0.0857094482421875,1.2079094775390624
-0.28269490234375,-0.061690595703125004,1.1130435693359375
-0.2931501171875,-0.061690595703125004,0.911269189453125
-0.2445212109375,-0.06267095703125,0.8181236474609375
-0.18397822265625,-0.020515419921875,0.879811064453125
-0.31697828125,0.0495804150390625,0.998762099609375
-0.3242726171875,-0.03693647216796875,1.0162115283203126
-0.12027435546875,0.0003172583007812497,1.009575830078125
-0.13632189453125,-0.06781785400390625,1.07691587890625
-0.30020130859375,-0.050661530761718754,1.1882481494140624
-0.27053767578125,0.026051743164062502,1.1577730908203125
-0.41788326171875,-0.09379742919921875,1.1626884228515626
-0.38967849609375,0.0221302978515625,1.1592476904296876
-0.21023783203125002,-0.0396324658203125,1.0167030615234376
-0.20464550781250002,-0.05311243408203125,0.948625712890625
-0.2800203125,0.0760501708984375,0.9395323486328125
-0.22701480468750002,0.081442158203125,0.9120064892578125
-0.23114826171875,-0.0719843896484375,0.7856824560546875
-0.17814275390625,-0.1352176953125,0.67189251953125
-0.10325423828125,-0.18546121337890625,0.662553388671875
-0.12343523437500001,-0.05899460205078125,0.79379275390625
-0.27053767578125,-0.0288484912109375,0.9380577490234375
-0.38724705078125,0.0074248779296875,1.0968229736328126
-0.36050115234375,0.053992041015625,1.091170341796875
-0.29363640625,0.11501953369140624,0.8970147265625
-0.1482359765625,-0.004829638671875,0.7512751318359375
-0.0986344921875,0.019679394531249998,0.7901062548828125
-0.21655958984375,-0.07664110595703125,0.8692431005859375
-0.1064151171875,-0.0347306591796875,0.8599039697265625
-0.259596171875,0.1799684716796875,0.76921609375
-0.1851939453125,0.14516564453125,0.7625803955078125
-0.330594375,-0.0161037939453125,0.7475886328125
-0.177899609375,0.0451687890625,0.7153932080078125
-0.12319208984375,0.087324326171875,0.75643623046875
-0.249870390625,-0.02468195556640625,0.871946533203125
-0.26056875,0.02335574951171875,0.978117705078125
-0.37265837890625,0.0765403515625,1.0024485986328124
-0.41593810546875,0.1338914892578125,0.9523122119140625
-0.33278267578125,0.02237538818359375,0.75447009765625
0.006890234374999998,-0.05458297607421875,0.662553388671875
-0.05559791015625,-0.09624833251953124,0.7556989306640625
-0.27442798828125,-0.0945327001953125,0.9139726220703125
-0.01912623046875,-0.1430605859375,1.0889584423828125
-0.39843169921875,-0.08497417724609375,1.0830600439453124
-0.4059691796875,0.15570452880859376,0.9442019140625
-0.37314466796875,-0.011201987304687501,0.648790458984375
-0.1637972265625,0.112813720703125,0.5453227197265624
-0.1890842578125,0.13511694091796875,0.43595658203125
-0.0587587890625,0.0701680029296875,0.4526687109375
-0.0310403125,-0.05556333740234375,0.6859012158203125
-0.2649453515625,-0.04968116943359375,0.787402822265625
-0.37849384765625,-0.03056412353515625,0.6406801611328125
-0.18300564453125,0.024091020507812498,0.525907158203125
-0.209022109375,-0.05703387939453125,0.6453497265625
-0.34202216796875,0.10031411376953125,0.79379275390625
-0.3612305859375,0.1706550390625,0.897506259765625
-0.214857578125,0.0003172583007812497,0.9835245703125
-0.2347954296875,-0.06659240234375,1.0250591259765625
-0.27515742187500003,0.004973974609375,0.9655836083984375
-0.21558701171875,0.191242626953125,0.864082001953125
-0.32743349609375,0.010856142578125,0.7869112890625
-0.03274232421875,0.0946770361328125,0.8301662109375
-0.09085386718749999,0.17923320068359375,1.026287958984375
-0.401592578125,0.17825283935546876,1.2595204638671875
-0.24622322265625,0.10129447509765625,1.4148449560546874
-0.35101851562499997,0.10276501708984374,1.466701708984375
-0.49812095703125,0.00472888427734375,1.2718087939453124
-0.28901666015625,-0.04281864013671875,1.02088109375
-0.24719580078125,-0.03987755615234375,0.808047216796875
-0.24184662109375,-0.0513968017578125,0.7357918359375
-0.21583015625000002,-0.03987755615234375,0.9009469921875
-0.3962433984375,-0.15457983154296875,1.0417712548828124
-0.28269490234375,-0.1562954638671875,1.0801108447265624
-0.2450075,-0.04036773681640625,0.844420673828125
-0.23844259765625,-0.04281864013671875,0.68368931640625
-0.179844765625,0.00963069091796875,0.717605107421875
-0.282938046875,-0.00605509033203125,0.8245135791015625
-0.245980078125,0.0642858349609375,0.9604225097656249
-0.37338781249999997,0.08168724853515624,0.9955671337890625
-0.31576255859375,-0.03350520751953125,0.967303974609375
-0.23212083984375,0.02433611083984375,1.024321826171875
-0.12635296875,-0.18252012939453124,1.1307387646484375
-0.2591098828125,-0.0259074072265625,1.270088427734375
-0.37946642578125,0.08070688720703124,1.291715888671875
-0.28634207031250003,0.0123266845703125,1.2941735546875
-0.41593810546875,0.03315936279296875,1.194392314453125
-0.28585578125,-0.189137568359375,1.165883388671875
-0.2425760546875,-0.024436865234375,1.24207103515625
-0.338375,0.023845930175781252,1.04349162109375
-0.2231244921875,0.02531647216796875,0.8264797119140626
-0.1686601171875,-0.04183827880859375,0.8309035107421875
-0.30652306640625,0.08756941650390625,0.9744312060546875
-0.152612578125,-0.0327699365234375,0.99040603515625
-0.14069849609375001,-0.00703545166015625,1.043000087890625
-0.31381740234375,-0.04085791748046875,1.245020234375
-0.407428046875,0.00791505859375,1.3632339697265625
-0.40815748046875,-0.03252484619140625,1.274020693359375
-0.22361078125,0.0417375244140625,1.129509931640625
-0.18470765625,-0.09134652587890625,1.0700344140625
-0.17376615234375,-0.19722554931640626,0.9960586669921875
-0.2240970703125,-0.1352176953125,0.944693447265625
-0.25789416015625,-0.18350049072265626,0.7625803955078125
-0.15528716796875,-0.13105115966796876,0.7468513330078125
-0.16258150390625,-0.13644314697265625,0.804114951171875
-0.2450075,-0.08007237060546875,0.9297016845703125
-0.24427806640625,-0.00360418701171875,1.1243488330078124
-0.3019033203125,0.1240878759765625,1.23420650390625
-0.33910443359375,0.1054610107421875,1.0582376171875
-0.32159802734375,0.15423398681640624,0.8790737646484375
-0.24914095703125,0.0152677685546875,0.72104583984375
-0.03614634765625,-0.0337502978515625,0.7945300537109374
-0.2211793359375,0.0427178857421875,1.0103131298828125
-0.2386857421875,0.0848734228515625,1.1513831591796875
-0.28998923828125,0.01747358154296875,1.0982975732421876
-0.30506419921875,-0.0332601171875,1.0550426513671876
-0.4356328125,-0.00507472900390625,1.0039231982421875
-0.144831953125,-0.06585713134765625,0.91176072265625
-0.34348103515625,0.10962754638671875,0.8756330322265625
-0.2240970703125,0.15300853515625001,0.8102591162109375
-0.16306779296875,-0.00507472900390625,0.7886316552734375
-0.27272597656249997,0.04051207275390625,0.9881941357421875
-0.38919220703125,-0.10409122314453124,0.9754142724609375
-0.154557734375,0.04051207275390625,1.001219765625
-0.19613544921875,0.08560869384765625,1.022355693359375
-0.41423609375,-0.13546278564453124,0.9729566064453125
-0.14799283203125,-0.14330567626953125,1.0314490576171875
-0.3344846875,-0.2580079516601563,0.841471474609375
-0.2921775390625,-0.165608896484375,0.6578838232421875
-0.31235853515625,-0.06830803466796875,0.5988998388671875
-0.25886673828125,-0.10605194580078126,0.45168564453125
-0.0869635546875,-0.092081796875,0.5037881640624999
-0.23990146484375,0.05619785400390625,0.777080625
-0.37606240234375,0.16403760009765625,0.922574453125
-0.24087404296875,0.15472416748046874,0.976151572265625
-0.20586123046875,0.17923320068359375,1.1086197705078125
-0.29776986328125,0.18658591064453126,1.2548508984375
-0.3660934765625,0.059874208984374996,1.2664019287109376
-0.284883203125,0.21207530517578124,1.1066536376953124
-0.2746711328125,0.11207844970703125,1.0260421923828125
-0.39356880859375,0.2397705126953125,1.1789090185546875
-0.48790888671875,0.1157548046875,1.1145181689453125
-0.12708240234375,-0.0533575244140625,0.9877026025390625
-0.1706052734375,0.057913486328125,0.8948028271484375
-0.28609892578125,0.0172284912109375,0.7837163232421875
-0.1978374609375,-0.112669384765625,0.706791376953125
-0.2566784375,-0.20997024658203126,0.810996416015625
-0.3573402734375,0.04100225341796875,0.868997333984375
-0.19419029296875,-0.18815720703125,0.8498275390625
-0.172064140625,0.0012976196289062499,0.9316678173828125
-0.3894353515625,-0.1474722119140625,0.9793465380859375
-0.30506419921875,-0.09085634521484375,1.0948568408203125
-0.23990146484375,-0.067572763671875,1.112797802734375
-0.36974064453125,0.06453092529296875,1.1744852197265625
-0.08720669921875,0.019679394531249998,1.2487067333984374
-0.04733099609375,-0.022476142578125,1.307936484375
-0.5372672265625,-0.034240478515625,1.2236385400390626
-0.4312562109375,-0.00311400634765625,0.9700074072265625
-0.23528171875,-0.10188541015625,0.6809858837890626
-0.14799283203125,-0.040122646484374996,0.7026133447265624
-0.23503857421875,0.08511851318359374,0.9002096923828125
-0.1579617578125,-0.07468038330078125,1.01596576171875
-0.28123603515625,0.079481435546875,1.0230929931640624
-0.24768208984375,0.23143744140625,1.0358728564453126
-0.17084841796875,-0.16438344482421874,1.0073639306640625
-0.29679728515625,0.09835339111328124,1.227816572265625
-0.30992708984375,-0.0680629443359375,1.12803533203125
-0.32111173828125,-0.013162709960937501,1.3607763037109375
-0.4978778125,-0.1430605859375,1.284342890625
-0.27053767578125,-0.00311400634765625,0.9852449365234375
-0.3189234375,-0.05997496337890625,0.60307787109375
-0.17327986328125,0.00717978759765625,0.4489822119140625
-0.0645942578125,0.0456589697265625,0.4723300390625
-0.06629626953125001,0.13021513427734374,0.5728485791015625
-0.11346630859375,0.2211436474609375,0.8707177001953125
-0.21996361328125,0.05864875732421875,1.264190029296875
-0.42274615234375,-0.07566074462890625,1.4848884375
-0.42225986328125,-0.00703545166015625,1.4703882080078126
-0.44462916015625,-0.0082609033203125,1.299580419921875
-0.354908828125,-0.00948635498046875,1.0761785791015626
-0.29922873046875,-0.0371815625,0.85867513671875
-0.14021220703125,-0.0396324658203125,0.79379275390625
-0.21266927734375,-0.0308092138671875,0.932896650390625
-0.2513292578125,0.08903995849609375,1.0860092431640624
-0.269321953125,-0.06634731201171876,1.158510390625
-0.3203823046875,0.1231075146484375,1.132459130859375
-0.2182616015625,0.09492212646484376,0.8618701025390625
-0.168173828125,0.0544822216796875,0.7262069384765625
-0.26275705078125,0.02531647216796875,0.726452705078125
-0.2542469921875,-0.02419177490234375,0.9326508837890625
-0.36001486328125,-0.032279755859375,1.08871267578125
-0.42615017578125003,0.08021670654296875,1.0589749169921876
-0.30700935546875,-0.0955130615234375,0.925032119140625
-0.23698373046875,-0.015368522949218751,0.933879716796875
-0.26129818359375,-0.08644471923828125,1.0776531787109376
-0.29776986328125,-0.13105115966796876,1.0683140478515625
-0.02204396484375,-0.05017135009765625,1.0058893310546875
-0.187625390625,-0.1396293212890625,1.0643817822265624
-0.42080099609375,-0.21560732421875,1.0700344140625
-0.42590703125,-0.04085791748046875,0.9203625537109374
-0.39989056640625,0.01012087158203125,0.8761245654296875
-0.39113736328125,-0.07051384765625,0.777572158203125
-0.13923962890625,0.0397768017578125,0.7792925244140625
-0.17376615234375,-0.015368522949218751,0.7694618603515625
-0.25983931640625,0.0142874072265625,0.9363373828125
-0.32743349609375,0.09933375244140626,1.113780869140625
-0.25449013671875,0.0044837939453125,1.1420440283203126
-0.43052677734375,-0.17173615478515625,1.0452119873046875
-0.33132380859375,-0.20457825927734374,0.86850580078125
-0.1540714453125,-0.17467723876953126,0.6337986962890625
-0.052680175781250005,-0.08448399658203125,0.579975810546875
-0.17084841796875,0.046149150390625,0.82328474609375
-0.44073884765625,0.1436951025390625,1.0098215966796875
-0.3485870703125,0.2848671337890625,1.1312302978515625
-0.25594900390624997,0.142224560546875,1.2705799609375
-0.24476435546875,0.16011615478515626,1.3671662353515626
-0.05316646484375,0.1157548046875,1.295648154296875
-0.22968939453125,-0.01732924560546875,1.1872650830078124
-0.566930859375,0.09198104248046875,1.313343349609375
-0.50687416015625,0.04124734375,1.2705799609375
-0.5255962890625,-0.09575815185546875,1.1690783544921874
-0.401592578125,-0.116590830078125,0.8530225048828125
-0.086477265625,-0.010711806640625,0.5669501806640624
-0.10811712890625,-0.10360104248046875,0.45561791015625
-0.1200312109375,-0.095022880859375,0.55982294921875
-0.152612578125,-0.02737794921875,0.8166490478515624
-0.339347578125,-0.09012107421875,1.0378389892578126
-0.33326896484375,-0.0866898095703125,1.2678765283203126
-0.42712275390625,0.1995756982421875,1.562059150390625
-0.5431026953125,-0.02909358154296875,1.559601484375
-0.29436583984375,0.09492212646484376,1.56451681640625
-0.61483033203125,0.146146005859375,1.3411149755859375
-0.2620276171875,-0.013407800292968751,1.128526865234375
-0.19613544921875,0.08021670654296875,1.07691587890625
-0.3111428125,0.02874773681640625,1.050864619140625
-0.09206958984375,-0.03914228515625,0.9127437890625
-0.23017568359375,-0.053847705078125,0.7736398925781249
-0.3233000390625,-0.09330724853515625,0.6964691796875
-0.142886796875,-0.11634573974609375,0.7822417236328125
-0.2955815625,0.06306038330078124,0.9913891015625
-0.42371873046874997,0.0672269189453125,1.174730986328125
-0.30263275390625,0.08707923583984375,1.2020110791015626
-0.34785763671875003,0.1079119140625,1.1700614208984375
-0.34688505859375,0.044188427734375,1.2624696630859376
-0.17960162109375,-0.05090662109375,1.2383845361328125
0.031934121093750004,-0.03644629150390625,1.3804376318359375
-0.32111173828125,-0.12614935302734376,1.584669677734375
-0.39356880859375,-0.21781313720703124,1.3846156640625
-0.35952857421875,-0.1494329345703125,1.0230929931640624
-0.35320681640625,-0.2160975048828125,0.6760705517578125
-0.2007551953125,-0.20776443359375,0.4942032666015625
-0.02933830078125,-0.1259042626953125,0.555399150390625
-0.0198556640625,-0.08105273193359375,0.79182662109375
-0.34421046875,-0.03914228515625,0.9188879541015624
-0.37363095703125,0.0012976196289062499,0.9537868115234375
-0.17303671874999998,-0.226391298828125,0.92650671875
-0.34348103515625,0.02360083984375,1.0899415087890625
-0.25692158203125,0.05325677001953125,1.2644357958984376
-0.1842213671875,-0.07075893798828126,1.3750307666015624
-0.41107521484375,0.08462833251953125,1.3300554785156251
-0.19808060546875,-0.1288453466796875,1.146222060546875
-0.33618669921875,-0.008996174316406251,1.0663479150390625
-0.40037685546875,0.00717978759765625,0.870963466796875
-0.15334201171875,-0.03840701416015625,0.6927826806640625
-0.045872128906250004,-0.1121792041015625,0.7109694091796875
-0.22725794921875,-0.0631611376953125,0.9164302880859375
-0.3967296875,-0.044534272460937496,1.089204208984375
-0.29193439453125003,-0.05801424072265625,1.0189149609375
-0.2532744140625,0.0887948681640625,0.9567360107421875
-0.343237890625,0.0289928271484375,0.9036504248046875
-0.27783201171875,-0.025662316894531252,1.0265337255859375
-0.32937865234375,0.012816865234374999,1.110831669921875
-0.4662690234375,-0.0249270458984375,0.906353857421875
-0.22044990234375,-0.14379585693359376,0.72301197265625
-0.2153438671875,-0.11095375244140625,0.597671005859375
-0.0947441796875,-0.16340308349609375,0.6020948046875
-0.11054857421875,-0.202862626953125,0.70335064453125
-0.33278267578125,-0.0327699365234375,0.912252255859375
-0.4244481640625,-0.11732610107421874,0.935845849609375
-0.3262177734375,-0.08644471923828125,0.8977520263671875
-0.29971501953125,0.08413815185546875,0.76233462890625
-0.1326747265625,-0.02027032958984375,0.6750874853515625
-0.23990146484375,0.0760501708984375,0.7635634619140625
-0.3155194140625,0.0505607763671875,0.8891501953125
-0.2775888671875,0.032424091796875,1.0167030615234376
-0.37071322265625,-0.010711806640625,1.08379734375
-0.31089966796875,-0.02468195556640625,1.091661875
-0.179844765625,-0.05458297607421875,1.0796193115234376
-0.2347954296875,-0.061690595703125004,0.9992536328125
-0.25084296875,0.0270321044921875,0.962388642578125
-0.31819400390625,-0.03546593017578125,0.9002096923828125
-0.27880458984375,-0.00458454833984375,0.8712092333984375
-0.3267040625,-0.02272123291015625,0.8766160986328125
-0.23066197265625,-0.03105430419921875,0.9704989404296875
-0.1715778515625,0.01453249755859375,1.0496357861328125
-0.3515048046875,0.02482629150390625,1.1037044384765624
-0.32013916015625,0.03512008544921875,1.0697886474609375
-0.341292734375,-0.01879978759765625,1.026287958984375
-0.37752126953125,-0.0001729223632812504,1.0093300634765625
-0.21121041015625,-0.0876701708984375,0.9046334912109375
-0.1064151171875,-0.02223105224609375,0.7453767333984375
-0.1866528125,-0.013162709960937501,0.6981895458984375
-0.137051328125,-0.053847705078125,0.7360376025390625
-0.21218298828125,-0.03252484619140625,0.868997333984375
-0.33035123046875,-0.08889562255859375,1.0673309814453125
-0.339347578125,-0.06781785400390625,1.226833505859375
-0.42615017578125003,0.0329142724609375,1.0904330419921875
-0.345183046875,-0.1298257080078125,0.8800568310546875
-0.26081189453125,-0.22859711181640624,0.8166490478515624
-0.17814275390625,-0.09183670654296874,0.72891037109375
-0.12951384765625001,-0.05458297607421875,0.609467802734375
-0.10860341796875,-0.09477779052734375,0.7006472119140625
-0.14580453125,0.028502646484374998,0.876861865234375
-0.2659179296875,0.07923634521484375,1.0501273193359375
-0.34007701171875,0.04712951171875,1.2138078759765625
-0.36974064453125,0.1289896826171875,1.24108796875
-0.35417939453125,0.14541073486328124,1.114763935546875
-0.27418484375,0.0182088525390625,1.0417712548828124
-0.26713365234374997,0.03217900146484375,1.0678225146484375
-0.30506419921875,-0.163648173828125,0.9498545458984375
-0.24233291015625,-0.10997339111328125,0.7645465283203124
-0.14750654296875,-0.09379742919921875,0.7222746728515625
-0.11346630859375,-0.14109986328125,0.821810146484375
-0.2878009375,-0.0001729223632812504,1.0191607275390624
-0.47040248046875,-0.11046357177734376,1.0943653076171875
-0.24914095703125,0.0701680029296875,1.083305810546875
-0.294608984375,0.0976181201171875,1.0221099267578124
-0.2231244921875,0.01306195556640625,0.9520664453125
-0.1803310546875,0.0985984814453125,0.9614055761718749
-0.3578265625,0.026541923828125,0.8923451611328125
-0.29631099609375,-0.12565917236328125,0.8363103759765624
-0.14896541015625,-0.07517056396484376,0.7158847412109375
-0.09255587890625,-0.173451787109375,0.7252238720703125
-0.24865466796875,-0.27418391357421873,0.985982236328125
-0.45338236328125,-0.08252327392578125,1.1621968896484376
-0.38676076171875,-0.14624676025390626,1.1125520361328125
-0.3203823046875,-0.07222947998046875,1.0653648486328124
-0.3446967578125,0.00717978759765625,0.8805483642578125
-0.21510072265625,-0.0013983740234375002,0.717605107421875
-0.284883203125,-0.02027032958984375,0.765283828125
-0.24427806640625,0.06060947998046875,0.8623616357421875
-0.299471875,-0.02125069091796875,0.8989808593749999
-0.27345541015625,0.0030132519531249997,0.9169218212890625
-0.187625390625,-0.04379900146484375,0.8982435595703124
-0.30700935546875,0.05423713134765625,0.98254150390625
-0.2873146484375,-0.0288484912109375,1.2253589062499999
-0.434660234375,-0.044044091796875,1.27942755859375
-0.47283392578125,0.0329142724609375,1.1427813281249999
-0.34688505859375,-0.1435507666015625,0.9795923046875
-0.277102578125,-0.00409436767578125,0.93928658203125
-0.40961634765625,-0.06928839599609375,0.997779033203125
-0.263486484375,-0.0170841552734375,1.2624696630859376
-0.37922328125,0.11379408203125,1.406243125
-0.54261640625,0.11354899169921875,1.3728188671875
-0.16112263671875,0.14884199951171875,1.2059433447265624
-0.1944334375,0.14908708984375,1.1700614208984375
-0.442440859375,0.1584005224609375,1.2408422021484375
-0.39989056640625,-0.03889719482421875,1.0936280078125
-0.35344996093750003,0.0417375244140625,0.9065996240234375
-0.28074974609375003,-0.11879664306640625,0.6819689501953125
-0.160393203125,-0.25261596435546874,0.6529684912109375
-0.1482359765625,-0.361681162109375,1.014491162109375
-0.36439146484375,-0.2629097583007812,1.3411149755859375
-0.51611365234375,-0.14134495361328125,1.5603387841796874
-0.5781155078125,-0.0866898095703125,1.476532373046875
-0.4818302734375,0.02237538818359375,1.124594599609375
-0.27613,-0.12614935302734376,0.8210728466796875
-0.01912623046875,-0.15948163818359376,0.8065726171875
-0.25205869140625,-0.11389483642578124,0.94911724609375
-0.089395,-0.12614935302734376,0.808047216796875
-0.007698437500000002,-0.15948163818359376,0.7797840576171875
-0.15285572265625,-0.1121792041015625,1.0078554638671875
-0.37411724609375,0.0044837939453125,1.25190169921875
-0.36974064453125,0.0574233056640625,1.5170838623046876
-0.48037140625,0.175556845703125,1.704603779296875
-0.46456701171875,0.2397705126953125,1.6728998876953125
-0.38627447265625,0.06673673828125,1.4364724169921874
-0.25740787109375,-0.0023787353515625003,1.159984990234375
-0.19613544921875,0.0012976196289062499,0.9434646142578125
-0.04830357421875,-0.030319033203124998,0.8773533984374999
-0.035173769531249996,-0.11438501708984375,1.081339677734375
-0.405482890625,-0.10850284912109374,1.2265877392578124
-0.06872771484375,-0.05874951171875,1.2664019287109376
-0.38821962890625,-0.035711020507812496,1.24010490234375
-0.4118046484375,0.05668803466796875,1.0024485986328124
-0.18543708984375,-0.06389640869140625,0.71711357421875
-0.19564916015625,-0.055073156738281254,0.526890224609375
-0.18154677734375,-0.1587463671875,0.584399609375
-0.16160892578125,-0.116590830078125,0.6972064794921875
-0.100093359375,-0.1013952294921875,0.8751414990234375
-0.2357680078125,-0.11757119140625,1.093136474609375
-0.2814791796875,-0.154824921875,1.213562109375
-0.335457265625,-0.04477936279296875,1.2442829345703126
-0.3271903515625,-0.04085791748046875,1.139340595703125
-0.30603677734375,0.0037485229492187503,0.9115149560546875
-0.16598552734375,0.046149150390625,0.7733941259765625
-0.37703498046875,0.056933125,0.683197783203125
-0.13802390625,-0.01830960693359375,0.5792385107421875
-0.07577890625,0.03659062744140625,0.563263681640625
-0.06289224609374999,0.010611052246093749,0.70335064453125
-0.16598552734375,-0.014633251953124999,0.93928658203125
-0.487179453125,0.11894097900390625,1.178663251953125
-0.341292734375,0.0642858349609375,1.1130435693359375
-0.2775888671875,0.13021513427734374,0.99827056640625
-0.35661083984374997,0.10080429443359375,0.839996875
-0.03225603515625,-0.03742665283203125,0.80067421875
-0.33813185546875,-0.0396324658203125,0.838522275390625
-0.4020788671875,0.008895419921875,0.7738856591796874
-0.12027435546875,-0.15457983154296875,0.6578838232421875
-0.2133987109375,-0.20408807861328124,0.6603414892578126
-0.26032560546875,-0.0582593310546875,0.6514938916015625
-0.09595990234375,-0.15163874755859374,0.655180390625
-0.24670951171875,-0.09012107421875,0.7915808544921875
-0.28123603515625,-0.0646316796875,0.8458952734375
-0.38092529296875,-0.10065995849609374,0.790352021484375
-0.24281919921875,-0.0259074072265625,0.7252238720703125
-0.25400384765625,0.00570924560546875,0.71514744140625
-0.3057936328125,0.09247122314453125,0.7861739892578125
-0.2099946875,0.06281529296875,0.6807401171875
-0.0859909765625,0.08315779052734375,0.730384970703125
-0.21072412109375,0.06060947998046875,0.8658023681640625
-0.2211793359375,-0.08154291259765625,0.942727314453125
-0.37168580078125,0.05864875732421875,1.0776531787109376
-0.3359435546875,0.04149243408203125,0.9680412744140625
-0.27151025390625,-0.011201987304687501,0.8063268505859374
-0.19710802734375,-0.048455717773437504,0.68565544921875
-0.19953947265625,-0.12418863037109375,0.6038151708984375
-0.1715778515625,-0.17565760009765624,0.68762158203125
-0.27783201171875,-0.0817880029296875,0.881777197265625
-0.37071322265625,-0.1092381201171875,0.999745166015625
-0.33253953125,-0.10948321044921874,1.008592763671875
-0.20732009765625,-0.067572763671875,0.79575888671875
-0.19564916015625,-0.0406128271484375,0.71121517578125
-0.1501811328125,-0.0009081933593750001,0.7004014453125
-0.3164919921875,-0.14722712158203125,0.7984623193359375
-0.33132380859375,-0.032279755859375,0.9169218212890625
-0.214857578125,-0.11144393310546875,0.902421591796875
-0.21023783203125002,-0.10311086181640625,0.9242948193359375
-0.3301080859375,-0.1352176953125,0.98057537109375
-0.2649453515625,-0.02076051025390625,0.95501564453125
-0.27248283203125,0.03364954345703125,0.9247863525390625
-0.31478998046875,0.0613447509765625,0.97074470703125
-0.292663828125,0.02580665283203125,0.9756600390625
-0.28512634765625,0.0574233056640625,1.0162115283203126
-0.30409162109375,0.048109873046875,1.0692971142578125
-0.316005703125,-0.0621807763671875,0.97369390625
-0.14629082031250001,0.016738310546875,0.82328474609375
-0.2299325390625,0.02727719482421875,0.791335087890625
-0.2931501171875,-0.0371815625,0.8567090039062499
-0.2824517578125,-0.05311243408203125,0.979100771484375
-0.302389609375,-0.08546435791015625,1.1125520361328125
-0.38676076171875,-0.0803174609375,1.2258504394531249
-0.3281629296875,0.0172284912109375,1.165883388671875
-0.2357680078125,-0.1455114892578125,1.051847685546875
-0.3067662109375,0.048109873046875,1.05528841796875
-0.2411171875,0.02923791748046875,1.00220283203125
-0.31868029296875,0.0387964404296875,0.9901602685546875
-0.35223423828125,0.07482471923828125,1.0896957421875
-0.36147373046875,0.0584036669921875,1.180629384765625
-0.30409162109375,-0.03914228515625,1.2285538720703124
-0.34810078125,-0.01830960693359375,1.14573052734375
-0.2085358203125,-0.02762303955078125,1.0235845263671874
-0.37265837890625,-0.04698517578125,1.0575003173828126
-0.38627447265625,-0.0612004150390625,1.014491162109375
-0.20342978515625,-0.08448399658203125,1.0110504296875
-0.31746457031249997,0.057913486328125,1.155069658203125
-0.3019033203125,-0.00850599365234375,1.1722733203125
-0.32159802734375,0.00766996826171875,1.2295369384765624
-0.40913005859375,0.0574233056640625,1.1427813281249999
-0.30919765625,-0.03914228515625,1.0348897900390626
-0.33715927734375,0.05080586669921875,1.0299744580078125
-0.240144609375,0.0407571630859375,0.9763973388671875
-0.26518849609375,-0.053847705078125,0.9405154150390624
-0.23844259765625,-0.12124754638671875,0.9874568359375
-0.31041337890625,-0.1298257080078125,1.04742388671875
-0.304334765625,-0.09330724853515625,1.1277895654296874
-0.3578265625,-0.00409436767578125,1.1415524951171876
-0.21218298828125,0.0456589697265625,1.120662333984375
-0.33181009765625,-0.0006631030273437505,1.104933271484375
-0.25254498046875,0.0329142724609375,1.1479424267578124
-0.2912049609375,0.11894097900390625,1.171781787109375
-0.38627447265625,-0.04723026611328125,1.1263149658203124
-0.27151025390625,0.01306195556640625,1.1194335009765626
-0.27345541015625,-0.07566074462890625,0.9577190771484375
-0.23260712890625002,-0.09918941650390625,0.9650920751953125
-0.2231244921875,-0.0288484912109375,0.9680412744140625
-0.21364185546875,-0.03987755615234375,0.9950756005859375
-0.34785763671875003,-0.051886982421875,1.127543798828125
-0.2892598046875,0.0848734228515625,1.197341513671875
-0.3330258203125,0.00178780029296875,1.1651460888671874
-0.29728357421875,-0.04085791748046875,1.1587561572265626
-0.271267109375,-0.0308092138671875,1.048406953125
-0.26470220703125,0.0255615625,1.03366095703125
-0.26324333984375,-0.06977857666015624,1.0130165625
-0.280992890625,-0.03105430419921875,1.0742124462890625
-0.28366748046875,0.0544822216796875,0.9960586669921875
-0.22968939453125,0.00399361328125,0.8989808593749999
-0.23114826171875,-0.0200252392578125,0.9636174755859375
-0.3028758984375,-0.00360418701171875,0.9336339501953125
-0.15091056640625,0.0544822216796875,1.0110504296875
-0.39065107421875,-0.08595453857421875,1.034152490234375
-0.26129818359375,-0.0308092138671875,0.910286123046875
-0.23844259765625,0.0387964404296875,0.858183603515625
-0.2960678515625,-0.10850284912109374,0.9493630126953125
-0.2736985546875,-0.05311243408203125,0.9636174755859375
-0.30603677734375,0.0289928271484375,0.9228202197265625
-0.19346085937500002,-0.044044091796875,0.9665666748046875
-0.21704587890625,-0.09722869384765626,0.9483799462890625
-0.29825615234375,-0.0661022216796875,0.9700074072265625
-0.24281919921875,0.00276816162109375,0.9238032861328125
-0.27418484375,-0.04379900146484375,0.804606484375
-0.1881116796875,-0.0308092138671875,0.8397511083984375
-0.27345541015625,-0.05482806640625,0.7851909228515626
-0.1929745703125,0.01183650390625,0.7891231884765625
-0.2717533984375,0.010856142578125,0.85081060546875
-0.288773515625,-0.052867343750000004,0.9095488232421876
-0.29290697265625,0.056933125,0.9051250244140625
-0.220693046875,-0.01634888427734375,0.8559717041015625
-0.23917203125,-0.020515419921875,0.8377849755859375
-0.22239505859375,-0.061690595703125004,0.8353273095703125
-0.25351755859375,-0.03889719482421875,0.8908705615234375
-0.27637314453125,-0.00850599365234375,0.9166760546875
-0.28998923828125,-0.0254172265625,0.93142205078125
-0.3189234375,-0.047965537109375,0.9120064892578125
-0.23017568359375,-0.0317895751953125,0.8812856640625
-0.26567478515625,0.06624655761718751,0.9287186181640625
-0.18081734375,0.0358553564453125,1.0196522607421874
-0.24816837890625,0.018699033203125,0.9788550048828125
-0.30919765625,-0.10605194580078126,0.9429730810546875
-0.31770771484375,0.052031318359375,0.957473310546875
-0.159420625,-0.0092412646484375,0.97271083984375
-0.2873146484375,-0.10213050048828125,0.9940925341796875
-0.26227076171875,0.048109873046875,1.04152548828125
-0.30530734375,-0.03693647216796875,0.9390408154296875
-0.25303126953125,-0.00654527099609375,0.8820229638671875
-0.1710915625,-0.02713285888671875,0.781504423828125
-0.26567478515625,-0.03742665283203125,0.7955131201171874
-0.20148462890625,-0.1033559521484375,0.853268271484375
-0.2367405859375,0.01845394287109375,0.8427003076171875
-0.22750109375,-0.02149578125,0.8333611767578125
-0.2289599609375,-0.07271966064453125,0.8721922998046875
-0.27491427734375,0.0436982470703125,0.9724650732421874
-0.308225078125,0.04541387939453125,0.957473310546875
-0.28074974609375003,-0.026397587890625,0.97467697265625
-0.31746457031249997,0.03364954345703125,0.9994993994140625
-0.23990146484375,0.0505607763671875,0.9763973388671875
-0.214857578125,0.010611052246093749,0.913235322265625
-0.24379177734375002,0.01306195556640625,0.9783634716796875
-0.23601115234375,-0.00997653564453125,1.0196522607421874
-0.314060546875,-0.010221625976562499,0.9798380712890625
-0.2756437109375,0.00717978759765625,1.0240760595703124
-0.2873146484375,0.03928662109375,0.9886856689453125
-0.22482650390625,-0.0396324658203125,0.98254150390625
-0.37849384765625,-0.00262382568359375,0.977626171875
-0.249870390625,-0.0670825830078125,0.9031588916015625
-0.20804953125,0.03928662109375,0.859658203125
-0.2445212109375,-0.00654527099609375,0.852285205078125
-0.2999581640625,-0.08497417724609375,0.846386806640625
-0.13340416015625,-0.0641414990234375,0.9188879541015624
-0.382141015625,-0.0298288525390625,0.9324051171875
-0.216802734375,-0.01634888427734375,0.9336339501953125
-0.29874244140625,-0.09820905517578125,0.838522275390625
-0.28901666015625,-0.0121823486328125,0.91372685546875
-0.1978374609375,-0.044534272460937496,0.9599309765625
-0.34226531250000003,-0.047965537109375,0.9046334912109375
-0.12124693359375,0.014777587890624999,0.9532952783203125
-0.312115390625,-0.045024453125,0.91176072265625
-0.244034921875,0.03806116943359375,0.996795966796875
-0.2367405859375,0.0010525292968750002,1.0142453955078126
-0.30871136718750003,-0.02860340087890625,1.0407881884765624
-0.2644590625,0.019679394531249998,1.0402966552734374
-0.21655958984375,-0.027868129882812502,1.0240760595703124
-0.31430369140625003,-0.012427438964843749,0.987948369140625
-0.24427806640625,0.02531647216796875,0.985490703125
-0.21753216796875,0.04786478271484375,0.9508376123046876
-0.30311904296875003,-0.079337099609375,0.892590927734375
-0.2843969140625,-0.012427438964843749,0.9616513427734374
-0.302389609375,-0.03203466552734375,0.99630443359375
-0.286828359375,-0.044044091796875,1.0152284619140626
-0.3072525,-0.02517213623046875,1.0260421923828125
-0.286828359375,-0.05605351806640625,0.98254150390625
-0.27272597656249997,-0.020515419921875,0.9464138134765625
-0.3330258203125,-0.085219267578125,0.902913125
-0.24719580078125,-0.013407800292968751,0.976151572265625
-0.2333365625,-0.08497417724609375,0.9547698779296875
-0.28391062499999997,-0.04575972412109375,1.00416896484375
-0.2328502734375,0.01012087158203125,1.009575830078125
-0.3446967578125,0.0035034326171875,0.94518498046875
-0.22944625,-0.050661530761718754,0.9518206787109375
-0.30214646484375,-0.061690595703125004,0.9481341796875
-0.279047734375,0.00987578125,1.0299744580078125
-0.25692158203125,-0.012427438964843749,1.016457294921875
-0.35199109375,-0.02762303955078125,0.9857364697265625
-0.23114826171875,0.01600303955078125,1.0427543212890624
-0.304334765625,-0.073454931640625,0.96288017578125
-0.28804408203125,-0.0001729223632812504,0.995812900390625
-0.24816837890625,-0.0072805419921875,0.98647376953125
-0.374360390625,-0.05605351806640625,0.95304951171875
-0.212912421875,-0.01487834228515625,1.08281427734375
-0.3252451953125,-0.08350363525390625,1.071509013671875
-0.27637314453125,-0.01830960693359375,1.1046875048828124
-0.31041337890625,0.0182088525390625,1.0747039794921875
-0.35101851562499997,-0.02370159423828125,0.959439443359375
-0.21607330078125,-0.048455717773437504,0.9498545458984375
-0.32694720703125,-0.0406128271484375,0.99237216796875
-0.2561921484375,-0.027868129882812502,1.1543323583984375
-0.38311359375,-0.00262382568359375,1.153103525390625
-0.2668905078125,-0.02076051025390625,1.07101748046875
-0.2775888671875,-0.01585870361328125,0.9886856689453125
-0.3339983984375,-0.02958376220703125,1.0078554638671875
-0.2649453515625,-0.03840701416015625,1.084288876953125
-0.42517759765625,-0.03644629150390625,1.1172216015625
-0.2659179296875,0.0054641552734375,1.103458671875
-0.31576255859375,-0.0788469189453125,1.01596576171875
-0.33253953125,-0.022476142578125,1.0476696533203125
-0.21947732421875,-0.02370159423828125,1.0088385302734375
-0.3189234375,-0.03301502685546875,1.0348897900390626
-0.28853037109375,0.030463369140625002,1.120662333984375
-0.32840607421875,-0.06242586669921875,1.077407412109375
-0.32257060546875,-0.012672529296875,1.1651460888671874
-0.23917203125,-0.0097314453125,1.168832587890625
-0.38530189453125,-0.04821062744140625,1.1410609619140626
-0.28658521484375,-0.016593974609375,1.167849521484375
-0.33667298828125003,-0.0239466845703125,1.073475146484375
-0.3301080859375,0.03119864013671875,1.1228742333984374
-0.22190876953125,0.03659062744140625,1.12017080078125
-0.3155194140625,-0.0009081933593750001,1.11230626953125
-0.2503566796875,0.05913893798828125,1.2113502099609375
-0.269321953125,-0.014633251953124999,1.2201978076171875
-0.37898013671874997,0.00227798095703125,1.2029941455078126
-0.30919765625,0.02678701416015625,1.078390478515625
-0.27272597656249997,-0.06438658935546875,0.8839890966796875
-0.16160892578125,-0.05017135009765625,0.8643277685546875
-0.1424005078125,-0.0411030078125,0.8938197607421875
-0.20391607421875,-0.06046514404296875,0.8751414990234375
-0.16598552734375,-0.03644629150390625,0.9596852099609375
-0.32791978515625,-0.028358310546875,1.1312302978515625
-0.20026890625,0.0172284912109375,1.3853529638671875
-0.526082578125,-0.14477621826171874,1.3590559375
-0.36050115234375,-0.07124911865234375,1.1504000927734375
-0.2659179296875,-0.06732767333984375,0.924049052734375
-0.1944334375,0.04002189208984375,0.8884128955078126
-0.2367405859375,-0.0161037939453125,0.9134810888671875
-0.0996070703125,-0.06732767333984375,1.0098215966796875
-0.12465095703125,-0.02272123291015625,0.9341254833984375
-0.1346198828125,-0.006790361328125,0.8771076318359375
-0.1637972265625,-0.02321141357421875,1.0975602734375
-0.46091984375,-0.01683906494140625,1.335953876953125
-0.49034033203125,0.11158826904296874,1.4404046826171875
-0.35174794921875,-0.03252484619140625,1.2772156591796875
-0.41302037109375,-0.07320984130859375,1.1076367041015625
-0.2377131640625,-0.1033559521484375,0.954032578125
-0.24719580078125,-0.06879821533203125,0.806081083984375
-0.17279357421875,0.02433611083984375,0.7827332568359375
-0.21121041015625,-0.00458454833984375,0.7778179248046875
-0.100093359375,0.056933125,0.842454541015625
-0.26056875,-0.04085791748046875,0.930438984375
-0.39356880859375,-0.096983603515625,0.8380307421875
-0.25838044921875,-0.0778665576171875,0.624213798828125
-0.2357680078125,-0.1641383544921875,0.4408719140625
-0.18835482421875,-0.14477621826171874,0.3482179052734375
-0.1832487890625,-0.12467881103515625,0.3128275146484375
-0.21899103515625,-0.07320984130859375,0.43472774902343747
-0.25594900390624997,0.06281529296875,0.622247666015625
-0.08720669921875,0.04149243408203125,0.9011927587890625
-0.35466568359375,0.106931552734375,1.319241748046875
-0.548451875,0.01992448486328125,1.3853529638671875
-0.15285572265625,-0.01291761962890625,1.2634527294921876
-0.2347954296875,0.0010525292968750002,0.9365831494140625
-0.232363984375,-0.1366882373046875,0.8643277685546875
-0.25643529296875,-0.03129939453125,0.8500733056640625
-0.30409162109375,0.0883046875,0.6807401171875
-0.09595990234375,0.1157548046875,0.6175781005859375
-0.02690685546875,-0.00262382568359375,0.63846826171875
-0.142886796875,0.07384435791015626,1.1287726318359375
-0.57300947265625,0.06453092529296875,1.457854111328125
-0.42906791015625,-0.1376685986328125,1.3126060498046874
-0.2338228515625,0.08609887451171874,0.8869382958984375
-0.1754681640625,-0.0749254736328125,0.7006472119140625
-0.07018658203125,-0.142080224609375,0.8279543115234375
-0.40037685546875,0.077520712890625,1.062661416015625
-0.47672423828125,0.030708459472656248,1.0850261767578124
-0.31673513671875,0.1182057080078125,0.962388642578125
-0.06629626953125001,0.04688442138671875,0.8360646093749999
-0.0636216796875,0.11698025634765626,0.93338818359375
-0.17619759765625,0.0765403515625,0.9874568359375
-0.2785614453125,0.1319307666015625,1.1005094726562499
-0.44219771484375,-0.0974737841796875,1.031203291015625
-0.190543125,-0.1455114892578125,0.8918536279296875
-0.2795340234375,-0.0386521044921875,0.7242408056640625
-0.2542469921875,-0.1680597998046875,0.59717947265625
-0.191515703125,-0.10703230712890625,0.6175781005859375
-0.240144609375,0.04639424072265625,0.6701721533203124
-0.2406308984375,-0.016593974609375,0.729401904296875
-0.22531279296875,-0.18693175537109374,0.9007012255859375
-0.19710802734375,-0.1249239013671875,1.0334151904296875
-0.1871391015625,-0.06585713134765625,1.123611533203125
-0.28755779296875,0.017718671875,1.1410609619140626
-0.230418828125,-0.0543378857421875,0.9803296044921875
-0.2260422265625,0.1157548046875,0.888658662109375
-0.18057419921875,0.2133007568359375,0.89996392578125
-0.18203306640625,0.1799684716796875,1.095594140625
-0.316005703125,0.19835024658203124,1.16145958984375
-0.40645546875,0.16011615478515626,1.06708521484375
-0.314060546875,-0.02174087158203125,0.9139726220703125
-0.247925234375,0.00865032958984375,0.8830060302734375
-0.1336473046875,-0.10360104248046875,0.8564632373046875
-0.20051205078125,-0.2288422021484375,0.7987080859375
-0.3067662109375,-0.134237333984375,0.7935469873046875
-0.31624884765625,-0.09526797119140624,0.834590009765625
-0.1385101953125,-0.012672529296875,1.042017021484375
-0.09158330078125,0.0740894482421875,1.3497168066406249
-0.19832375,0.23535888671875,1.6773236865234376
-0.38578818359375,0.21060476318359375,1.5829493115234374
-0.54626357421875,0.1731059423828125,1.307936484375
-0.539698671875,0.09933375244140626,0.8805483642578125
-0.37654869140625,0.00276816162109375,0.663044921875
-0.2240970703125,-0.071494208984375,0.6662398876953125
-0.1560166015625,-0.22859711181640624,0.7724110595703125
-0.140941640625,-0.16144236083984376,0.7291561376953125
-0.296554140625,-0.16634416748046876,0.5669501806640624
-0.1365650390625,-0.09183670654296874,0.527873291015625
-0.13510617187500001,-0.11561046875,0.6731213525390625
-0.21412814453125,0.0035034326171875,0.997779033203125
-0.3456693359375,0.12041152099609376,1.361513603515625
-0.660298359375,0.1789881103515625,1.5994156738281249
-0.44292714843750003,0.2005560595703125,1.112797802734375
-0.047087851562500005,0.138303115234375,0.86260740234375
-0.0247185546875,-0.0700236669921875,1.182103984375
-0.26810623046875,0.04345315673828125,1.462769443359375
-0.41010263671875,0.182419375,1.5092193310546875
-0.5090624609375,0.04541387939453125,1.355615205078125
-0.413263515625,-0.0778665576171875,0.858183603515625
-0.2309051171875,-0.202862626953125,0.4605332421875
-0.09425789062500001,-0.21977385986328124,0.3418279736328125
-0.0480604296875,-0.1901179296875,0.293411953125
-0.015479062500000002,-0.14673694091796874,0.2695725927734375
-0.02131453125,-0.15801109619140624,0.4332531494140625
-0.061190234375,-0.2317832861328125,0.851302138671875
-0.3242726171875,-0.02737794921875,1.4620321435546875
-0.60413197265625,0.21354584716796876,1.841250009765625
-0.45532751953125,0.28658276611328126,1.8346143115234375
-0.2561921484375,-0.035711020507812496,1.3578271044921875
-0.1788721875,-0.19722554931640626,0.9410069482421874
-0.2221519140625,-0.14281549560546875,0.7792925244140625
-0.1399690625,-0.05311243408203125,0.75053783203125
-0.026177421875,-0.0063001806640625,0.6495277587890624
-0.21704587890625,0.04712951171875,0.839996875
-0.2279873828125,0.11550971435546875,0.8485987060546875
-0.31770771484375,0.17139031005859376,1.1843158837890626
-0.47915568359375,0.26893626220703126,1.3878106298828126
-0.49423064453125,0.24981921630859374,1.3224367138671875
-0.4828028515625,0.1770273876953125,1.0943653076171875
-0.3378887109375,0.09933375244140626,0.7262069384765625
0.0618408984375,-0.06879821533203125,0.700892978515625
0.14572576171875,0.0456589697265625,1.1351625634765625
-0.0543821875,0.03659062744140625,1.7817744921875
-0.6846128125,-0.16879507080078124,1.9412770166015625
-0.73202599609375,-0.159726728515625,1.5234737939453125
-0.55890708984375,-0.1729616064453125,0.9695158740234375
-0.3057936328125,-0.206784072265625,0.6075016699218749
-0.09790505859375,-0.22320512451171876,0.47552500488281246
-0.1200312109375,-0.08546435791015625,0.3845913623046875
-0.125380390625,-0.0033590966796874996,0.254580830078125
-0.06337853515625,-0.0001729223632812504,0.22336847167968749
0.03922845703125,-0.03546593017578125,0.3880320947265625
-0.011831894531250001,0.00276816162109375,0.7593854296875
-0.31381740234375,0.14908708984375,1.2914701220703124
-0.584437265625,0.22359455078125,1.8582079052734375
-0.9126823828125,0.19491898193359375,2.084067412109375
-0.4380642578125,0.10202974609375,1.17817171875
-0.1803310546875,0.00570924560546875,0.6689433203125
-0.049519296875,-0.0631611376953125,0.6020948046875
0.0929633984375,-0.06781785400390625,0.6768078515625
0.10001458984375,-0.0210056005859375,1.1081282373046875
-0.19905318359375002,-0.15163874755859374,1.4074719580078126
-0.40062,-0.0317895751953125,1.2934362548828124
-0.45240978515625,0.079481435546875,1.213562109375
-0.46942990234375,-0.048455717773437504,1.00416896484375
-0.2445212109375,-0.06291604736328126,0.9591936767578125
-0.34348103515625,0.023845930175781252,0.81738634765625
-0.133161015625,-0.1386489599609375,0.7640549951171876
-0.30798193359375,-0.2371752734375,0.8734211328125
-0.22434021484375,-0.26830174560546877,0.7768348583984375
-0.1141957421875,-0.12761989501953125,0.855234404296875
-0.26275705078125,-0.12663953369140624,1.0031858984375
-0.33132380859375,0.05276658935546875,1.2332234375
-0.2114535546875,0.0348749951171875,1.2688595947265624
-0.35563826171875,-0.0082609033203125,1.103458671875
-0.317950859375,-0.03105430419921875,0.8559717041015625
-0.13972591796875,-0.10997339111328125,0.6809858837890626
-0.0782103515625,-0.149923115234375,0.777572158203125
-0.3466419140625,0.0250713818359375,1.023338759765625
-0.3184371484375,-0.04281864013671875,1.2103671435546874
-0.31430369140625003,0.1000690234375,1.1852989501953124
-0.30311904296875003,0.02874773681640625,1.0422627880859374
-0.422989296875,-0.07222947998046875,1.008592763671875
-0.28609892578125,0.046149150390625,1.1282810986328125
-0.2561921484375,-0.11095375244140625,1.160968056640625
-0.2318776953125,0.01183650390625,1.1494170263671875
-0.10179537109375,0.07261890625,0.94321884765625
-0.35101851562499997,-0.015368522949218751,0.778555224609375
-0.24768208984375,0.06845237060546874,0.6770536181640625
-0.2309051171875,-0.10507158447265624,0.513618828125
-0.15091056640625,-0.22026404052734375,0.6308494970703125
-0.107873984375,-0.11046357177734376,0.86457353515625
-0.18640966796875,-0.08987598388671875,1.13000146484375
-0.27515742187500003,-0.011201987304687501,1.218968974609375
-0.1774133203125,-0.05262225341796875,1.1518746923828125
-0.20683380859375,-0.0028689160156250004,1.1764513525390625
-0.52827087890625,0.0182088525390625,1.0860092431640624
-0.09644619140624999,0.12776423095703124,1.128526865234375
-0.33229638671875,0.011346323242187501,1.2806563916015625
-0.53021603515625,-0.029338671875,1.457362578125
-0.42517759765625,-0.0001729223632812504,1.2329776708984375
-0.28269490234375,0.0731090869140625,0.8520394384765625
-0.2707808203125,0.13119549560546875,0.5662128808593749
-0.090367578125,0.00791505859375,0.4566009765625
0.0657312109375,-0.022476142578125,0.6131543017578125
-0.058272500000000005,0.01649322021484375,1.0457035205078125
-0.40378087890625003,0.04100225341796875,1.3138348828125
-0.5401849609375,-0.05311243408203125,1.240596435546875
-0.41350666015625,-0.01879978759765625,0.8682600341796876
-0.15382830078125,0.0436982470703125,0.6205272998046875
-0.0855046875,-0.08693489990234375,0.5856284423828125
-0.3967296875,-0.02419177490234375,0.765283828125
-0.366579765625,0.01183650390625,0.9238032861328125
-0.2411171875,0.07580508056640625,1.0987891064453126
-0.28074974609375003,-0.10164031982421876,1.2351895703125
-0.2766162890625,-0.14771730224609375,1.2705799609375
-0.1297569921875,0.00865032958984375,1.0511103857421875
-0.03322861328125,0.1329111279296875,0.8761245654296875
-0.26616107421875,0.0495804150390625,0.9481341796875
-0.3777644140625,-0.01291761962890625,1.0422627880859374
-0.489124609375,-0.07811164794921875,0.9183964208984375
-0.28707150390625,0.0003172583007812497,0.7026133447265624
-0.0694571484375,-0.0759058349609375,0.6296206640625
-0.133161015625,0.0005623486328125002,0.799199619140625
-0.2542469921875,0.04345315673828125,0.9405154150390624
-0.1385101953125,0.03315936279296875,1.162934189453125
-0.41423609375,0.2547210229492187,1.549279287109375
-0.56863287109375,0.18217428466796876,1.7087818115234374
-0.27199654296875,-0.06732767333984375,1.5047955322265625
-0.339347578125,-0.116590830078125,1.1327048974609375
-0.3009307421875,-0.09796396484375,0.718096640625
-0.129270703125,-0.12565917236328125,0.48510990234375
-0.13048642578125,-0.0817880029296875,0.4376769482421875
-0.2630001953125,0.09247122314453125,0.5448311865234375
-0.2513292578125,0.19933060791015625,0.8692431005859375
-0.32646091796875,0.2064382275390625,1.196358447265625
-0.34396732421875,0.130460224609375,1.4089465576171876
-0.2007551953125,-0.00752563232421875,1.25583396484375
-0.2591098828125,-0.144040947265625,1.00613509765625
-0.30409162109375,-0.093062158203125,0.8535140380859375
-0.26907880859375,-0.03840701416015625,0.949608779296875
-0.35588140625,-0.06291604736328126,1.30498728515625
-0.44900576171875,0.026051743164062502,1.4816934716796875
-0.33521412109375,0.03413972412109375,1.3656916357421875
-0.18835482421875,-0.02223105224609375,1.2074179443359374
-0.31868029296875,0.14345001220703124,1.2772156591796875
-0.5080898828125,0.23315307373046876,1.3020380859375
-0.27783201171875,0.159871064453125,1.1504000927734375
-0.09547361328125001,-0.116590830078125,1.177680185546875
-0.156502890625,-0.12933552734375,1.3728188671875
-0.35904228515625003,-0.13889405029296875,1.1735021533203125
-0.2668905078125,0.01649322021484375,0.900455458984375
-0.36196001953125,-0.138158779296875,0.809030283203125
-0.269321953125,-0.155805283203125,0.7950215869140624
-0.268349375,-0.037916833496093746,0.91176072265625
-0.18859796875,0.024091020507812498,0.9808211376953125
-0.26178447265625,0.059874208984374996,0.9179048876953125
-0.28658521484375,0.12335260498046875,0.8775991650390624
-0.39843169921875,-0.0180645166015625,0.8259881787109375
-0.1083602734375,-0.13717841796875,0.901438525390625
-0.25546271484375,-0.09134652587890625,1.047915419921875
-0.23795630859375,-0.1543347412109375,1.1317218310546875
-0.14264365234375,-0.1327667919921875,1.102967138671875
-0.2357680078125,-0.138158779296875,0.9424815478515625
-0.35709712890625,0.01747358154296875,0.806081083984375
-0.3291355078125,0.06453092529296875,0.8301662109375
-0.112736875,0.19614443359375,1.056271484375
-0.244034921875,-0.0006631030273437505,1.2580458642578125
-0.27394169921875,0.11207844970703125,1.3020380859375
-0.3126016796875,-0.0151234326171875,1.060695283203125
-0.19346085937500002,-0.11536537841796875,0.695977646484375
-0.1744955859375,-0.07026875732421875,0.600128671875
-0.07383375,-0.08203309326171875,0.6699263867187499
-0.12659611328125,-0.03644629150390625,1.1081282373046875
-0.4419545703125,0.03757098876953125,1.46621017578125
-0.43198564453125,0.004973974609375,1.4290994189453126
-0.3126016796875,-0.122472998046875,0.9444476806640625
-0.34250845703125,-0.05482806640625,0.639451328125
-0.2960678515625,0.00717978759765625,0.5096865625
-0.16987583984375,-0.13056097900390626,0.439397314453125
0.00227048828125,-0.0847290869140625,0.5595771826171875
-0.203186640625,0.080461796875,0.7456225
-0.29631099609375,0.026296833496093748,0.792318154296875
-0.15358515625,-0.1710008837890625,0.87931953125
-0.0334717578125,-0.0337502978515625,0.917167587890625
-0.32013916015625,-0.05115171142578125,1.0073639306640625
-0.4312562109375,-0.08423890625,1.1725190869140625
-0.436605390625,0.13707766357421874,1.29122435546875
-0.5022544140625,0.159871064453125,1.1626884228515626
-0.3408064453125,-0.1229631787109375,0.908319990234375
-0.1044699609375,-0.03252484619140625,0.7630719287109375
-0.1443456640625,0.12384278564453124,0.7271900048828125
-0.1326747265625,0.00472888427734375,0.73775796875
-0.18081734375,-0.08693489990234375,0.979100771484375
-0.21193984375,0.04443351806640625,1.0987891064453126
-0.43393080078125,7.216796875000007e-05,0.8717007666015625
-0.338375,-0.07173929931640625,0.575060478515625
-0.10495625,-0.0925719775390625,0.5627721484375
-0.12124693359375,-0.098944326171875,0.6706636865234374
-0.3787369921875,0.0338946337890625,0.839505341796875
-0.32937865234375,-0.10286577148437501,0.9717277734375
-0.361716875,-0.0011532836914062497,1.06020375
-0.42858162109375,0.13903838623046874,0.9085657568359375
-0.1015522265625,-0.19207865234375,0.843929140625
0.014427714843749998,-0.11193411376953125,1.1479424267578124
-0.43830740234375,0.179478291015625,1.3416065087890625
-0.51927453125,0.010856142578125,1.091661875
-0.131215859375,0.0486000537109375,0.947642646484375
-0.25108611328125,-0.09722869384765626,0.8589209033203125
-0.27540056640625,-0.029338671875,0.7512751318359375
-0.133161015625,0.02531647216796875,0.64829892578125
-0.138996484375,-0.0999246875,0.56965361328125
-0.10811712890625,0.008895419921875,0.7080202099609375
-0.2318776953125,-0.13007079833984375,0.9449392138671875
-0.3865176171875,-0.16634416748046876,1.245020234375
-0.41691068359375,-0.01193725830078125,1.417548388671875
-0.2717533984375,0.07678544189453125,1.2536220654296875
-0.41934212890625,0.14148928955078124,1.103458671875
-0.34153587890625,0.02531647216796875,0.934862783203125
-0.1540714453125,0.1897720849609375,0.93437125
-0.267376796875,0.20815385986328125,0.8333611767578125
-0.049276152343750004,-0.07075893798828126,0.8476156396484374
-0.13486302734375,0.05668803466796875,1.075441279296875
-0.3651208984375,-0.07566074462890625,1.1818582177734376
-0.25740787109375,-0.1553151025390625,1.0117877294921875
-0.20877896484375,-0.10360104248046875,0.9257694189453125
-0.232363984375,0.1427147412109375,1.039067822265625
-0.48936775390625,0.026296833496093748,1.1032129052734374
-0.26956509765625,-0.087179990234375,1.2359268701171875
-0.4011062890625,0.14148928955078124,1.315801015625
-0.29971501953125,0.011346323242187501,1.194392314453125
-0.2104809765625,0.04443351806640625,1.0481611865234375
-0.14604767578125,-0.0366913818359375,0.89013326171875
-0.1472633984375,-0.067572763671875,0.79379275390625
-0.11395259765625,-0.0602200537109375,0.7797840576171875
-0.3057936328125,-0.1259042626953125,0.869980400390625
-0.22190876953125,-0.03889719482421875,0.9793465380859375
-0.3500459375,0.00521906494140625,1.0776531787109376
-0.43538966796875,0.06060947998046875,1.0633987158203124
-0.3417790234375,-0.0759058349609375,0.810996416015625
-0.16404037109375,-0.024436865234375,0.7114609423828124
-0.203186640625,-0.00311400634765625,0.7043337109375
-0.30944080078125,-0.10213050048828125,0.7736398925781249
-0.15528716796875,-0.05850442138671875,1.0184234277343749
-0.2542469921875,0.0037485229492187503,1.3199790478515625
-0.49131291015625,0.09492212646484376,1.2806563916015625
-0.31770771484375,0.03928662109375,0.9370746826171875
-0.1399690625,0.096147578125,0.741690234375
-0.19419029296875,-0.01169216796875,0.74660556640625
-0.156502890625,-0.112669384765625,0.98843990234375
-0.2785614453125,0.0123266845703125,1.162934189453125
-0.47477908203125,0.08168724853515624,1.223884306640625
-0.376305546875,-0.140119501953125,0.9872110693359375
-0.18859796875,-0.28104644287109376,0.8721922998046875
-0.19637859375,-0.23594982177734375,0.859658203125
-0.2722396875,-0.0513968017578125,0.8658023681640625
-0.20975154296875,-0.1043363134765625,0.8117337158203125
-0.34104958984375,-0.0513968017578125,0.97860923828125
-0.27929087890625,0.09394176513671874,1.0471781201171875
-0.19953947265625,0.12555841796875,1.1518746923828125
-0.20804953125,0.19687970458984375,1.0933822412109375
-0.11443888671875,0.252025029296875,1.063644482421875
-0.29047552734375,0.13315621826171875,1.220935107421875
-0.486206875,7.216796875000007e-05,1.16539185546875
-0.2814791796875,-0.13129625,0.9940925341796875
-0.3592854296875,-0.1719812451171875,0.7928096875
-0.20148462890625,-0.10703230712890625,0.5880861083984374
-0.13729447265625,-0.20261753662109375,0.447261845703125
-0.1180860546875,-0.20359789794921876,0.5037881640624999
-0.09547361328125001,-0.0317895751953125,0.7200627734375
-0.273212265625,0.08634396484375,1.0599579833984376
-0.3592854296875,0.12972495361328126,1.4330316845703126
-0.30409162109375,0.18413500732421875,1.6901035498046875
-0.494960078125,0.13070531494140625,1.523719560546875
-0.42371873046874997,0.1338914892578125,1.168832587890625
-0.21193984375,0.00276816162109375,0.9370746826171875
-0.16987583984375,-0.1665892578125,0.88620099609375
-0.1744955859375,-0.15114856689453124,0.81148794921875
-0.1764407421875,-0.10703230712890625,0.9056165576171875
-0.4332013671875,-0.046740085449218746,0.84786140625
-0.29387955078125,-0.1847259423828125,0.7529954980468749
-0.14580453125,0.0456589697265625,0.8195982470703125
-0.30506419921875,-0.17124597412109374,0.8761245654296875
-0.26470220703125,0.10399046875,1.056763017578125
-0.44997833984375,0.07335417724609375,1.054796884765625
-0.31770771484375,-0.11830646240234374,0.9901602685546875
-0.1171134765625,0.05889384765625,1.0314490576171875
-0.205131796875,-0.08423890625,1.028254091796875
-0.0286088671875,0.14688127685546876,1.2295369384765624
-0.32475890625,0.1863408203125,1.5239653271484375
-0.5895433007812501,0.10080429443359375,1.5509996533203125
-0.4964189453125,0.08609887451171874,1.428362119140625
-0.49520322265625,-0.00213364501953125,1.088221142578125
-0.117599765625,0.11771552734375,0.764792294921875
-0.216802734375,-0.0513968017578125,0.51066962890625
-0.17960162109375,-0.198941181640625,0.5148476611328126
-0.27783201171875,-0.16291290283203125,0.5025593310546875
-0.25108611328125,-0.21438187255859376,0.4288293505859375
-0.05632734375,-0.17859868408203125,0.5089492626953125
-0.16695810546875,-0.00850599365234375,0.97074470703125
-0.27272597656249997,0.1789881103515625,1.0511103857421875
-0.4001337109375,0.13119549560546875,1.1941465478515625
-0.4818302734375,-0.01487834228515625,1.241579501953125
-0.160393203125,-0.20849970458984374,1.193409248046875
-0.15285572265625,-0.18202994873046874,1.103950205078125
-0.16160892578125,-0.153844560546875,1.015474228515625
-0.25449013671875,-0.15457983154296875,0.86260740234375
-0.28415376953125,0.0255615625,0.881777197265625
-0.38141158203125003,-0.037916833496093746,0.915201455078125
-0.38821962890625,-0.0006631030273437505,1.1882481494140624
-0.28123603515625,0.0927163134765625,1.2595204638671875
-0.13680818359375,0.185360458984375,1.156052724609375
-0.3194097265625,0.150067451171875,0.9695158740234375
-0.35320681640625,0.0672269189453125,0.9080742236328125
-0.146777109375,-0.04968116943359375,0.7908435546875
-0.17522501953125,-0.14526639892578125,0.8603955029296875
-0.16306779296875,-0.08105273193359375,1.086255009765625
-0.30263275390625,-0.16242272216796874,1.2319946044921875
-0.38457246093749997,-0.08056255126953125,1.227816572265625
-0.4589746875,0.11109808837890625,1.1823497509765626
-0.4283384765625,0.08511851318359374,1.2305200048828124
-0.09936392578125,0.02776737548828125,1.2029941455078126
-0.1929745703125,0.1946738916015625,1.149171259765625
-0.18592337890625,-0.0719843896484375,1.0201437939453124
-0.282938046875,-0.03105430419921875,0.9306847509765624
-0.41496552734375003,-0.01732924560546875,0.943710380859375
-0.448276328125,-0.19379428466796875,1.0447204541015624
-0.42201671875,-0.13717841796875,1.0181776611328126
-0.2007551953125,-0.15286419921875,0.743164833984375
-0.16452666015625,-0.2013920849609375,0.518042626953125
-0.1555303125,-0.1396293212890625,0.46151630859375
-0.1112780078125,-0.1151202880859375,0.4588128759765625
-0.1978374609375,-0.10556176513671875,0.5576110498046875
-0.316005703125,-0.0033590966796874996,0.80853875
-0.3126016796875,-0.09575815185546875,1.1562984912109375
-0.312115390625,-0.03693647216796875,1.4448284814453125
-0.45775896484375,0.15227326416015624,1.5308467919921875
-0.48839517578125,-0.011201987304687501,1.106899404296875
-0.16136578125,-0.06977857666015624,0.7581565966796875
-0.19078626953125,0.11011772705078125,0.6323240966796875
-0.107873984375,0.09835339111328124,0.6254426318359375
-0.15917748046875,-0.0651218603515625,0.8938197607421875
-0.17376615234375,-0.12149263671875,1.0137538623046876
-0.27248283203125,-0.226391298828125,1.042017021484375
-0.38530189453125,-0.0974737841796875,0.9835245703125
-0.34007701171875,-0.13546278564453124,0.85867513671875
-0.29290697265625,-0.0729647509765625,0.976151572265625
-0.38432931640625,0.104970830078125,1.217002841796875
-0.33181009765625,-0.03301502685546875,1.2334692041015625
-0.21947732421875,0.11158826904296874,1.317275615234375
-0.26324333984375,0.02335574951171875,1.147205126953125
-0.2941226953125,0.05227640869140625,0.9557529443359375
-0.22628537109375,-0.09722869384765626,0.7952673535156249
-0.09547361328125001,-0.17835359375,0.8026403515625
-0.16185207031249998,-0.12320826904296875,0.8717007666015625
-0.2999581640625,-0.20310771728515625,0.798216552734375
-0.26372962890625,-0.09330724853515625,0.7881401220703125
-0.38141158203125003,-0.14036459228515624,0.777080625
-0.29169125,0.0005623486328125002,0.7684787939453125
-0.2347954296875,-0.10458140380859375,0.6834435498046875
-0.38432931640625,-0.11389483642578124,0.765775361328125
-0.03031087890625,-0.055073156738281254,0.86064126953125
-0.27540056640625,-0.04477936279296875,1.0250591259765625
-0.34299474609375,0.0064445166015625,1.30302115234375
-0.5559893554687501,-0.0759058349609375,1.1115689697265625
-0.2630001953125,-0.01978014892578125,0.992863701171875
-0.22142248046875002,-0.04968116943359375,0.90193005859375
-0.14969484375,-0.08350363525390625,0.8633447021484375
-0.12367837890625,-0.01389798095703125,0.824759345703125
-0.26567478515625,-0.0719843896484375,0.8014115185546875
-0.341292734375,-0.2209993115234375,0.7837163232421875
-0.31576255859375,-0.024436865234375,0.8741584326171875
-0.31989601562500003,-0.057278969726562504,0.9097945898437501
-0.33181009765625,-0.10016977783203125,1.040050888671875
-0.27831830078124997,-0.083258544921875,1.15162892578125
-0.35806970703125,-0.15310928955078124,1.0869923095703125
-0.28585578125,-0.093062158203125,0.968287041015625
-0.3417790234375,-0.03938737548828125,0.8419630078125
-0.23066197265625,0.07384435791015626,0.84884447265625
-0.16063634765625,0.07580508056640625,0.9407611816406249
-0.26275705078125,0.07580508056640625,1.1130435693359375
-0.22944625,-0.030319033203124998,1.074458212890625
-0.25084296875,-0.01095689697265625,0.8171405810546875
-0.27515742187500003,-0.06977857666015624,0.71318130859375
-0.30506419921875,-0.1626678125,0.7121982421874999
-0.35028908203125,-0.1327667919921875,0.7947758203124999
-0.41350666015625,-0.17173615478515625,0.70138451171875
-0.24695265625,-0.1641383544921875,0.6126627685546875
-0.06435111328125,-0.233253828125,0.720554306640625
-0.32111173828125,-0.10188541015625,1.0398051220703124
-0.267376796875,-0.079337099609375,1.220935107421875
-0.30555048828125,-0.0700236669921875,1.234698037109375
-0.34639876953125,0.10129447509765625,1.235681103515625
-0.15723232421875,-0.050661530761718754,1.0845346435546874
-0.23455228515625,-0.0229663232421875,1.0520934521484375
-0.242089765625,0.07776580322265625,1.1125520361328125
-0.25789416015625,0.0358553564453125,0.9992536328125
-0.2411171875,-0.03742665283203125,0.980083837890625
-0.39162365234375,-0.11095375244140625,0.9862280029296875
-0.31527626953125,-0.18350049072265626,1.0353813232421876
-0.30700935546875,-0.1700205224609375,0.9704989404296875
-0.36439146484375,-0.14526639892578125,0.946659580078125
-0.3437241796875,-0.02737794921875,1.0122792626953125
-0.3116291015625,0.064776015625,0.9641090087890625
-0.31308796875,0.08242251953125,0.9316678173828125
-0.31235853515625,-0.00605509033203125,0.947642646484375
-0.18592337890625,0.03953171142578125,0.9016842919921875
-0.160393203125,0.06600146728515625,0.9469053466796875
-0.15334201171875,0.0966377587890625,1.075441279296875
-0.2970404296875,0.08413815185546875,1.1602307568359376
-0.34250845703125,-0.01095689697265625,1.111814736328125
-0.3797095703125,0.01183650390625,1.1209081005859376
-0.376305546875,-0.15212892822265625,1.05233921875
-0.29509527343749997,-0.1455114892578125,0.9835245703125
-0.19346085937500002,-0.18595139404296876,0.9124980224609375
-0.3913805078125,-0.21879349853515626,0.8952943603515625
-0.34591248046875,-0.08938580322265625,0.8436833740234375
-0.20026890625,-0.13325697265625,0.734317236328125
-0.156502890625,-0.02125069091796875,0.83704767578125
-0.2707808203125,-0.171491064453125,1.0778989453125
-0.31868029296875,-0.02713285888671875,1.2840971240234376
-0.30311904296875003,0.14197947021484375,1.327106279296875
-0.3612305859375,-0.00360418701171875,1.0584833837890626
-0.24670951171875,0.0152677685546875,0.938795048828125
-0.1881116796875,0.1142842626953125,1.0228472265625
-0.39308251953125,-0.008996174316406251,1.2088925439453124
-0.3651208984375,-0.14894275390625,1.2351895703125
-0.2722396875,-0.170510703125,1.2319946044921875
-0.1900568359375,-0.17369687744140624,1.053813818359375
-0.2488978125,-0.19673536865234376,0.9822957373046874
-0.32013916015625,-0.16070708984375,0.8891501953125
-0.31308796875,-0.23104801513671874,0.764792294921875
-0.2630001953125,0.0760501708984375,0.8033776513671875
-0.2912049609375,0.05227640869140625,0.9523122119140625
-0.2163164453125,0.00521906494140625,1.1794005517578126
-0.3456693359375,-0.050661530761718754,1.28139369140625
-0.3495596484375,-0.0415931884765625,1.073475146484375
-0.27831830078124997,-0.0053198193359375,0.935845849609375
-0.25473328125,-0.06683749267578125,0.9818042041015624
-0.20634751953125,-0.193059013671875,0.7328426367187499
-0.2902323828125,-0.21830331787109375,0.6047982373046875
-0.13510617187500001,-0.18546121337890625,0.54212775390625
-0.1647698046875,-0.17418705810546875,0.71514744140625
-0.3271903515625,-0.11879664306640625,0.8183694140625
-0.23212083984375,0.00276816162109375,0.86457353515625
-0.27929087890625,0.0799716162109375,0.7380037353515625
-0.290718671875,0.08707923583984375,0.7345630029296875
-0.18640966796875,0.06502110595703126,0.899472392578125
-0.22628537109375,0.13536203125,1.239613369140625
-0.2017277734375,0.1319307666015625,1.5760678466796876
-0.38505875,0.2691813525390625,1.7544943994140625
-0.5888138671875,0.2240847314453125,1.565991416015625
-0.2989855859375,0.026051743164062502,1.1651460888671874
-0.27248283203125,-0.03448556884765625,0.8997181591796874
-0.162338359375,-0.0006631030273437505,0.7357918359375
-0.11881548828124999,-0.049926259765625,0.631095263671875
-0.2659179296875,-0.11928682373046876,0.6446124267578125
-0.10495625,-0.1798241357421875,0.806081083984375
-0.2532744140625,-0.1111988427734375,1.091661875
-0.553314765625,-0.0298288525390625,1.2954023876953125
-0.44608802734374997,-0.03448556884765625,1.256325498046875
-0.3320532421875,-0.00752563232421875,1.08478041015625
-0.22579908203125,-0.11634573974609375,0.850319072265625
-0.1287844140625,-0.1690401611328125,0.8510563720703125
-0.3033621875,-0.19869609130859375,0.8623616357421875
-0.061676523437500005,-0.12320826904296875,0.71318130859375
-0.0305540234375,-0.15114856689453124,0.536720888671875
-0.1827625,-0.2062938916015625,0.5443396533203125
-0.19467658203125,-0.23129310546875,0.53622935546875
-0.07504947265625,-0.201882265625,0.6750874853515625
-0.38700390625000003,-0.00213364501953125,0.8205813134765625
-0.32743349609375,0.1231075146484375,0.8242678125
-0.19175884765625,0.13952856689453125,0.9400238818359374
-0.2416034765625,0.20227169189453126,1.0909245751953125
-0.15382830078125,0.15472416748046874,1.1388490625
-0.25400384765625,0.12286242431640625,1.17129025390625
-0.1414279296875,0.03806116943359375,1.2639442626953126
-0.38919220703125,0.0417375244140625,1.19684998046875
-0.3019033203125,0.0035034326171875,0.9867195361328125
-0.16355408203125,0.04541387939453125,0.929947451171875
-0.330594375,0.104970830078125,0.9324051171875
-0.27540056640625,-0.0180645166015625,0.93928658203125
-0.13194529296875,0.00717978759765625,0.9700074072265625
-0.28026345703125,-0.02149578125,1.1445016943359374
-0.35466568359375,-0.0308092138671875,1.2745122265625
-0.32013916015625,-0.037916833496093746,1.3897767626953126
-0.3865176171875,0.00791505859375,1.287783623046875
-0.2766162890625,0.0682072802734375,1.0766701123046876
-0.29728357421875,-0.045024453125,1.0098215966796875
-0.3500459375,-0.05262225341796875,1.2194605078125
-0.50347013671875,-0.05409279541015625,1.27352916015625
-0.39502767578125,-0.04134809814453125,0.9577190771484375
-0.29193439453125003,0.026541923828125,0.7443936669921875
-0.28172232421875,0.026296833496093748,0.5684247802734375
-0.2177753125,-0.10507158447265624,0.446278779296875
-0.12319208984375,-0.1945295556640625,0.40843072265625
-0.1706052734375,-0.0857094482421875,0.5158307275390625
-0.28366748046875,0.02972809814453125,0.645841259765625
-0.4020788671875,-0.02321141357421875,0.784453623046875
-0.20877896484375,0.0373258984375,0.9095488232421876
-0.2639727734375,0.21305566650390625,1.16244265625
-0.43004048828125,0.2103596728515625,1.3059703515625
-0.3437241796875,0.1691844970703125,1.334970810546875
-0.31576255859375,0.05668803466796875,1.17325638671875
-0.17911533203125,-0.10850284912109374,0.97074470703125
-0.09595990234375,-0.20849970458984374,0.910286123046875
-0.04465640625,-0.2214894921875,1.0592206835937499
-0.25546271484375,0.02923791748046875,1.3086737841796876
-0.5224354101562501,0.0976181201171875,1.3089195507812499
-0.4176401171875,-0.02958376220703125,1.2280623388671874
-0.338375,0.02335574951171875,1.0402966552734374
-0.27005138671875,0.05325677001953125,0.968287041015625
-0.27199654296875,-0.0808076416015625,1.128526865234375
-0.1560166015625,-0.05997496337890625,1.12803533203125
-0.2231244921875,-0.02223105224609375,0.98254150390625
-0.24962724609375,0.0059543359375,1.0560257177734376
-0.25449013671875,-0.10507158447265624,1.3755222998046874
-0.46481015625,0.08168724853515624,1.4974225341796874
-0.3378887109375,-0.05482806640625,1.4337689843749999
-0.2017277734375,-0.11291447509765624,1.2899955224609374
-0.33813185546875,0.04786478271484375,1.085271943359375
-0.36487775390625,-0.18202994873046874,0.86457353515625
-0.3096839453125,-0.24183198974609374,0.7930554541015625
-0.13948277343749999,-0.0249270458984375,0.879811064453125
-0.0937716015625,-0.016593974609375,1.0270252587890625
-0.4380642578125,0.0740894482421875,1.243545634765625
-0.36828177734375,0.15276344482421875,1.19095158203125
-0.26227076171875,0.073599267578125,0.9075826904296875
-0.11152115234375,0.12188206298828125,0.8572005371093749
-0.17279357421875,0.2522701196289063,1.1189419677734376
-0.40572603515625,-0.09575815185546875,1.08478041015625
-0.29533841796875,-0.0229663232421875,0.7790467578125
-0.1180860546875,0.08560869384765625,0.5276275244140625
-0.1477496875,-0.11487519775390626,0.4676604736328125
-0.10519939453125,-0.20506843994140625,0.5610517822265625
-0.29509527343749997,-0.02909358154296875,0.75840236328125
-0.23819945312500002,0.1574201611328125,0.79772501953125
-0.039307226562500006,-0.14428603759765624,0.81148794921875
-0.1715778515625,-0.259723583984375,1.0353813232421876
-0.26470220703125,-0.07443529296875,1.1676037548828124
-0.28707150390625,-0.11585555908203125,1.1818582177734376
-0.32159802734375,0.04149243408203125,1.1297556982421875
-0.244034921875,0.09835339111328124,0.9601767431640625
-0.04271125,0.0731090869140625,0.97369390625
-0.25473328125,0.106931552734375,1.1336879638671875
-0.24136033203125,0.18952699462890624,1.21454517578125
-0.34834392578125,0.23658433837890624,1.0491442529296875
-0.40256515625,0.13805802490234376,0.8702261669921875
-0.29509527343749997,0.114774443359375,0.78396208984375
-0.26810623046875,-0.091101435546875,0.7016302783203126
-0.10568568359375,-0.0464949951171875,0.6224934326171875
-0.0218008203125,-0.16242272216796874,0.6682060205078125
-0.26567478515625,-0.10507158447265624,0.820827080078125
-0.3203823046875,-0.03546593017578125,0.6745959521484375
-0.16185207031249998,-0.13203152099609375,0.610450869140625
-0.30214646484375,0.1123235400390625,0.733334169921875
-0.28220861328125,-0.0298288525390625,0.9429730810546875
-0.34591248046875,0.0182088525390625,1.0464408203125
-0.23528171875,-0.1038461328125,0.819844013671875
-0.34226531250000003,-0.0866898095703125,0.536720888671875
-0.18932740234375,-0.05556333740234375,0.3644385009765625
-0.063135390625,-0.0729647509765625,0.30520875000000003
-0.0811280859375,0.0525214990234375,0.41334605468749996
-0.060460800781250004,0.05472731201171875,0.6382224951171875
-0.13607875,0.00791505859375,0.9891772021484375
-0.52681201171875,0.134381669921875,1.3239113134765625
-0.66297294921875,0.2348687060546875,1.2688595947265624
-0.3524773828125,0.15031254150390624,1.0334151904296875
-0.15528716796875,0.03315936279296875,1.0503730859375
-0.21218298828125,-0.02174087158203125,1.003677431640625
-0.20245720703125,0.0476196923828125,0.9695158740234375
-0.3009307421875,0.07261890625,0.950591845703125
-0.27613,-0.09796396484375,0.7891231884765625
-0.14069849609375001,-0.118551552734375,0.636993662109375
-0.10179537109375,0.0044837939453125,0.807064150390625
-0.4939875,-0.10580685546875,0.964354775390625
-0.5392123828125,0.08953013916015624,0.9591936767578125
-0.20148462890625,0.07629526123046874,0.713672841796875
-0.1472633984375,0.1113431787109375,0.7203085400390625
-0.31089966796875,0.0584036669921875,0.8810398974609375
-0.4098594921875,0.0093856005859375,0.95698177734375
-0.2445212109375,-0.0317895751953125,0.9680412744140625
-0.3111428125,0.28217114013671873,1.070525947265625
-0.43782111328125,0.00325834228515625,1.0540595849609375
-0.1637972265625,-0.10899302978515625,1.0167030615234376
-0.14945169921875,0.15276344482421875,1.0427543212890624
-0.3641483203125,-0.15850127685546875,1.1051790380859374
-0.1355924609375,-0.15556019287109374,1.255342431640625
-0.3797095703125,-0.049926259765625,1.2806563916015625
-0.55161275390625,-0.0455146337890625,1.2059433447265624
-0.20926525390625,-0.0406128271484375,1.067576748046875
-0.1744955859375,-0.013162709960937501,1.16244265625
-0.45484123046875,-0.04870080810546875,1.3981328271484375
-0.4166675390625,-0.12222790771484375,1.2017653125
-0.16525609375,0.055462583007812497,1.0255506591796875
-0.4049966015625,-0.00777072265625,1.06118681640625
-0.22336763671875,-0.00605509033203125,0.9493630126953125
-0.13632189453125,0.1201664306640625,0.8446664404296875
-0.28366748046875,-0.12958061767578125,1.0206353271484374
-0.3884627734375,-0.112669384765625,1.1641630224609374
-0.2411171875,0.13315621826171875,1.0958399072265625
-0.3578265625,-0.025662316894531252,1.121645400390625
-0.49131291015625,-0.01169216796875,1.19390078125
-0.2921775390625,-0.0016434643554687498,0.872929599609375
-0.0577862109375,-0.0298288525390625,0.7109694091796875
0.0560054296875,-0.00360418701171875,0.985982236328125
-0.3612305859375,0.026051743164062502,1.384124130859375
-0.53507892578125,-0.048945898437499996,1.282868291015625
-0.30944080078125,-0.06585713134765625,1.034152490234375
-0.2299325390625,0.1314405859375,1.2550966650390625
-0.4045103125,-0.08227818359375,1.4131245898437501
-0.33910443359375,-0.00409436767578125,1.3430811083984375
-0.3106565234375,0.13903838623046874,1.2118417431640625
-0.2717533984375,-0.059484782714843754,1.0609410498046874
-0.27734572265625,0.0025230712890624996,1.1995534130859375
-0.4866931640625,0.02678701416015625,1.17718865234375
-0.232363984375,-0.15457983154296875,0.8989808593749999
-0.035173769531249996,-0.11757119140625,0.584891142578125
-0.09887763671875,0.0417375244140625,0.5118984619140625
-0.1997826171875,-0.028358310546875,0.46741470703125
-0.11832919921875,-0.10556176513671875,0.6003744384765625
-0.0543821875,0.0633054736328125,1.13786599609375
-0.56911916015625,0.22678072509765626,1.7009172802734376
-0.430769921875,0.118695888671875,1.603347939453125
-0.22701480468750002,0.27849478515625,1.3868275634765626
-0.41156150390625,0.1093824560546875,1.3352165771484374
-0.20634751953125,-0.11977700439453125,1.32268248046875
-0.337402421875,-0.04698517578125,1.15752732421875
-0.2075632421875,-0.076396015625,0.8141913818359375
-0.26956509765625,-0.120512275390625,0.6333071630859375
-0.13680818359375,-0.1210024560546875,0.5389327880859375
-0.15966376953125,-0.1915884716796875,0.5433565869140625
-0.13729447265625,0.02335574951171875,0.7144101416015625
-0.44365658203125,0.0008074389648437498,0.8707177001953125
-0.37508982421875,-0.0543378857421875,0.75053783203125
-0.18884111328125,-0.00360418701171875,0.680248583984375
-0.1861665234375,0.0765403515625,0.771673759765625
-0.24525064453125,0.0760501708984375,1.091170341796875
-0.29193439453125003,0.01404231689453125,1.465227109375
-0.257651015625,0.09810830078125,1.6045767724609374
-0.2999581640625,-0.0837487255859375,1.3248943798828126
-0.29533841796875,-0.071494208984375,0.9611598095703124
-0.330594375,-0.12320826904296875,0.7139186083984375
-0.19832375,-0.03105430419921875,0.4878133349609375
-0.022773398437500002,0.016738310546875,0.3914728271484375
-0.19029998046875,0.09198104248046875,0.379921796875
-0.1180860546875,-0.06683749267578125,0.533771689453125
-0.24768208984375,0.04492369873046875,0.841471474609375
-0.36730919921875,0.1427147412109375,0.97271083984375
-0.5090624609375,0.0946770361328125,1.2231470068359376
-0.2989855859375,0.1172253466796875,1.4435996484375
-0.39745912109375,0.2309472607421875,1.5116769970703126
-0.5294866015625,0.053992041015625,1.2745122265625
-0.09206958984375,-0.1200220947265625,0.9945840673828125
-0.1754681640625,-0.14673694091796874,0.876861865234375
-0.17814275390625,-0.12418863037109375,0.7915808544921875
-0.21558701171875,-0.16830489013671876,0.6893419482421875
-0.27491427734375,-0.13644314697265625,0.581941943359375
-0.27102396484375,-0.060710234375,0.6878673486328125
-0.20804953125,-0.08644471923828125,0.9390408154296875
-0.40329458984375,0.11060790771484375,1.1612138232421876
-0.45630009765625,0.096147578125,1.087729609375
-0.19467658203125,-0.02664267822265625,1.0014655322265624
-0.279047734375,0.13609730224609376,1.15949345703125
-0.24233291015625,0.03266918212890625,1.22044357421875
-0.327676640625,0.09418685546875,1.3008092529296875
-0.432715078125,0.044188427734375,1.1066536376953124
-0.20197091796875,0.059874208984374996,0.869980400390625
-0.14750654296875,0.03144373046875,0.7522581982421875
-0.2027003515625,-0.05458297607421875,0.84294607421875
-0.3057936328125,0.019434304199218752,1.010558896484375
-0.368524921875,0.059874208984374996,0.9906518017578125
-0.216802734375,0.08707923583984375,0.9601767431640625
-0.24525064453125,0.021640117187500002,0.9582106103515625
-0.18154677734375,0.0015427099609375003,1.0997721728515626
-0.29047552734375,-0.04698517578125,1.223884306640625
-0.389921640625,-0.0881603515625,1.268613828125
-0.26032560546875,-0.00997653564453125,1.1700614208984375
-0.36366203125,-0.11144393310546875,1.0771616455078126
-0.29533841796875,-0.13791368896484374,1.0481611865234375
-0.3660934765625,-0.13742350830078126,0.8078014501953125
-0.226528515625,-0.0523771630859375,0.5568737500000001
-0.14969484375,-0.0700236669921875,0.4268632177734375
-0.02836572265625,-0.11438501708984375,0.4150664208984375
-0.040279804687500004,-0.1180613720703125,0.5939845068359375
-0.20683380859375,-0.0001729223632812504,0.858183603515625
-0.4332013671875,0.0956573974609375,1.21651130859375
-0.4978778125,0.1240878759765625,1.372327333984375
-0.3281629296875,0.19982078857421876,1.3784714990234375
-0.1881116796875,0.20668331787109376,1.3020380859375
-0.35952857421875,0.0843832421875,1.2575543310546875
-0.24573693359375,0.09590248779296875,1.3214536474609375
-0.1832487890625,-0.01144707763671875,1.0761785791015626
-0.24573693359375,-0.11757119140625,0.89504859375
-0.12659611328125,-0.01144707763671875,0.9191337207031249
-0.21899103515625,-0.0097314453125,0.8962774267578125
-0.103983671875,0.12825441162109374,1.0609410498046874
-0.489124609375,-0.010711806640625,1.18898544921875
-0.23698373046875,-0.03644629150390625,1.1887396826171874
