ax,ay,az
-0.265431640625,0.24099596435546874,1.08871267578125
-0.27296912109375,0.20815385986328125,1.1346710302734375
-0.31770771484375,0.1505576318359375,1.079865078125
-0.27807515625,0.00178780029296875,0.907336923828125
-0.19029998046875,-0.2058037109375,0.719571240234375
-0.185680234375,-0.20384298828125,0.6057813037109375
-0.11541146484375,-0.07762146728515625,0.513127294921875
-0.1151683203125,-0.17369687744140624,0.6308494970703125
-0.16890326171875,0.03659062744140625,0.87047193359375
-0.26421591796875,0.1868310009765625,1.1341794970703125
-0.33253953125,0.14639109619140625,1.305478818359375
-0.4040240234375,0.22947671875,1.335953876953125
-0.2411171875,0.283396591796875,1.114763935546875
-0.27613,0.10864718505859375,0.893573994140625
-0.2163164453125,0.13315621826171875,0.902421591796875
-0.23139140625,0.012816865234374999,0.922574453125
-0.19127255859375,-0.012672529296875,0.9247863525390625
-0.1433730859375,0.052031318359375,0.902421591796875
-0.1764407421875,-0.015368522949218751,1.0019570654296874
-0.292663828125,0.1495772705078125,1.0815854443359374
-0.41934212890625,-0.008996174316406251,0.990897568359375
-0.36585033203125,0.13413657958984376,0.968287041015625
-0.290718671875,0.12580350830078124,0.8871840625
-0.25692158203125,-0.040122646484374996,0.7004014453125
-0.10568568359375,-0.01634888427734375,0.6333071630859375
-0.2017277734375,-0.0803174609375,0.65616345703125
-0.2104809765625,-0.01585870361328125,0.7729025927734375
-0.25862359375,0.0652661962890625,0.8815314306640625
-0.3320532421875,0.010611052246093749,0.97467697265625
-0.2795340234375,0.13021513427734374,1.1312302978515625
-0.21072412109375,0.150067451171875,1.2423168017578126
-0.32500205078125,0.11967625,1.12017080078125
-0.36779548828124997,0.20766367919921874,1.1292641650390625
-0.23212083984375,-0.16340308349609375,0.9832788037109375
-0.25157240234375,-0.08791526123046875,0.80067421875
-0.2133987109375,-0.04036773681640625,0.6190527001953126
-0.10325423828125,-0.10850284912109374,0.420719052734375
-0.19224513671875,-0.085219267578125,0.4362023486328125
-0.15771861328125,0.0133070458984375,0.6549346240234375
-0.22093619140625,0.14050892822265626,0.9992536328125
-0.4477900390625,0.21452620849609375,1.335953876953125
-0.3835998828125,0.2593777392578125,1.415582255859375
-0.3787369921875,0.26207373291015623,1.2506728662109374
-0.20926525390625,0.210849853515625,0.9636174755859375
-0.09206958984375,0.09933375244140626,0.9410069482421874
-0.23503857421875,0.0976181201171875,0.95894791015625
-0.20732009765625,0.02678701416015625,0.8879213623046875
-0.27637314453125,0.0417375244140625,0.9159387548828125
-0.01815365234375,0.07874616455078125,0.9680412744140625
-0.28318119140625,0.14786163818359374,1.266156162109375
-0.46359443359375,0.0358553564453125,1.3647085693359375
-0.53264748046875,0.04345315673828125,1.1961126806640625
-0.21218298828125,-0.06659240234375,0.941744248046875
-0.30871136718750003,-0.0494360791015625,0.7183424072265625
-0.12562353515625,-0.00213364501953125,0.6957318798828125
-0.07748091796875001,-0.0347306591796875,0.7055625439453125
-0.3699837890625,-0.07124911865234375,0.7684787939453125
-0.2707808203125,-0.0386521044921875,0.90782845703125
-0.119544921875,-0.0028689160156250004,1.0216183935546874
-0.1375376171875,-0.0411030078125,1.0142453955078126
-0.06848457031249999,0.0956573974609375,1.091170341796875
-0.279047734375,0.0294830078125,1.06708521484375
-0.34834392578125,0.187321181640625,1.1140266357421875
-0.43174250000000003,0.193203349609375,1.0339067236328126
-0.26956509765625,0.183399736328125,1.0110504296875
-0.19467658203125,0.153988896484375,1.0250591259765625
-0.26178447265625,0.17482157470703125,1.06118681640625
-0.33667298828125003,0.0750698095703125,1.0936280078125
-0.172064140625,0.1123235400390625,1.038084755859375
-0.34980279296875,0.19393862060546874,1.0299744580078125
-0.1550440234375,0.101049384765625,1.0963314404296876
-0.14507509765624998,0.19148771728515626,1.0747039794921875
-0.21072412109375,0.03144373046875,1.1376202294921876
-0.32257060546875,0.03144373046875,1.2442829345703126
-0.39940427734375,0.018699033203125,1.226833505859375
-0.29825615234375,0.07850107421875,0.992863701171875
-0.25254498046875,-0.02958376220703125,0.819844013671875
-0.23114826171875,0.02237538818359375,0.8136998486328125
-0.24306234375,0.0672269189453125,0.91176072265625
-0.164283515625,0.0358553564453125,1.0184234277343749
-0.27783201171875,0.03413972412109375,1.18112091796875
-0.2552195703125,0.15374380615234376,1.2683680615234374
-0.4045103125,0.06698182861328125,1.1835785839843749
-0.2411171875,0.0809519775390625,1.0378389892578126
-0.24379177734375002,0.077520712890625,0.8572005371093749
-0.2007551953125,0.00619942626953125,0.7979707861328125
-0.1365650390625,0.024091020507812498,0.8707177001953125
-0.22920310546875,0.04124734375,1.03169482421875
-0.4040240234375,0.1809488330078125,1.098051806640625
-0.21899103515625,0.0299731884765625,1.0294829248046875
-0.387976484375,0.11501953369140624,1.038084755859375
-0.30360533203125,0.12678386962890625,0.9847534033203125
-0.144831953125,-0.10188541015625,0.9675497412109375
-0.18251935546875,0.02237538818359375,1.0943653076171875
-0.35661083984374997,0.01110123291015625,1.0857634765625
-0.25449013671875,-0.0006631030273437505,0.9936010009765625
-0.16015005859375,0.04198261474609375,0.8535140380859375
-0.10617197265625,-0.00997653564453125,0.8970147265625
-0.26859251953125,0.0515411376953125,1.02972869140625
-0.25084296875,0.0152677685546875,1.19095158203125
-0.35393625,-0.0396324658203125,1.0923991748046875
-0.2785614453125,0.0133070458984375,1.07298361328125
-0.21704587890625,0.0231106591796875,0.9867195361328125
-0.09547361328125001,0.06943273193359376,1.087238076171875
-0.29922873046875,0.06011929931640625,1.22830810546875
-0.43757796875,0.10399046875,1.2253589062499999
-0.42979734375,0.10766682373046875,0.9336339501953125
-0.33375525390625,-0.0690433056640625,0.7704449267578125
-0.1890842578125,-0.1043363134765625,0.6497735253906249
-0.11443888671875,-0.060710234375,0.49887283203125
-0.05073501953125,-0.05482806640625,0.5320513232421875
-0.039307226562500006,-0.055808427734375,0.6790197509765625
-0.1735230078125,-0.0376717431640625,1.0063808642578125
-0.39162365234375,0.12825441162109374,1.322190947265625
-0.24622322265625,0.06306038330078124,1.35610673828125
-0.34737134765625,0.15423398681640624,1.4153364892578124
-0.52535314453125,-0.03105430419921875,1.292207421875
-0.2192341796875,-0.13056097900390626,0.9960586669921875
-0.25740787109375,0.071638544921875,0.900455458984375
-0.4088869140625,-0.06340622802734375,0.906353857421875
-0.2036729296875,-0.1430605859375,0.7964961865234375
-0.05511162109375,0.12139188232421876,0.7945300537109374
-0.26567478515625,0.0201695751953125,0.667468720703125
-0.08307324218750001,-0.13301188232421876,0.673367119140625
-0.06751199218750001,-0.10507158447265624,0.8264797119140626
-0.2707808203125,0.0030132519531249997,0.96877857421875
-0.423961875,-0.03448556884765625,1.014491162109375
-0.42712275390625,0.01796376220703125,1.0353813232421876
-0.42055785156250003,0.122617333984375,0.9842618701171875
-0.407428046875,0.19393862060546874,0.8419630078125
-0.37338781249999997,0.20472259521484376,0.79379275390625
-0.21412814453125,0.1074217333984375,0.7969877197265625
-0.09425789062500001,0.03462990478515625,1.001219765625
-0.03566005859375,-0.0778665576171875,1.146222060546875
-0.02739314453125,0.00472888427734375,1.092153408203125
-0.0621628125,-0.0411030078125,1.1680952880859374
-0.35126166015625,-0.09820905517578125,1.2349438037109375
-0.50055240234375,-0.01561361328125,1.158018857421875
-0.44462916015625,-0.011201987304687501,1.0245675927734375
-0.35806970703125,0.03512008544921875,0.88030259765625
-0.3106565234375,0.10595119140625,0.752012431640625
-0.2328502734375,0.1446754638671875,0.825742412109375
-0.247925234375,0.18413500732421875,1.1073909375
-0.49860724609375,0.21795747314453126,1.2664019287109376
-0.36293259765625,0.2525152099609375,1.1936550146484375
-0.08331638671875,0.11011772705078125,1.1150097021484375
0.09952830078125,0.04982550537109375,1.23813876953125
-0.14361623046875,-0.006790361328125,1.353649072265625
-0.39818855468750003,-0.083258544921875,0.9065996240234375
-0.1521262890625,-0.22859711181640624,0.8977520263671875
-0.47648109375000003,-0.067572763671875,1.053813818359375
-0.456056953125,-0.08056255126953125,1.1292641650390625
-0.403537734375,0.0044837939453125,0.924049052734375
-0.26032560546875,0.04492369873046875,0.8564632373046875
-0.24476435546875,0.04296297607421875,0.7153932080078125
-0.12805498046875,-0.14918784423828124,0.6657483544921875
-0.15747546875,-0.1611972705078125,0.933879716796875
-0.2980130078125,0.02531647216796875,1.001219765625
-0.17425244140625,-0.08350363525390625,1.1327048974609375
-0.10325423828125,-0.00409436767578125,1.113780869140625
-0.33667298828125003,0.12825441162109374,1.04152548828125
-0.23917203125,0.0182088525390625,0.9582106103515625
-0.19613544921875,0.11256863037109376,0.9886856689453125
-0.374360390625,0.0936966748046875,1.0378389892578126
-0.21266927734375,0.030708459472656248,1.0196522607421874
-0.3096839453125,0.02433611083984375,0.8574463037109374
-0.09450103515625,-0.08840544189453126,0.80755568359375
-0.12319208984375,-0.053847705078125,0.9773804052734375
-0.3524773828125,-0.020515419921875,1.1091113037109375
-0.333512109375,0.15913579345703124,1.0661021484375
-0.26859251953125,0.14737145751953126,0.9365831494140625
-0.2163164453125,0.03806116943359375,0.8498275390625
0.016616015625,0.11207844970703125,0.9795923046875
-0.09206958984375,0.18903681396484376,1.09657720703125
-0.32402947265625,0.14418528320312501,1.158510390625
-0.2912049609375,0.06894255126953125,1.0560257177734376
-0.24476435546875,-0.15065838623046876,0.9972875
-0.23139140625,-0.01389798095703125,1.046932353515625
-0.294608984375,-0.0881603515625,1.00810123046875
-0.31041337890625,-0.08742508056640624,0.972219306640625
-0.3485870703125,-0.00703545166015625,1.0486527197265625
-0.337402421875,0.0731090869140625,1.041033955078125
-0.2523018359375,-0.00654527099609375,0.957473310546875
-0.1433730859375,0.1235976953125,0.92552365234375
-0.17279357421875,0.15129290283203126,0.8127167822265625
-0.203186640625,-0.04575972412109375,0.682214716796875
-0.12513724609375,0.10717664306640624,0.8549886376953125
-0.2411171875,0.11747043701171875,1.0393135888671874
-0.37217208984375,0.09443194580078125,1.064136015625
-0.249870390625,-0.0011532836914062497,1.0732293798828125
-0.3972159765625,-0.008996174316406251,1.0648733154296874
-0.29096181640625,-0.0016434643554687498,0.9611598095703124
-0.31819400390625,0.13511694091796875,0.8778449316406249
-0.2878009375,0.022620478515625,0.81738634765625
-0.25862359375,0.010856142578125,0.8825144970703125
-0.1166271875,0.03413972412109375,0.9827872705078124
-0.30992708984375,-0.08497417724609375,0.843437607421875
-0.10471310546875,-0.06683749267578125,0.7984623193359375
-0.18689595703125,-0.0582593310546875,0.742181767578125
-0.3145468359375,0.03462990478515625,0.7935469873046875
-0.31527626953125,0.06698182861328125,0.8358188427734374
-0.29169125,-0.00654527099609375,0.7576650634765625
-0.13340416015625,0.1235976953125,0.634044462890625
-0.2484115234375,0.11747043701171875,0.6382224951171875
-0.28026345703125,0.06109966064453125,0.769707626953125
-0.29825615234375,0.07482471923828125,0.9218371533203125
-0.35709712890625,0.10080429443359375,0.990897568359375
-0.321841171875,0.04492369873046875,0.9896687353515625
-0.187625390625,0.067717099609375,0.988931435546875
-0.209022109375,-0.00581,1.011541962890625
-0.13826705078125,-0.07222947998046875,0.9754142724609375
-0.148722265625,0.17433139404296874,1.0373474560546876
-0.2503566796875,0.05717821533203125,1.024321826171875
-0.25108611328125,0.017718671875,1.0388220556640624
-0.36730919921875,-0.0082609033203125,1.14573052734375
-0.37703498046875,0.02972809814453125,1.1014925390624999
-0.2892598046875,0.01992448486328125,0.874895732421875
-0.27515742187500003,0.0466393310546875,0.7955131201171874
-0.35199109375,0.12727405029296876,0.8154202148437499
-0.30749564453125,0.14197947021484375,0.8655566015625
-0.12440781249999999,0.03119864013671875,1.0171945947265626
-0.20464550781250002,-0.03546593017578125,1.116730068359375
-0.3213548828125,-0.05482806640625,1.215036708984375
-0.2075632421875,-0.09379742919921875,1.0815854443359374
-0.2172890234375,-0.03987755615234375,0.9429730810546875
-0.21218298828125,0.00399361328125,1.0053977978515625
-0.42979734375,-0.048455717773437504,0.997779033203125
-0.299471875,0.01453249755859375,1.0530765185546875
-0.3437241796875,0.12972495361328126,1.1272980322265624
-0.27783201171875,-0.00850599365234375,1.11820466796875
-0.31308796875,0.10080429443359375,1.0471781201171875
-0.29096181640625,0.13560712158203125,0.9754142724609375
-0.3670660546875,0.06673673828125,0.862115869140625
-0.164283515625,0.10987263671875,0.8775991650390624
-0.1949197265625,0.0887948681640625,1.0555341845703126
-0.333512109375,0.02335574951171875,1.11034013671875
-0.1268392578125,-0.02125069091796875,1.02383029296875
-0.2075632421875,-0.0219859619140625,0.983033037109375
-0.312115390625,-0.04183827880859375,1.0928907080078125
-0.3189234375,0.0059543359375,1.0584833837890626
-0.288773515625,-0.05801424072265625,0.9065996240234375
-0.31089966796875,-0.01487834228515625,0.7581565966796875
-0.27345541015625,-0.1038461328125,0.6704179199218749
-0.19346085937500002,-0.02909358154296875,0.6741044189453125
-0.03711892578125,-0.12075736572265625,0.8653108349609375
-0.24476435546875,0.06355056396484375,1.3209621142578125
-0.358799140625,0.106931552734375,1.45244724609375
-0.265431640625,0.032424091796875,1.3627424365234375
-0.23139140625,0.11992134033203125,1.2418252685546876
-0.22190876953125,0.0358553564453125,1.05135615234375
-0.1929745703125,0.04296297607421875,1.0540595849609375
-0.27272597656249997,0.12482314697265626,1.0174403613281249
-0.174981875,0.13021513427734374,1.058729150390625
-0.28391062499999997,0.080461796875,1.0923991748046875
-0.304334765625,-0.087179990234375,1.1769428857421875
-0.32475890625,-0.12418863037109375,1.1071451708984374
-0.2912049609375,-0.0827683642578125,0.9390408154296875
-0.228473671875,-0.16462853515625,0.8353273095703125
-0.1968648828125,-0.11683592041015625,0.7711822265625
-0.271267109375,-0.0053198193359375,0.7443936669921875
-0.25497642578125,0.03266918212890625,0.76430076171875
-0.1988100390625,0.05889384765625,0.78592822265625
-0.1628246484375,0.06624655761718751,0.93928658203125
-0.195406015625,0.04835496337890625,1.082322744140625
-0.2454937890625,0.0682072802734375,1.086255009765625
-0.19710802734375,0.0922261328125,1.045949287109375
-0.34493990234375,0.07041309326171875,0.9901602685546875
-0.26713365234374997,-0.051886982421875,0.85474287109375
-0.23066197265625,-0.01830960693359375,0.7950215869140624
-0.206104375,-0.00360418701171875,0.76036849609375
-0.22190876953125,-0.0239466845703125,0.765283828125
-0.1482359765625,0.0059543359375,0.8397511083984375
-0.22750109375,-0.0013983740234375002,0.8874298291015625
-0.24379177734375002,0.0652661962890625,1.005643564453125
-0.21947732421875,0.00791505859375,1.058729150390625
-0.2532744140625,0.032424091796875,1.064136015625
-0.2338228515625,0.06551128662109375,0.967303974609375
-0.21607330078125,0.0593840283203125,0.8844806298828125
-0.267376796875,0.05374695068359375,0.8726838330078125
-0.23260712890625002,0.0387964404296875,0.863098935546875
-0.23844259765625,0.07825598388671876,0.834590009765625
-0.1949197265625,0.09345158447265625,0.8746499658203125
-0.280992890625,0.0231106591796875,0.9088115234375
-0.27734572265625,0.0387964404296875,1.0230929931640624
-0.29679728515625,0.01306195556640625,1.0108046630859375
-0.23114826171875,-0.0415931884765625,0.89603166015625
-0.22239505859375,0.023845930175781252,0.78002982421875
-0.1647698046875,0.0005623486328125002,0.7397241015625
-0.21850474609375,0.00570924560546875,0.74267330078125
-0.23163455078125,0.00963069091796875,0.862115869140625
-0.34445361328125,-0.0161037939453125,0.913235322265625
-0.29825615234375,0.03315936279296875,0.9434646142578125
-0.2260422265625,-0.00654527099609375,0.8594124365234375
-0.19419029296875,0.08021670654296875,0.902421591796875
-0.2163164453125,0.083402880859375,0.9754142724609375
-0.1968648828125,0.06257020263671875,1.0179318945312499
-0.26907880859375,0.11060790771484375,1.019406494140625
-0.25084296875,0.03144373046875,0.953541044921875
-0.253760703125,0.061834931640625,0.8572005371093749
-0.24233291015625,-0.0013983740234375002,0.7554531640625
-0.19029998046875,0.00717978759765625,0.672384052734375
-0.20245720703125,0.07286399658203124,0.6701721533203124
-0.20026890625,0.10864718505859375,0.6578838232421875
-0.25643529296875,0.064776015625,0.8481071728515625
-0.294608984375,0.161831787109375,1.0221099267578124
-0.23941517578125,0.08021670654296875,1.0540595849609375
-0.273212265625,0.1270289599609375,1.0289913916015625
-0.3223274609375,0.05129604736328125,0.9980247998046875
-0.19224513671875,-0.0219859619140625,0.825742412109375
-0.15358515625,0.0603643896484375,0.7655295947265625
-0.185680234375,-0.03497574951171875,0.71907970703125
-0.1676875390625,0.05374695068359375,0.9316678173828125
-0.19029998046875,0.04345315673828125,1.1100943701171875
-0.3339983984375,0.04884514404296875,1.3312843115234374
-0.33570041015625,0.13756784423828125,1.36200513671875
-0.30992708984375,0.11011772705078125,1.2801648583984375
-0.2736985546875,0.14148928955078124,1.18603625
-0.28804408203125,0.05129604736328125,1.13786599609375
-0.3077387890625,0.15374380615234376,1.197833046875
-0.35223423828125,0.09688284912109375,1.053813818359375
-0.26810623046875,0.08634396484375,0.891116328125
-0.15674603515625,0.061834931640625,0.7738856591796874
-0.13826705078125,0.05178622802734375,0.7443936669921875
-0.174981875,-0.01169216796875,0.8839890966796875
-0.23017568359375,0.0495804150390625,1.1484339599609374
-0.27613,0.0584036669921875,1.333004677734375
-0.34493990234375,0.20717349853515626,1.470633974609375
-0.44511544921875,0.25815228759765624,1.3919886621093749
-0.329621796875,0.18070374267578124,1.2221639404296876
-0.4448723046875,0.21501638916015625,1.167849521484375
-0.36463460937500003,0.10570610107421875,1.066593681640625
-0.2309051171875,0.030708459472656248,0.884726396484375
-0.105928828125,-0.02076051025390625,0.733825703125
-0.17571130859375,-0.17124597412109374,0.76823302734375
-0.0509781640625,-0.0960032421875,0.8773533984374999
-0.20877896484375,0.00178780029296875,1.134916796875
-0.38821962890625,-0.03252484619140625,1.3327589111328124
-0.43247193359375,0.0294830078125,1.3774884326171875
-0.53021603515625,0.0152677685546875,1.058729150390625
-0.32500205078125,-0.05115171142578125,0.721537373046875
-0.113709453125,-0.07713128662109375,0.5812046435546875
-0.084532109375,-0.037916833496093746,0.5585941162109375
-0.09644619140624999,-0.04575972412109375,0.6883588818359375
-0.16355408203125,-0.0249270458984375,0.9085657568359375
-0.242089765625,-0.05874951171875,1.04742388671875
-0.15577345703125,-0.00752563232421875,1.080356611328125
-0.15358515625,0.0446786083984375,1.1317218310546875
-0.253760703125,0.06158984130859375,1.202256845703125
-0.35174794921875,0.1280093212890625,1.292698955078125
-0.3242726171875,0.174576484375,1.3374284765625
-0.40913005859375,0.14835181884765625,1.3020380859375
-0.349073359375,0.24736831298828124,1.031203291015625
-0.1929745703125,0.273592978515625,0.8419630078125
-0.17814275390625,0.1417343798828125,0.7473428662109375
-0.08915185546875,0.2083989501953125,0.8525309716796875
-0.07796720703125,0.124578056640625,1.0948568408203125
-0.09425789062500001,0.14197947021484375,1.4163195556640624
-0.27053767578125,0.08413815185546875,1.534533291015625
-0.41034578125,0.11060790771484375,1.30105501953125
-0.3281629296875,0.05962911865234375,0.9395323486328125
-0.3578265625,-0.0327699365234375,0.7945300537109374
-0.242089765625,0.0691876416015625,0.819844013671875
-0.20804953125,-0.01585870361328125,0.9434646142578125
-0.3797095703125,-0.014633251953124999,0.9528037451171875
-0.142886796875,-0.065612041015625,1.007609697265625
-0.2542469921875,-0.191098291015625,0.9994993994140625
-0.11541146484375,-0.0332601171875,0.98057537109375
-0.08720669921875,0.034384814453125,0.9469053466796875
-0.24573693359375,0.0721287255859375,1.0147369287109376
-0.30627992187499997,0.19197789794921874,0.9734481396484375
-0.2800203125,0.07850107421875,1.0240760595703124
-0.3242726171875,0.181439013671875,1.087238076171875
-0.23309341796875,0.1348718505859375,1.0604495166015624
-0.24938410156250002,0.167713955078125,0.8245135791015625
-0.26324333984375,0.128499501953125,0.7139186083984375
-0.22434021484375,0.1515379931640625,0.7915808544921875
-0.31138595703125,0.12531332763671876,0.9567360107421875
-0.3155194140625,0.09418685546875,1.0385762890625
-0.32889236328125,0.1549692578125,0.9768888720703125
-0.20537494140625,0.0740894482421875,0.932896650390625
-0.127325546875,0.20006587890625,0.942727314453125
-0.30117388671875,0.2652599072265625,1.023338759765625
-0.21072412109375,0.25104466796875,1.075441279296875
-0.3544225390625,0.24883885498046876,1.06511908203125
-0.20829267578125,0.1760470263671875,1.11427240234375
-0.23747001953125,0.09443194580078125,1.0179318945312499
-0.21655958984375,0.21452620849609375,0.96877857421875
-0.2474389453125,0.08903995849609375,0.8918536279296875
-0.430769921875,0.02335574951171875,0.9768888720703125
-0.201241484375,0.00963069091796875,0.991880634765625
-0.29193439453125003,-0.0641414990234375,0.9886856689453125
-0.23917203125,-0.0327699365234375,1.0245675927734375
-0.25643529296875,0.1054610107421875,1.1371286962890625
-0.28464005859375,0.21305566650390625,1.176697119140625
-0.3349709765625,0.026541923828125,0.9272440185546875
-0.111764296875,0.0922261328125,0.981066904296875
-0.23017568359375,0.08462833251953125,1.070525947265625
-0.31697828125,-0.0386521044921875,0.98843990234375
-0.16160892578125,0.191242626953125,0.9429730810546875
-0.24719580078125,0.0329142724609375,0.8726838330078125
-0.37217208984375,0.03561026611328125,0.87440419921875
-0.12659611328125,0.1427147412109375,0.9921264013671875
-0.28123603515625,-0.0504164404296875,1.01596576171875
-0.34810078125,0.17727247802734375,1.18112091796875
-0.35709712890625,0.13217585693359374,1.0216183935546874
-0.11687033203125,-0.046740085449218746,0.953541044921875
-0.23406599609375,0.10864718505859375,1.0894499755859375
-0.366579765625,-0.0016434643554687498,1.0068723974609375
-0.148722265625,0.08021670654296875,1.0402966552734374
-0.2707808203125,0.0299731884765625,1.038084755859375
-0.19321771484375,-0.01144707763671875,0.8952943603515625
-0.0363894921875,0.08854977783203125,0.9719735400390626
-0.4721044921875,0.048109873046875,1.0432458544921874
-0.25205869140625,0.1035002880859375,1.087729609375
-0.3271903515625,0.064776015625,1.13589986328125
-0.2882872265625,0.0633054736328125,1.1626884228515626
-0.3048210546875,0.07065818359375,1.049881552734375
-0.1710915625,-0.01879978759765625,0.99827056640625
-0.29582470703125,0.142224560546875,1.068559814453125
-0.38481560546875,0.112813720703125,1.102967138671875
-0.21461443359375,0.063795654296875,1.0383305224609374
-0.20683380859375,0.1711452197265625,1.1233657666015624
-0.3904079296875,-0.0161037939453125,1.046932353515625
-0.31138595703125,-0.004829638671875,1.066593681640625
-0.10690140625,0.110852998046875,1.009084296875
-0.2921775390625,0.0201695751953125,0.992863701171875
-0.317950859375,0.0270321044921875,1.0130165625
-0.2445212109375,0.042227705078125,0.998762099609375
-0.27053767578125,0.06698182861328125,1.17325638671875
-0.3592854296875,0.05276658935546875,1.150154326171875
-0.22336763671875,0.0829127001953125,1.0073639306640625
-0.1832487890625,0.08021670654296875,1.0174403613281249
-0.30992708984375,-0.00311400634765625,1.06315294921875
-0.2435486328125,0.08266760986328126,1.0609410498046874
-0.22968939453125,-0.05090662109375,0.9872110693359375
-0.27880458984375,-0.06781785400390625,0.8520394384765625
-0.11200744140625,0.01894412353515625,0.8510563720703125
-0.34250845703125,0.09394176513671874,0.8751414990234375
-0.12756869140625,-0.08154291259765625,0.796741953125
-0.16647181640625,0.021885207519531248,0.8498275390625
-0.4200715625,-0.05752406005859375,0.8358188427734374
-0.112736875,-0.0543378857421875,0.8544971044921875
-0.1443456640625,0.1338914892578125,0.85474287109375
-0.29387955078125,0.05570767333984375,0.9120064892578125
-0.23698373046875,0.15962597412109375,1.13786599609375
-0.31041337890625,0.29344529541015624,1.1683410546875
-0.162338359375,0.18315464599609374,1.0525849853515625
-0.24379177734375002,0.1466361865234375,1.0383305224609374
-0.2056180859375,0.024581201171875,1.13000146484375
-0.11249373046875,0.03413972412109375,0.880794130859375
-0.055354765624999996,0.02776737548828125,0.757910830078125
-0.1978374609375,-0.14918784423828124,0.7384952685546875
-0.13534931640625,-0.17810850341796874,0.871455
-0.32159802734375,0.09026541015625,1.0501273193359375
-0.47964197265624997,0.1172253466796875,1.0717547802734375
-0.19346085937500002,0.0074248779296875,1.025304892578125
-0.32646091796875,0.12555841796875,1.078390478515625
-0.2124261328125,-0.067572763671875,0.948625712890625
-0.18251935546875,0.08266760986328126,0.878827998046875
-0.2192341796875,0.042227705078125,0.7999369189453125
-0.30117388671875,-0.00997653564453125,0.719571240234375
-0.13145900390625,-0.02076051025390625,0.6691890869140625
-0.11687033203125,0.0672269189453125,0.6829520166015625
-0.222638203125,0.112813720703125,0.713672841796875
-0.25546271484375,0.09590248779296875,0.7891231884765625
-0.26032560546875,0.023845930175781252,0.8972604931640625
-0.20051205078125,0.0037485229492187503,0.98647376953125
-0.380195859375,0.13462676025390624,1.0624156494140624
-0.44146828125,0.063795654296875,0.9528037451171875
-0.26713365234374997,0.1035002880859375,0.842454541015625
-0.2941226953125,0.0927163134765625,0.7168678076171875
-0.1958923046875,-0.10948321044921874,0.6497735253906249
-0.047087851562500005,-0.087179990234375,0.76430076171875
-0.16938955078125,0.00178780029296875,0.878827998046875
-0.2143712890625,0.0338946337890625,1.1073909375
-0.24768208984375,0.10202974609375,1.2634527294921876
-0.38043900390625,0.12237224365234375,1.2806563916015625
-0.22944625,0.13340130859375,0.917167587890625
-0.16647181640625,0.11109808837890625,0.7729025927734375
-0.39065107421875,0.0701680029296875,0.776589091796875
-0.3651208984375,-0.0562986083984375,0.675333251953125
-0.158448046875,0.01110123291015625,0.626179931640625
-0.30311904296875003,-0.0808076416015625,0.663044921875
-0.247925234375,-0.18153976806640626,0.7790467578125
-0.33375525390625,0.09492212646484376,0.946659580078125
-0.29922873046875,0.0799716162109375,0.942727314453125
-0.30409162109375,0.11796061767578125,1.0786362451171876
-0.28269490234375,0.1235976953125,0.9992536328125
-0.12562353515625,0.09100068115234375,0.9953213671875
-0.12246265625,0.16305723876953124,0.970253173828125
-0.33861814453125,0.15913579345703124,1.050864619140625
-0.263486484375,0.053992041015625,1.1592476904296876
-0.42420501953125,0.103010107421875,1.2194605078125
-0.5324043359375,-0.01585870361328125,1.1032129052734374
-0.2377131640625,-0.023456503906250002,0.869980400390625
-0.27442798828125,-0.0474753564453125,0.718588173828125
-0.14945169921875,-0.0219859619140625,0.74267330078125
-0.22361078125,0.00276816162109375,0.9380577490234375
-0.30627992187499997,0.0378160791015625,1.122628466796875
-0.253760703125,0.0495804150390625,1.0766701123046876
-0.1637972265625,0.03144373046875,0.9685328076171875
-0.1939471484375,-0.022476142578125,0.9621428759765625
-0.2231244921875,-0.04870080810546875,0.933879716796875
-0.28464005859375,0.0270321044921875,0.97271083984375
-0.28901666015625,0.021640117187500002,1.0597122167968749
-0.19467658203125,0.06355056396484375,1.0865007763671874
-0.37460353515625,-0.08448399658203125,1.13098453125
-0.333512109375,0.04149243408203125,1.2226554736328126
-0.22093619140625,0.06453092529296875,1.1331964306640625
-0.31187224609374997,0.11060790771484375,1.1329506640625
-0.27296912109375,0.1682041357421875,1.175714052734375
-0.1667149609375,0.056933125,1.189476982421875
-0.2104809765625,0.0255615625,1.1486797265625
-0.12562353515625,0.01012087158203125,1.0771616455078126
-0.24330548828125,0.07972652587890625,1.145238994140625
-0.27613,0.04933532470703125,1.2226554736328126
-0.37800755859375,0.1299700439453125,1.07888201171875
-0.4118046484375,0.06845237060546874,1.06806828125
-0.362689453125,0.0010525292968750002,1.132459130859375
-0.325731484375,0.026541923828125,1.1096028369140625
-0.27418484375,0.111833359375,1.0874838427734375
-0.22093619140625,-0.03522083984375,1.0520934521484375
-0.16258150390625,0.032424091796875,1.0228472265625
-0.2571647265625,0.049090234375,0.920116787109375
-0.2240970703125,-0.08619962890625,0.82525087890625
-0.24719580078125,-0.04968116943359375,0.8572005371093749
-0.2649453515625,-0.04821062744140625,0.8884128955078126
-0.20148462890625,-0.03399538818359375,0.8933282275390625
-0.17303671874999998,-0.10507158447265624,0.990897568359375
-0.34834392578125,0.01453249755859375,1.1091113037109375
-0.34810078125,0.0008074389648437498,1.119679267578125
-0.35320681640625,0.0711483642578125,1.0943653076171875
-0.37995271484375,0.14345001220703124,1.066593681640625
-0.302389609375,0.06624655761718751,0.993846767578125
-0.20926525390625,0.00865032958984375,1.02088109375
-0.252788125,0.0338946337890625,0.9980247998046875
0.005431367187500001,-0.08448399658203125,1.0108046630859375
-0.24379177734375002,-0.07419020263671874,1.026287958984375
-0.2688356640625,-0.0371815625,0.8773533984374999
-0.11468203125,-0.03595611083984375,0.88030259765625
-0.29169125,0.0652661962890625,0.956490244140625
-0.28755779296875,0.15472416748046874,0.930438984375
-0.2800203125,0.01649322021484375,0.84687833984375
-0.327676640625,0.0858537841796875,0.82721701171875
-0.17862904296875,0.06845237060546874,0.7139186083984375
-0.15042427734375,-0.008751083984375,0.6709094531249999
-0.19637859375,0.0054641552734375,0.866048134765625
-0.214857578125,0.11649007568359375,1.05725455078125
-0.32889236328125,0.0069346972656249995,1.05528841796875
-0.129270703125,0.0633054736328125,0.9820499707031249
-0.15771861328125,0.1466361865234375,1.0122792626953125
-0.28464005859375,0.189281904296875,1.074458212890625
-0.25351755859375,0.065756376953125,1.091661875
-0.20002576171875,0.03536517578125,1.206189111328125
-0.3811684375,0.08413815185546875,1.2472321337890624
-0.18251935546875,-0.08987598388671875,1.0759328125
-0.23844259765625,-0.11095375244140625,0.8146829150390625
-0.27783201171875,-0.04723026611328125,0.783470556640625
-0.19127255859375,-0.049926259765625,0.735300302734375
-0.3262177734375,-0.1484525732421875,0.66599412109375
-0.25351755859375,-0.1259042626953125,0.737266435546875
-0.1166271875,-0.07320984130859375,0.839505341796875
-0.12343523437500001,-0.13987441162109376,0.9188879541015624
-0.14993798828125,-0.10164031982421876,0.98843990234375
-0.18592337890625,-0.1131595654296875,0.9478884130859375
-0.14191421875,-0.0308092138671875,0.9587021435546875
-0.237226875,-0.01438816162109375,1.050864619140625
-0.39162365234375,0.0819323388671875,1.1405694287109376
-0.349073359375,0.1103628173828125,0.9975332666015625
-0.18495080078125,0.1446754638671875,0.90193005859375
-0.3077387890625,-0.0190448779296875,0.9803296044921875
-0.26251390625,0.14246965087890626,1.0953483740234375
-0.19273142578125,0.2142811181640625,1.1091113037109375
-0.3417790234375,0.1701648583984375,1.1125520361328125
-0.2805066015625,0.1133039013671875,0.9326508837890625
-0.174009296875,0.00276816162109375,0.7323511035156249
-0.05122130859375,-0.060710234375,0.6106966357421875
-0.08355953125,0.03659062744140625,0.7271900048828125
-0.259596171875,0.0255615625,0.943710380859375
-0.29047552734375,0.04345315673828125,1.112797802734375
-0.43295822265625,-0.00997653564453125,1.16145958984375
-0.3388612890625,-0.093062158203125,1.19095158203125
-0.3203823046875,0.132420947265625,1.0358728564453126
-0.28172232421875,-0.05090662109375,0.8259881787109375
-0.15820490234375,-0.17369687744140624,0.8136998486328125
-0.3155194140625,-0.14526639892578125,0.8028861181640625
-0.10714455078125,-0.24722397705078125,0.8358188427734374
-0.16063634765625,-0.27124282958984375,0.941744248046875
-0.21996361328125,-0.0964934228515625,1.048406953125
-0.22920310546875,0.019679394531249998,1.06020375
-0.33813185546875,0.0451687890625,0.978117705078125
-0.2133987109375,0.046149150390625,1.0732293798828125
-0.22701480468750002,0.1182057080078125,1.221918173828125
-0.41423609375,0.2113400341796875,1.249444033203125
-0.4769673828125,0.20962440185546874,1.1533492919921875
-0.45046462890625,0.10374537841796876,0.9257694189453125
-0.3189234375,0.00963069091796875,0.86457353515625
-0.15382830078125,-0.06830803466796875,0.7952673535156249
-0.0597313671875,-0.12075736572265625,0.8579378369140624
-0.1530988671875,-0.11536537841796875,0.9609140429687499
0.037526445312500004,-0.01046671630859375,1.1356540966796875
-0.14896541015625,0.1084020947265625,1.354632138671875
-0.4667553125,-0.03644629150390625,1.3504541064453126
-0.30700935546875,0.26403445556640626,1.368395068359375
-0.45313921875,0.18830154296875,1.195375380859375
-0.426879609375,0.0103659619140625,1.0063808642578125
-0.2571647265625,-0.03056412353515625,0.8525309716796875
-0.2036729296875,-0.167569619140625,0.737266435546875
-0.242089765625,-0.15899145751953125,0.883743330078125
-0.26421591796875,-0.09134652587890625,1.079865078125
-0.19175884765625,0.05864875732421875,1.20078224609375
-0.2396583203125,0.05889384765625,1.1494170263671875
-0.2255559375,0.081442158203125,1.0751955126953125
-0.2756437109375,0.04198261474609375,0.975168505859375
-0.214857578125,-0.03889719482421875,0.973202373046875
-0.1929745703125,0.06109966064453125,1.070525947265625
-0.19419029296875,-0.02909358154296875,0.9508376123046876
-0.2367405859375,-0.0317895751953125,0.818860947265625
-0.1560166015625,-0.15605037353515624,0.7660211279296875
-0.29242068359375,-0.05164189208984375,0.760860029296875
-0.28707150390625,-0.060710234375,0.8215643798828125
-0.21169669921875,-0.08889562255859375,1.0157199951171876
-0.19808060546875,-0.0043394580078125,1.251410166015625
-0.1696326953125,0.1093824560546875,1.4005904931640625
-0.2104809765625,0.14124419921875,1.3612678369140625
-0.30311904296875003,0.0289928271484375,1.0933822412109375
-0.2523018359375,0.0848734228515625,0.8431918408203125
-0.21704587890625,0.02335574951171875,0.80067421875
-0.1599069140625,0.011346323242187501,0.847369873046875
-0.12829812499999999,0.010611052246093749,0.9213456201171875
-0.26129818359375,-0.05482806640625,0.8618701025390625
-0.331566953125,-0.028113220214843748,0.6849181494140625
-0.222638203125,-0.00948635498046875,0.6092220361328125
-0.14264365234375,0.06624655761718751,0.5988998388671875
-0.1530988671875,0.1368325732421875,0.8033776513671875
-0.23844259765625,0.1035002880859375,1.0855177099609374
-0.3320532421875,-0.0055649096679687505,1.3794545654296875
-0.30360533203125,0.06011929931640625,1.321207880859375
-0.3057936328125,0.0765403515625,1.070525947265625
-0.21801845703125,-0.0719843896484375,0.961897109375
-0.2644590625,-0.01193725830078125,1.0707717138671875
-0.3281629296875,-0.09673851318359375,1.1120605029296875
-0.25011353515625,-0.1690401611328125,1.0221099267578124
-0.183735078125,-0.07860182861328124,0.812471015625
-0.113709453125,-0.1062970361328125,0.80165728515625
-0.2581373046875,-0.24305744140625,0.9203625537109374
-0.35709712890625,-0.0347306591796875,1.1022298388671874
-0.37338781249999997,0.0682072802734375,0.8923451611328125
-0.44365658203125,-0.015368522949218751,0.8436833740234375
-0.36828177734375,0.0456589697265625,0.8014115185546875
-0.3096839453125,0.114774443359375,0.749063232421875
-0.226528515625,0.012816865234374999,0.6964691796875
-0.14945169921875,-0.068553125,0.8058353173828126
-0.28634207031250003,0.0887948681640625,0.9252778857421875
-0.19321771484375,0.08609887451171874,0.82328474609375
-0.28366748046875,-0.10065995849609374,0.7556989306640625
-0.292663828125,0.0574233056640625,0.8490902392578125
-0.18835482421875,-0.11046357177734376,0.8299204443359375
-0.27272597656249997,0.07286399658203124,1.025304892578125
-0.44292714843750003,-0.0631611376953125,1.0884669091796875
-0.408400625,0.0686974609375,1.147205126953125
-0.36876806640625,-0.02125069091796875,1.071509013671875
-0.39113736328125,-0.013652890625,1.0176861279296876
-0.327676640625,0.026051743164062502,0.8812856640625
-0.17425244140625,-0.15997181884765624,0.6593584228515625
-0.21169669921875,-0.071494208984375,0.5477803857421875
-0.1637972265625,-0.012672529296875,0.5635094482421875
-0.05219388671875,-0.12320826904296875,0.7016302783203126
-0.10860341796875,0.0417375244140625,0.980083837890625
-0.30020130859375,0.15472416748046874,1.1848074169921876
-0.2824517578125,0.036345537109375,1.386090263671875
-0.41302037109375,0.18438009765625,1.49275296875
-0.531918046875,0.2319276220703125,1.2929447216796874
-0.41034578125,0.04100225341796875,1.024321826171875
-0.16015005859375,-0.07664110595703125,0.88816712890625
-0.1321884375,-0.18791211669921876,0.8712092333984375
-0.2133987109375,-0.20261753662109375,0.871946533203125
-0.20197091796875,-0.07468038330078125,1.12606919921875
-0.34542619140624997,0.1054610107421875,1.192426181640625
-0.15747546875,0.10987263671875,1.219952041015625
-0.21266927734375,0.0544822216796875,1.3059703515625
-0.23917203125,0.0686974609375,1.395920927734375
-0.27613,0.08756941650390625,1.33251314453125
-0.4108320703125,0.01208159423828125,1.1582646240234376
-0.3631757421875,0.09492212646484376,1.1292641650390625
-0.37265837890625,0.15521434814453125,1.0643817822265624
-0.14312994140625,-0.0661022216796875,1.0597122167968749
-0.12173322265625,0.09933375244140626,0.9154472216796875
-0.16938955078125,-0.2160975048828125,0.912252255859375
-0.16744439453124998,-0.3121729150390625,1.057746083984375
-0.2581373046875,0.0025230712890624996,1.060695283203125
-0.3184371484375,0.1299700439453125,0.9992536328125
-0.26859251953125,-0.06046514404296875,1.030220224609375
-0.23260712890625002,0.14492055419921876,1.192426181640625
-0.3223274609375,0.1456558251953125,1.0756870458984376
-0.2941226953125,0.01845394287109375,0.933879716796875
-0.2746711328125,0.0446786083984375,0.7905977880859375
-0.25838044921875,0.057913486328125,0.7869112890625
-0.3203823046875,-0.04330882080078125,0.8451579736328125
-0.26664736328125,0.0515411376953125,0.94715111328125
-0.11638404296875,0.048109873046875,1.02776255859375
-0.17473873046875,0.026051743164062502,1.186527783203125
-0.249870390625,0.1064413720703125,1.2442829345703126
-0.2445212109375,0.09639266845703125,1.0437373876953124
-0.2260422265625,0.026541923828125,0.89504859375
-0.11735662109375,0.14541073486328124,1.0137538623046876
-0.282938046875,0.0407571630859375,1.2501813330078124
-0.26664736328125,0.09026541015625,1.41115845703125
-0.47623794921875,-0.0004180126953125,1.13196759765625
-0.19248828125,-0.0033590966796874996,0.92159138671875
-0.35515197265625,-0.10409122314453124,0.843437607421875
-0.2756437109375,-0.00605509033203125,0.9252778857421875
-0.08380267578125,-0.052867343750000004,0.8766160986328125
-0.2542469921875,-0.11732610107421874,0.8766160986328125
-0.23163455078125,-0.01389798095703125,0.8967689599609375
-0.14896541015625,-0.06683749267578125,0.738249501953125
-0.214857578125,0.02237538818359375,0.900455458984375
-0.21704587890625,-0.0700236669921875,1.0599579833984376
-0.22482650390625,0.028502646484374998,1.098051806640625
-0.02009880859375,-0.1170810107421875,0.9424815478515625
-0.3524773828125,7.216796875000007e-05,1.1661291552734374
-0.57495462890625,0.0221302978515625,1.0582376171875
-0.37119951171875,-0.155805283203125,0.779538291015625
-0.21899103515625,0.0770305322265625,0.75840236328125
-0.1788721875,0.2034971435546875,0.751029365234375
-0.01085931640625,0.038306259765625,0.9297016845703125
-0.27540056640625,0.16746886474609374,1.1199250341796876
-0.4565432421875,0.14197947021484375,1.2034856787109376
-0.34348103515625,-0.06659240234375,1.0801108447265624
-0.399647421875,0.02678701416015625,1.01203349609375
-0.23552486328125,-0.1631579931640625,0.703842177734375
-0.1589343359375,-0.116590830078125,0.5438481201171875
-0.21583015625000002,-0.0376717431640625,0.495432099609375
-0.26227076171875,-0.12565917236328125,0.51853416015625
-0.32281375,-0.132276611328125,0.7040879443359375
-0.39089421875,0.009140510253906251,0.882760263671875
-0.25692158203125,0.05619785400390625,0.9670582080078125
-0.19029998046875,0.1201664306640625,1.0987891064453126
-0.26713365234374997,0.1897720849609375,1.2201978076171875
-0.31989601562500003,0.27972023681640623,1.1892312158203124
-0.2250696484375,0.153988896484375,1.0594664501953126
-0.2095083984375,-0.03154448486328125,1.115747001953125
-0.30214646484375,0.0922261328125,1.172764853515625
-0.24816837890625,0.0299731884765625,0.9660751416015625
-0.24938410156250002,-0.11340465576171875,0.854251337890625
-0.27272597656249997,-0.0474753564453125,0.79772501953125
-0.30895451171875,0.0476196923828125,0.8510563720703125
-0.2698082421875,-0.03914228515625,1.0142453955078126
-0.32281375,0.10521592041015625,1.3649543359375
-0.26907880859375,0.2044775048828125,1.3253859130859376
-0.21266927734375,-0.07909200927734375,1.1801378515625
-0.27345541015625,-0.00360418701171875,0.946168046875
-0.18835482421875,-0.02664267822265625,0.801165751953125
-0.09839134765625,-0.14281549560546875,0.716622041015625
-0.15771861328125,-0.05017135009765625,0.9297016845703125
-0.172064140625,0.04737460205078125,1.0904330419921875
-0.185680234375,-0.05801424072265625,1.1997991796875
-0.32791978515625,0.11379408203125,1.1762055859375
-0.2377131640625,-0.0006631030273437505,1.213562109375
-0.4380642578125,0.052031318359375,1.2152824755859375
-0.2484115234375,0.020659755859375,1.1666206884765624
-0.2411171875,-0.16879507080078124,1.0442289208984374
-0.362689453125,0.07580508056640625,0.9847534033203125
-0.22239505859375,-0.02125069091796875,0.8026403515625
-0.24914095703125,-0.07419020263671874,0.7930554541015625
-0.25084296875,0.1628121484375,0.8766160986328125
-0.0927990234375,0.008405239257812499,0.910286123046875
-0.159420625,0.08242251953125,1.0103131298828125
-0.3466419140625,0.2103596728515625,1.046932353515625
-0.23309341796875,0.14050892822265626,1.098051806640625
-0.2756437109375,0.07261890625,1.0653648486328124
-0.3446967578125,0.17972338134765625,0.996795966796875
-0.22871681640625,0.02678701416015625,0.8048522509765625
-0.28804408203125,-0.15556019287109374,0.69548611328125
-0.25886673828125,0.0035034326171875,0.72104583984375
-0.1968648828125,-0.03987755615234375,0.718096640625
-0.04344068359375,-0.057278969726562504,0.944693447265625
-0.337402421875,-0.0327699365234375,1.1980788134765625
-0.32597462890625,-0.0151234326171875,1.2315030712890624
-0.14361623046875,0.1485969091796875,1.2162655419921875
-0.40913005859375,0.06551128662109375,1.153103525390625
-0.321841171875,0.1182057080078125,1.056763017578125
-0.17814275390625,0.1142842626953125,0.900455458984375
-0.32257060546875,0.01698340087890625,0.839505341796875
-0.20683380859375,-0.10286577148437501,0.659604189453125
-0.13923962890625,-0.0180645166015625,0.58341654296875
-0.25011353515625,0.00987578125,0.6286375976562499
-0.2202067578125,-0.09796396484375,0.8097675830078125
-0.24306234375,0.12237224365234375,1.05528841796875
-0.31673513671875,0.049090234375,1.165883388671875
-0.28901666015625,-0.00948635498046875,1.13983212890625
-0.30895451171875,0.20521277587890624,0.922082919921875
-0.23260712890625002,-0.0016434643554687498,0.8505648388671875
-0.26081189453125,-0.00409436767578125,0.9164302880859375
-0.27929087890625,-0.0013983740234375002,0.9365831494140625
-0.22750109375,0.0030132519531249997,0.966320908203125
-0.25983931640625,-0.04477936279296875,0.9159387548828125
-0.16793068359375,0.061834931640625,0.9284728515625
-0.269321953125,0.0750698095703125,0.9582106103515625
-0.35855599609375,0.0525214990234375,1.0110504296875
-0.304334765625,-0.0876701708984375,0.922574453125
-0.24136033203125,-0.023456503906250002,0.9129895556640625
-0.27491427734375,-0.02468195556640625,0.8989808593749999
-0.10130908203125,0.04639424072265625,0.8812856640625
-0.33618669921875,-0.0553182470703125,0.897506259765625
-0.27929087890625,-0.1102184814453125,0.84491220703125
-0.2338228515625,0.03610044677734375,0.77806369140625
-0.19248828125,0.02531647216796875,0.9144641552734375
-0.32548833984375003,0.0927163134765625,1.0442289208984374
-0.214857578125,-0.030319033203124998,1.0245675927734375
-0.20975154296875,0.01257177490234375,0.9493630126953125
-0.1978374609375,0.05668803466796875,1.0796193115234376
-0.259596171875,0.01110123291015625,1.1336879638671875
-0.36633662109375,0.11747043701171875,1.13786599609375
-0.30627992187499997,0.177517568359375,1.004660498046875
-0.24695265625,0.06011929931640625,0.841471474609375
-0.13145900390625,0.05129604736328125,0.7969877197265625
-0.222638203125,0.11207844970703125,0.9154472216796875
-0.23844259765625,-0.073454931640625,0.9449392138671875
-0.1550440234375,0.0309535498046875,1.1644087890625
-0.338375,0.04198261474609375,1.2226554736328126
-0.41545181640625,-0.17222633544921875,1.056763017578125
-0.33278267578125,0.0137972265625,0.8930824609375
-0.27272597656249997,-0.0881603515625,0.70335064453125
-0.16987583984375,-0.0759058349609375,0.6814774169921874
-0.1657423828125,0.122617333984375,0.7955131201171874
-0.203186640625,-0.0033590966796874996,0.9945840673828125
-0.16987583984375,0.00276816162109375,1.143272861328125
-0.27248283203125,-0.0092412646484375,1.2197062744140625
-0.27418484375,0.064776015625,1.1958669140625
-0.33108066406250003,0.0255615625,1.029237158203125
-0.33618669921875,0.04100225341796875,0.977134638671875
-0.3583128515625,-0.0749254736328125,0.917167587890625
-0.30798193359375,-0.09281706787109376,0.8987350927734374
-0.17084841796875,0.00668960693359375,0.8476156396484374
-0.23212083984375,0.04149243408203125,0.7483259326171875
-0.1754681640625,-0.006790361328125,0.6728755859375
-0.1599069140625,0.021885207519531248,0.645841259765625
-0.09255587890625,0.05105095703125,0.765775361328125
-0.22482650390625,0.13462676025390624,1.0363643896484376
-0.2581373046875,0.10619628173828125,1.191443115234375
-0.27831830078124997,0.1348718505859375,1.15949345703125
-0.20780638671875,0.15227326416015624,1.17129025390625
-0.33132380859375,0.06845237060546874,1.132459130859375
-0.37314466796875,0.1706550390625,1.1307387646484375
-0.3203823046875,0.18168410400390625,1.0162115283203126
-0.31333111328125,0.05864875732421875,0.9188879541015624
-0.2260422265625,0.08070688720703124,0.89013326171875
-0.1871391015625,-0.03546593017578125,0.845403740234375
-0.1112780078125,0.02678701416015625,0.8603955029296875
-0.0777240625,-0.16438344482421874,1.0245675927734375
-0.22239505859375,0.038306259765625,1.3258774462890626
-0.4477900390625,0.0054641552734375,1.4042769921875
-0.2800203125,0.09737302978515625,1.1759598193359375
-0.47818310546875,-0.00850599365234375,0.921099853515625
-0.27199654296875,-0.181294677734375,0.8144371484375
-0.11103486328125,0.067717099609375,0.8825144970703125
-0.36220316406249997,-0.0006631030273437505,0.871455
-0.22190876953125,-0.00850599365234375,0.7547158642578125
-0.195406015625,0.17776265869140626,0.92650671875
-0.27685943359375,0.01012087158203125,1.141306728515625
-0.1521262890625,-0.08619962890625,1.3037584521484376
-0.255705859375,0.20913422119140626,1.316292548828125
-0.24427806640625,-0.00948635498046875,1.1093570703125
-0.331566953125,0.04712951171875,0.896523193359375
-0.1735230078125,0.27432824951171875,0.921099853515625
-0.38432931640625,0.20276187255859374,0.9572275439453125
-0.42201671875,0.1711452197265625,0.9813126708984374
-0.19078626953125,0.220653466796875,0.954032578125
-0.22579908203125,0.00791505859375,0.8918536279296875
-0.17765646484375,0.08168724853515624,1.0368559228515626
-0.34785763671875003,0.0770305322265625,1.0776531787109376
-0.16452666015625,-0.013162709960937501,1.006626630859375
-0.36925435546875,0.15325362548828125,1.0968229736328126
-0.310170234375,0.015022678222656249,1.27549529296875
-0.28974609375,-0.02737794921875,1.18505318359375
-0.30992708984375,-0.11193411376953125,0.866048134765625
-0.20537494140625,0.0012976196289062499,0.6033236376953125
-0.20488865234375,-0.0592396923828125,0.6337986962890625
-0.10422681640625,-0.1504132958984375,0.6704179199218749
-0.16890326171875,0.06355056396484375,0.8618701025390625
-0.19029998046875,0.10766682373046875,1.0009739990234374
-0.32305689453124997,-0.02615249755859375,1.0348897900390626
-0.32475890625,0.13070531494140625,1.138357529296875
-0.23698373046875,0.07188363525390624,1.1066536376953124
-0.32086859375,0.10717664306640624,1.13196759765625
-0.15188314453125001,0.046149150390625,1.01399962890625
-0.2143712890625,0.050070595703125,1.0098215966796875
-0.33983386718749997,0.0064445166015625,0.9183964208984375
-0.214857578125,0.0446786083984375,0.8879213623046875
-0.1706052734375,-0.0298288525390625,0.9007012255859375
-0.28658521484375,0.015022678222656249,0.8805483642578125
-0.2133987109375,-0.016593974609375,0.75840236328125
-0.26129818359375,-0.05213207275390625,0.7987080859375
-0.10301109375,0.0289928271484375,0.88620099609375
-0.20391607421875,0.038306259765625,0.9621428759765625
-0.23212083984375,0.03315936279296875,1.2226554736328126
-0.3729015234375,0.09884357177734375,1.2941735546875
-0.28561263671875,0.11109808837890625,1.1287726318359375
-0.36536404296875,0.1417343798828125,1.02088109375
-0.27345541015625,0.0338946337890625,1.0953483740234375
-0.2454937890625,-0.0641414990234375,0.979100771484375
-0.23601115234375,0.016738310546875,1.0339067236328126
-0.32791978515625,-0.175412509765625,0.907336923828125
-0.07893978515625,-0.06193568603515625,0.819844013671875
-0.18446451171875,-0.0425735498046875,0.8127167822265625
-0.2756437109375,0.05962911865234375,0.86850580078125
-0.3670660546875,0.03512008544921875,0.881777197265625
-0.3806821484375,-0.011201987304687501,0.83213234375
-0.164283515625,-0.01193725830078125,0.87243806640625
-0.32937865234375,0.02482629150390625,1.0186691943359376
-0.39867484375,0.1314405859375,1.0267794921875
-0.27977716796875,0.1584005224609375,0.8053437841796875
-0.31187224609374997,-0.00213364501953125,0.7370206689453125
-0.36220316406249997,0.14124419921875,0.71907970703125
-0.0451426953125,-0.06144550537109375,0.82918314453125
-0.22944625,0.10129447509765625,0.9729566064453125
-0.19613544921875,0.00472888427734375,0.9483799462890625
-0.31916658203125,-0.1430605859375,0.985982236328125
-0.38311359375,0.01208159423828125,1.0216183935546874
-0.25886673828125,-0.0406128271484375,0.9127437890625
-0.22482650390625,0.01551285888671875,0.926015185546875
-0.35126166015625,0.00423870361328125,1.0417712548828124
-0.222638203125,0.0642858349609375,1.1371286962890625
-0.36390517578125,0.06649164794921875,1.2015195458984376
-0.42712275390625,0.014777587890624999,1.1145181689453125
-0.22725794921875,0.06992291259765625,0.9739396728515625
-0.12513724609375,0.1407540185546875,1.043983154296875
-0.38530189453125,0.081442158203125,1.20078224609375
-0.28464005859375,0.1289896826171875,1.17718865234375
-0.0310403125,0.01453249755859375,1.040050888671875
-0.31478998046875,0.03315936279296875,0.916184521484375
-0.19856689453125,-0.0464949951171875,0.8200897802734375
-0.2561921484375,-0.0063001806640625,0.885709462890625
-0.27977716796875,-0.00605509033203125,0.8987350927734374
-0.30555048828125,0.011346323242187501,0.9218371533203125
-0.323786328125,-0.0474753564453125,0.8365561425781249
-0.1015522265625,0.05105095703125,0.896523193359375
-0.444386015625,0.13511694091796875,1.080356611328125
-0.26907880859375,0.12972495361328126,1.2870463232421876
-0.24136033203125,0.18045865234375,1.4000989599609375
-0.31381740234375,0.0530116796875,1.1882481494140624
-0.18397822265625,0.14418528320312501,1.07298361328125
-0.273212265625,0.096147578125,1.035135556640625
-0.25546271484375,-0.089140712890625,0.9985163330078125
-0.14361623046875,0.06698182861328125,1.0179318945312499
-0.3038484765625,-0.09330724853515625,0.9874568359375
-0.33715927734375,-0.065612041015625,1.1823497509765626
-0.42931105468749997,-0.02223105224609375,1.24108796875
-0.41836955078125,-0.023456503906250002,0.957473310546875
-0.26713365234374997,-0.06242586669921875,0.862115869140625
-0.2153438671875,-0.10752248779296875,0.925032119140625
-0.28415376953125,-0.0513968017578125,1.03661015625
-0.190543125,0.1554594384765625,1.1307387646484375
-0.23017568359375,0.0843832421875,1.04742388671875
-0.11006228515625,-0.0631611376953125,1.0383305224609374
-0.19029998046875,0.07825598388671876,1.12017080078125
-0.18470765625,-0.0097314453125,1.0658563818359374
-0.21266927734375,0.03119864013671875,1.111323203125
-0.40718490234375,0.0530116796875,1.1565442578125
-0.33253953125,-0.02860340087890625,1.0211268603515624
-0.34299474609375,0.06600146728515625,0.92552365234375
-0.2309051171875,-0.03497574951171875,0.8697346337890625
-0.29047552734375,0.06404074462890624,0.946168046875
-0.30846822265625,0.04443351806640625,1.0240760595703124
-0.279047734375,-0.08448399658203125,0.9395323486328125
-0.26616107421875,-0.08693489990234375,0.9414984814453125
-0.11249373046875,0.0280124658203125,1.0019570654296874
-0.3456693359375,0.0137972265625,1.004660498046875
-0.19273142578125,0.018699033203125,1.1390948291015626
-0.3096839453125,0.0956573974609375,1.083305810546875
-0.44146828125,0.14050892822265626,0.9677955078125
-0.19637859375,-0.20849970458984374,0.8028861181640625
-0.121490078125,-0.19526482666015624,0.7321053369140624
-0.2980130078125,0.0417375244140625,0.75053783203125
-0.36585033203125,-0.05801424072265625,0.7905977880859375
-0.13972591796875,-0.01683906494140625,1.028254091796875
-0.31284482421875,-0.16683434814453124,1.1073909375
-0.09887763671875,-0.19624518798828125,1.304495751953125
-0.4662690234375,-0.01928996826171875,1.4639982763671875
-0.48839517578125,0.022620478515625,1.0896957421875
-0.14021220703125,0.0446786083984375,0.804606484375
-0.228473671875,-0.03105430419921875,0.7168678076171875
-0.152612578125,0.03536517578125,0.878827998046875
-0.206104375,0.09051050048828126,1.00023669921875
-0.31576255859375,0.0505607763671875,0.9921264013671875
-0.2523018359375,-0.025662316894531252,0.7660211279296875
-0.335457265625,0.01183650390625,0.684180849609375
-0.32986494140625,-0.1352176953125,0.603569404296875
-0.16112263671875,-0.0229663232421875,0.76430076171875
-0.386031328125,0.0289928271484375,0.9070911572265625
-0.3145468359375,-0.08007237060546875,0.9407611816406249
-0.2231244921875,0.03413972412109375,0.9503460791015625
-0.330594375,-0.04575972412109375,0.710232109375
-0.144831953125,0.050070595703125,0.6976980126953125
-0.18495080078125,0.16060633544921876,0.719571240234375
-0.1715778515625,0.0789912548828125,0.9166760546875
-0.1715778515625,0.14197947021484375,1.0825685107421874
-0.17765646484375,0.02580665283203125,1.295648154296875
-0.4900971875,0.03512008544921875,1.31088568359375
-0.08915185546875,-0.120512275390625,1.095102607421875
-0.11541146484375,-0.07517056396484376,1.102967138671875
-0.46870046875,0.08854977783203125,1.091170341796875
-0.39478453125,-0.107767578125,0.7581565966796875
-0.082586953125,-0.020515419921875,0.7291561376953125
-0.2873146484375,-0.128355166015625,0.8245135791015625
-0.1968648828125,-0.1161006494140625,1.0516019189453125
-0.09255587890625,-0.06634731201171876,1.2115959765625
-0.35344996093750003,-0.07320984130859375,1.164900322265625
-0.16209521484375,0.10987263671875,1.0845346435546874
-0.20488865234375,-0.030073942871093752,0.8785822314453124
-0.2878009375,0.0270321044921875,1.04545775390625
-0.28391062499999997,0.11796061767578125,1.1130435693359375
-0.39745912109375,-0.065612041015625,0.9242948193359375
-0.09693248046875,-0.0006631030273437505,0.8382765087890625
-0.09523046875,-0.046249904785156254,0.807064150390625
-0.27613,-0.0533575244140625,0.89013326171875
-0.2367405859375,0.056933125,0.8485987060546875
-0.16306779296875,0.0003172583007812497,0.8372934423828124
-0.24816837890625,-0.013407800292968751,0.925032119140625
-0.17765646484375,0.0191892138671875,0.9813126708984374
-0.156502890625,-0.0043394580078125,1.0801108447265624
-0.286828359375,0.04296297607421875,1.201273779296875
-0.2552195703125,0.14541073486328124,1.06511908203125
-0.2805066015625,0.056933125,0.7357918359375
-0.14021220703125,-0.06046514404296875,0.5856284423828125
-0.10301109375,0.02482629150390625,0.6807401171875
-0.226528515625,0.03536517578125,0.7591396630859375
-0.1676875390625,0.0966377587890625,0.9110234228515625
-0.17765646484375,-0.051886982421875,0.95894791015625
-0.26227076171875,0.0054641552734375,0.9926179345703126
-0.17133470703125,-0.01144707763671875,0.9813126708984374
-0.3203823046875,0.024091020507812498,1.0643817822265624
-0.349073359375,-0.03129939453125,0.969270107421875
-0.13948277343749999,-0.171491064453125,0.9670582080078125
-0.2172890234375,-0.0817880029296875,1.198324580078125
-0.51757251953125,-0.06144550537109375,1.273037626953125
-0.3505322265625,-0.048945898437499996,1.040542421875
-0.11978806640625,-0.0960032421875,0.718588173828125
-0.1589343359375,-0.01928996826171875,0.73874103515625
-0.07796720703125,0.00521906494140625,0.895540126953125
-0.19321771484375,-0.01291761962890625,1.1843158837890626
-0.32743349609375,-0.020515419921875,1.295648154296875
-0.32354318359375,-0.024436865234375,1.158018857421875
-0.279047734375,0.0059543359375,0.9011927587890625
-0.3077387890625,-0.02321141357421875,0.7571735302734375
-0.20148462890625,-0.01046671630859375,0.708757509765625
-0.21850474609375,0.03659062744140625,0.9061080908203125
-0.4186126953125,0.0682072802734375,0.9695158740234375
-0.27272597656249997,-0.07419020263671874,0.733334169921875
-0.1735230078125,-0.1337471533203125,0.68368931640625
-0.11322316406249999,-0.02076051025390625,0.707774443359375
-0.119544921875,0.02678701416015625,0.8338527099609375
-0.14993798828125,-0.0151234326171875,0.9734481396484375
-0.308225078125,0.11060790771484375,1.1174673681640626
-0.28609892578125,-0.07320984130859375,1.0373474560546876
-0.29387955078125,-0.1195319140625,1.03562708984375
-0.34153587890625,-0.12614935302734376,0.918150654296875
-0.29582470703125,-0.08227818359375,0.890624794921875
-0.27734572265625,-0.0881603515625,0.994829833984375
-0.337402421875,-0.10311086181640625,0.9520664453125
-0.25449013671875,0.024581201171875,0.8127167822265625
-0.2202067578125,0.03462990478515625,0.934862783203125
-0.20197091796875,-0.06659240234375,1.001219765625
-0.3135742578125,-0.024436865234375,1.0589749169921876
-0.36487775390625,-0.060710234375,1.08084814453125
-0.092312734375,-0.1278649853515625,1.098051806640625
-0.39648654296875,-0.02321141357421875,1.24108796875
-0.52729830078125,-0.01095689697265625,1.1644087890625
-0.206104375,-0.069533486328125,0.9808211376953125
-0.3320532421875,-0.13889405029296875,0.83213234375
-0.3281629296875,0.016738310546875,0.7674957275390625
-0.2581373046875,-0.17614778076171875,0.7237492724609375
-0.27248283203125,-0.08546435791015625,0.7807671240234375
-0.12854126953125,-0.04428918212890625,0.879811064453125
-0.0791829296875,-0.0724745703125,0.9972875
-0.32864921874999997,0.0133070458984375,1.27549529296875
-0.5071173046875,-0.06928839599609375,1.266156162109375
-0.1385101953125,-0.04968116943359375,1.1073909375
-0.3719289453125,0.16403760009765625,1.0540595849609375
-0.47623794921875,0.02727719482421875,0.89799779296875
-0.08672041015625,-0.067572763671875,0.797233486328125
-0.142886796875,0.11379408203125,0.846386806640625
-0.2007551953125,-0.02909358154296875,0.98942296875
-0.25449013671875,-0.0543378857421875,1.261240830078125
-0.2566784375,0.04002189208984375,1.3425895751953125
-0.21583015625000002,0.03953171142578125,1.29319048828125
-0.33253953125,-0.01830960693359375,1.30105501953125
-0.39940427734375,-0.046740085449218746,1.1523662255859375
-0.18251935546875,-0.10409122314453124,1.0058893310546875
-0.30214646484375,-0.05556333740234375,0.8874298291015625
-0.24087404296875,-0.03497574951171875,0.80952181640625
-0.19905318359375002,0.0221302978515625,0.9655836083984375
-0.11468203125,0.02090484619140625,1.001219765625
-0.26275705078125,0.104970830078125,1.0722463134765625
-0.24670951171875,0.042227705078125,1.2865547900390626
-0.3884627734375,0.0451687890625,1.2693511279296874
-0.2367405859375,0.03413972412109375,1.19390078125
-0.16938955078125,0.0035034326171875,1.3216994140625
-0.36828177734375,0.06281529296875,1.4448284814453125
-0.4701593359375,-0.0092412646484375,1.2565712646484375
-0.23552486328125,-0.03522083984375,1.0031858984375
-0.24281919921875,-0.04330882080078125,0.88620099609375
-0.16720125,-0.1464918505859375,0.9284728515625
-0.18543708984375,-0.01978014892578125,1.2383845361328125
-0.43490337890624997,-0.1700205224609375,1.252884765625
-0.2775888671875,-0.09967959716796874,1.10640787109375
-0.1696326953125,-0.08154291259765625,0.9414984814453125
-0.22677166015625,-0.03448556884765625,0.9754142724609375
-0.2610550390625,-0.013652890625,1.0597122167968749
-0.177899609375,0.04688442138671875,1.1617053564453126
-0.30409162109375,-0.07026875732421875,1.1577730908203125
-0.30603677734375,-0.04379900146484375,1.11623853515625
-0.2659179296875,-0.034240478515625,0.906353857421875
-0.23528171875,-0.07468038330078125,0.796250419921875
-0.113709453125,-0.06267095703125,0.8933282275390625
-0.2955815625,-0.11193411376953125,1.0412797216796874
-0.0543821875,-0.16585398681640626,1.0963314404296876
-0.24233291015625,-0.04821062744140625,1.1005094726562499
-0.30457791015625,-0.04575972412109375,1.086255009765625
-0.2892598046875,-0.057278969726562504,0.8977520263671875
-0.24306234375,0.013552136230468751,0.95108337890625
-0.34810078125,-0.06046514404296875,0.984016103515625
-0.31746457031249997,-0.07860182861328124,1.02186416015625
-0.20488865234375,0.13462676025390624,0.9815584374999999
-0.30141703125,0.01649322021484375,0.8805483642578125
-0.2722396875,0.010856142578125,0.92945591796875
-0.15771861328125,0.0221302978515625,1.0442289208984374
-0.23844259765625,-0.00458454833984375,1.1735021533203125
-0.3344846875,0.055952763671875,1.214053642578125
-0.31041337890625,-0.11291447509765624,1.1046875048828124
-0.3578265625,-0.13987441162109376,0.998762099609375
-0.325731484375,-0.0915916162109375,0.7846993896484376
-0.2542469921875,-0.193059013671875,0.7094948095703125
-0.08526154296874999,-0.206784072265625,0.7529954980468749
-0.280992890625,-0.17712814208984376,0.8834975634765625
-0.24136033203125,-0.1513936572265625,0.96681244140625
-0.30311904296875003,-0.18350049072265626,0.8736668994140625
-0.25254498046875,-0.16193254150390626,0.822793212890625
-0.1944334375,-0.02223105224609375,0.8930824609375
-0.2095083984375,-0.09526797119140624,0.986965302734375
-0.28634207031250003,-0.0200252392578125,0.9921264013671875
-0.21704587890625,-0.06781785400390625,0.9331424169921875
-0.2289599609375,-0.09232688720703125,0.8613785693359375
-0.21899103515625,-0.07075893798828126,0.8451579736328125
-0.08623412109375,-0.0817880029296875,0.89013326171875
-0.23163455078125,-0.026397587890625,0.916184521484375
-0.41447923828125,-0.08595453857421875,0.8800568310546875
-0.28901666015625,0.01257177490234375,0.8692431005859375
-0.1842213671875,-0.12173772705078124,0.85474287109375
-0.28707150390625,-0.1494329345703125,0.8456495068359375
-0.25497642578125,-0.00581,0.83704767578125
-0.06410796875,-0.15359947021484374,0.796250419921875
-0.22944625,-0.05752406005859375,0.9729566064453125
-0.3213548828125,-0.012427438964843749,0.9641090087890625
-0.1949197265625,-0.03987755615234375,0.8360646093749999
-0.24233291015625,0.064776015625,0.8618701025390625
-0.30166017578125,-0.0033590966796874996,0.9252778857421875
-0.2036729296875,0.0373258984375,1.014491162109375
-0.2255559375,0.09835339111328124,1.024321826171875
-0.170118984375,0.06845237060546874,1.095594140625
-0.40669861328125,-0.08227818359375,1.08478041015625
-0.21801845703125,0.04884514404296875,1.009575830078125
-0.34785763671875003,-0.05115171142578125,0.9481341796875
-0.39794541015625,-0.17712814208984376,0.94223578125
-0.268349375,-0.15801109619140624,0.8441749072265625
-0.20537494140625,-0.0788469189453125,0.8161575146484374
-0.36366203125,-0.12860025634765626,0.7842078564453125
-0.32548833984375003,-0.144040947265625,0.8859552294921875
-0.1492085546875,0.108892275390625,0.9729566064453125
-0.34348103515625,0.13658748291015624,1.104933271484375
-0.31697828125,0.14148928955078124,1.073475146484375
-0.2085358203125,0.14443037353515625,1.028254091796875
-0.24525064453125,-0.036201201171875,1.005643564453125
-0.3942982421875,0.015022678222656249,0.85867513671875
-0.19346085937500002,-0.01781942626953125,0.7301392041015625
-0.14215736328125,-0.0837487255859375,0.761843095703125
-0.2299325390625,-0.096983603515625,1.0501273193359375
-0.41204779296875,-0.03693647216796875,1.300563486328125
-0.3281629296875,0.01306195556640625,1.205697578125
-0.16185207031249998,-0.06144550537109375,1.0806023779296874
-0.33618669921875,0.00987578125,1.235681103515625
-0.37119951171875,0.04100225341796875,1.1174673681640626
-0.27783201171875,-0.07835673828125,1.0162115283203126
-0.24622322265625,-0.08693489990234375,1.0309575244140625
-0.45168035156249997,-0.07051384765625,0.902913125
-0.12610982421875,-0.21046042724609376,0.79379275390625
-0.2620276171875,-0.02517213623046875,0.8427003076171875
-0.15066742187499998,-0.03350520751953125,0.9729566064453125
-0.30871136718750003,-0.1268846240234375,1.105916337890625
-0.38724705078125,-0.1817848583984375,1.1002637060546876
-0.2805066015625,-0.0053198193359375,0.8667854345703125
-0.3135742578125,0.03855135009765625,0.6256883984375
-0.2338228515625,-0.1964902783203125,0.5413904541015625
-0.01863994140625,-0.19207865234375,0.6097135693359375
-0.17765646484375,-0.22663638916015624,0.9835245703125
-0.3967296875,-0.169530341796875,1.147205126953125
-0.38335673828125,-0.17712814208984376,1.240596435546875
-0.24330548828125,0.008895419921875,1.310394150390625
-0.259596171875,-0.060710234375,1.099034873046875
-0.28609892578125,-0.18595139404296876,0.8353273095703125
-0.13948277343749999,-0.12811007568359375,0.68270625
-0.286828359375,-0.09232688720703125,0.6441208935546875
-0.25497642578125,-0.13203152099609375,0.5241867919921875
-0.09109701171875,-0.0371815625,0.62470533203125
-0.22434021484375,-0.10850284912109374,0.9188879541015624
-0.3057936328125,-0.14722712158203125,1.1779259521484375
-0.3874901953125,-0.12614935302734376,1.3553694384765624
-0.49325806640625003,-0.1626678125,1.2076637109375
-0.4828028515625,-0.1788437744140625,0.873912666015625
-0.224583359375,-0.1200220947265625,0.61094240234375
-0.0791829296875,-0.07860182861328124,0.5295936572265625
0.029259531249999998,-0.042328459472656246,0.5836623095703125
0.009078535156249998,-0.0945327001953125,0.84097994140625
-0.24865466796875,0.09688284912109375,1.1204165673828126
-0.43198564453125,0.08609887451171874,1.3942005615234374
-0.38287044921875,-0.20727425292968749,1.5529657861328126
-0.32646091796875,0.1544790771484375,1.535516357421875
-0.39162365234375,-0.04134809814453125,1.4458115478515625
-0.37338781249999997,-0.02737794921875,1.2093840771484374
-0.399647421875,-0.07419020263671874,0.874895732421875
-0.23990146484375,-0.24918469970703125,0.694503046875
-0.2785614453125,-0.187176845703125,0.5667044140624999
-0.1890842578125,-0.1484525732421875,0.548517685546875
-0.19078626953125,-0.13938423095703126,0.6485446923828125
-0.22920310546875,-0.0798272802734375,0.7534870312499999
-0.3116291015625,-0.12173772705078124,0.946659580078125
-0.35417939453125,-0.0778665576171875,1.07691587890625
-0.3962433984375,0.06453092529296875,1.1607222900390626
-0.3680386328125,-0.0523771630859375,1.0786362451171876
-0.12635296875,-0.055073156738281254,1.035135556640625
-0.32889236328125,0.01012087158203125,1.1408151953125
-0.5080898828125,0.05031568603515625,0.9763973388671875
-0.3524773828125,0.03512008544921875,0.772656826171875
-0.28269490234375,0.08756941650390625,0.8225474462890625
-0.18738224609375,-0.13987441162109376,0.922574453125
-0.11225058593750001,-0.05482806640625,1.1577730908203125
-0.30311904296875003,0.0495804150390625,1.117713134765625
-0.17571130859375,-0.09820905517578125,0.9992536328125
-0.2688356640625,0.06011929931640625,0.97074470703125
-0.35977171875,-0.0006631030273437505,0.9562444775390625
-0.32257060546875,0.0329142724609375,1.0919076416015625
-0.3816547265625,0.03806116943359375,1.113780869140625
-0.2941226953125,0.01845394287109375,1.0855177099609374
-0.335457265625,-0.0141430712890625,1.0093300634765625
-0.38287044921875,0.01208159423828125,0.8815314306640625
-0.179844765625,0.0721287255859375,0.8633447021484375
-0.103983671875,0.03757098876953125,0.8648193017578125
-0.10130908203125,-0.052867343750000004,0.9532952783203125
-0.15625974609374998,-0.20163717529296876,1.1386032958984376
-0.34493990234375,-0.204823349609375,1.2491982666015624
-0.4672416015625,-0.07517056396484376,1.255342431640625
-0.29752671875000003,-0.03889719482421875,1.2155282421875
-0.31965287109375,0.0221302978515625,1.1951296142578125
-0.29631099609375,-0.04036773681640625,1.13196759765625
-0.30992708984375,-0.08595453857421875,1.0545511181640626
-0.28950294921874997,-0.2553119580078125,0.9370746826171875
-0.14945169921875,-0.10997339111328125,0.8697346337890625
-0.08769298828125,-0.1719812451171875,0.82131861328125
-0.11225058593750001,-0.1161006494140625,0.9370746826171875
-0.255705859375,-0.11536537841796875,0.9257694189453125
-0.15625974609374998,-0.136198056640625,0.848352939453125
-0.19224513671875,-0.24232217041015625,0.9537868115234375
-0.17911533203125,-0.17026561279296876,1.2555881982421875
-0.360744296875,-0.076396015625,1.3529117724609374
-0.38189787109375,-0.0749254736328125,1.0896957421875
-0.1647698046875,-0.1523740185546875,0.6834435498046875
-0.06532369140625,-0.12173772705078124,0.5423735205078125
-0.16452666015625,-0.12369844970703125,0.660587255859375
-0.18227621093750002,-0.0016434643554687498,0.8014115185546875
-0.2445212109375,-0.006790361328125,0.958456376953125
-0.25473328125,-0.0641414990234375,0.994829833984375
-0.14969484375,-0.07320984130859375,0.9759058056640625
-0.1433730859375,0.10521592041015625,0.9002096923828125
-0.2221519140625,-0.0317895751953125,0.9582106103515625
-0.3262177734375,0.06011929931640625,1.1211538671875
-0.354908828125,-0.01683906494140625,1.136391396484375
-0.24184662109375,-0.06144550537109375,0.95501564453125
-0.28755779296875,-0.10213050048828125,0.6583753564453125
-0.27029453125,-0.12860025634765626,0.5256613916015624
-0.11589775390625,-0.1415900439453125,0.526890224609375
-0.08963814453125,-0.1298257080078125,0.6809858837890626
-0.19759431640625,-0.0406128271484375,0.869980400390625
-0.345183046875,-0.14330567626953125,0.9528037451171875
-0.31284482421875,-0.19281392333984376,0.97467697265625
-0.36293259765625,-0.059484782714843754,0.9501003125
-0.28123603515625,-0.10065995849609374,0.8830060302734375
-0.2488978125,-0.18448085205078124,0.7930554541015625
-0.2591098828125,-0.18423576171875,0.6922911474609375
-0.2542469921875,-0.0886505322265625,0.64240052734375
-0.19419029296875,-0.18006922607421874,0.6195442333984374
-0.16841697265625,-0.20653898193359374,0.7109694091796875
-0.13778076171875,-0.10188541015625,0.85081060546875
-0.44535859375,-0.116590830078125,0.809030283203125
-0.2717533984375,-0.0151234326171875,0.6915538476562499
-0.3116291015625,-0.1273748046875,0.6293748974609374
-0.3203823046875,-0.2160975048828125,0.8159117480468749
-0.23260712890625002,-0.0670825830078125,0.863098935546875
-0.1385101953125,-0.0190448779296875,0.70629984375
-0.10519939453125,0.00816014892578125,0.64633279296875
-0.04465640625,0.01575794921875,0.868997333984375
-0.17668388671875,-0.0494360791015625,0.9719735400390626
-0.24476435546875,0.12776423095703124,1.122628466796875
-0.423961875,0.08634396484375,1.0879753759765625
-0.30166017578125,-0.09722869384765626,0.921099853515625
-0.02301654296875,-0.09722869384765626,0.8019030517578125
-0.2416034765625,-0.0175743359375,0.93142205078125
-0.39867484375,-0.123453359375,0.9559987109375
-0.0811280859375,-0.09036616455078125,1.0727378466796875
-0.35709712890625,-0.03987755615234375,1.1887396826171874
-0.41739697265625,-0.030319033203124998,1.108865537109375
-0.25303126953125,-0.04919098876953125,1.0078554638671875
-0.24573693359375,-0.02321141357421875,0.910286123046875
-0.29242068359375,-0.096983603515625,0.86850580078125
-0.2104809765625,0.0897752294921875,1.11034013671875
-0.2513292578125,0.08658905517578125,1.367412001953125
-0.43368765625,0.110852998046875,1.284342890625
-0.39867484375,0.0030132519531249997,1.1395863623046876
-0.226528515625,0.0172284912109375,1.007609697265625
-0.2800203125,-0.06585713134765625,0.88030259765625
-0.1997826171875,0.0574233056640625,0.9080742236328125
-0.40232201171875,-0.1352176953125,0.9567360107421875
-0.18397822265625,-0.0553182470703125,1.0815854443359374
-0.018396796875,-0.17467723876953126,1.2005364794921876
-0.30846822265625,-0.15457983154296875,1.307936484375
-0.56036595703125,0.099088662109375,1.3224367138671875
-0.4341739453125,-0.0651218603515625,1.155069658203125
-0.06824142578125,0.02531647216796875,1.1661291552734374
-0.31722142578125,0.019434304199218752,1.23420650390625
-0.14629082031250001,-0.1484525732421875,1.23027423828125
-0.20804953125,0.012816865234374999,1.1479424267578124
-0.36487775390625,0.21109494384765626,0.9537868115234375
-0.057299921875,-0.013652890625,0.843929140625
-0.1871391015625,-0.02321141357421875,1.0444746875
-0.20391607421875,0.1289896826171875,1.3081822509765626
-0.557205078125,-0.16095218017578125,1.2654188623046876
-0.3223274609375,-0.1886473876953125,0.9759058056640625
-0.084532109375,0.019679394531249998,0.8761245654296875
-0.26056875,-0.02149578125,0.914218388671875
-0.14361623046875,-0.02419177490234375,0.94715111328125
-0.16355408203125,0.0584036669921875,1.1100943701171875
-0.20804953125,-0.03252484619140625,1.12606919921875
-0.13826705078125,-0.0641414990234375,0.9857364697265625
-0.2056180859375,-0.08546435791015625,0.8485987060546875
-0.013533906250000002,-0.09012107421875,0.8977520263671875
-0.19516287109375,-0.1141399267578125,1.0417712548828124
-0.127325546875,-0.1141399267578125,1.1504000927734375
-0.35344996093750003,0.04933532470703125,1.3413607421875
-0.44949205078125,0.08070688720703124,1.3578271044921875
-0.39575710937499997,0.09884357177734375,0.9080742236328125
-0.13948277343749999,-0.0371815625,0.615366201171875
-0.03274232421875,-0.154824921875,0.5984083056640626
-0.1637972265625,-0.10654212646484375,0.7193254736328125
-0.2464663671875,-0.14428603759765624,0.74857169921875
-0.32500205078125,-0.0210056005859375,0.7711822265625
-0.12246265625,-0.0906112548828125,0.7139186083984375
-0.10106593750000001,-0.14428603759765624,0.9356000830078125
-0.28561263671875,0.06355056396484375,1.2526389990234374
-0.31527626953125,0.14884199951171875,1.3927259619140624
-0.399647421875,0.07433453857421875,1.2442829345703126
-0.220693046875,0.218692744140625,0.9874568359375
-0.22920310546875,0.01747358154296875,0.8358188427734374
-0.179844765625,-0.03399538818359375,0.7891231884765625
-0.206104375,0.022620478515625,0.922082919921875
-0.20732009765625,-0.07320984130859375,1.0267794921875
-0.35344996093750003,-0.09232688720703125,1.0031858984375
-0.27418484375,-0.1033559521484375,0.9410069482421874
-0.23309341796875,-0.1170810107421875,0.855234404296875
-0.20804953125,-0.0582593310546875,0.8834975634765625
-0.190543125,0.02752228515625,0.9174133544921875
-0.24768208984375,0.00619942626953125,0.98057537109375
-0.21655958984375,0.0525214990234375,1.015474228515625
-0.29728357421875,0.0686974609375,0.9129895556640625
-0.160393203125,0.023845930175781252,0.854251337890625
-0.25886673828125,-0.0092412646484375,0.961897109375
-0.27734572265625,-0.02272123291015625,1.040050888671875
-0.2474389453125,-0.0308092138671875,1.031203291015625
-0.28561263671875,0.04786478271484375,1.06315294921875
-0.25935302734375,0.0878145068359375,1.0174403613281249
-0.31746457031249997,-0.0006631030273437505,0.9704989404296875
-0.277102578125,0.0642858349609375,1.0053977978515625
-0.3145468359375,0.07041309326171875,1.0184234277343749
-0.29582470703125,0.057913486328125,0.8618701025390625
-0.18081734375,-0.05703387939453125,0.7881401220703125
-0.18884111328125,-0.12271808837890624,0.8161575146484374
-0.31576255859375,-0.12565917236328125,0.9090572900390625
-0.203186640625,-0.11830646240234374,0.9306847509765624
-0.23309341796875,-0.01561361328125,0.9444476806640625
-0.2299325390625,-0.008751083984375,0.97271083984375
-0.31089966796875,0.0495804150390625,1.0127707958984375
-0.22239505859375,0.1407540185546875,1.1690783544921874
-0.3111428125,0.14835181884765625,1.20668064453125
-0.27442798828125,0.017718671875,1.174730986328125
-0.13389044921874999,0.10987263671875,1.209138310546875
-0.16890326171875,-0.0332601171875,1.2167570751953125
-0.25692158203125,0.0407571630859375,1.2329776708984375
-0.263486484375,0.03217900146484375,1.155069658203125
-0.34202216796875,-0.01683906494140625,1.111814736328125
-0.23795630859375,-0.00703545166015625,1.043000087890625
-0.1633109375,-0.0945327001953125,1.016948828125
-0.1414279296875,-0.09575815185546875,1.150645859375
-0.34348103515625,0.008895419921875,1.21651130859375
-0.23941517578125,-0.0190448779296875,1.16735798828125
-0.23552486328125,0.05497240234375,1.062661416015625
-0.31697828125,0.02041466552734375,1.0938737744140625
-0.13826705078125,0.0289928271484375,1.1857904833984374
-0.2678630859375,0.00178780029296875,1.207172177734375
-0.1550440234375,0.07825598388671876,1.317275615234375
-0.30117388671875,0.03536517578125,1.299580419921875
-0.33229638671875,-0.0837487255859375,1.1400778955078126
-0.2104809765625,0.09541230712890625,1.1317218310546875
-0.28074974609375003,-0.068553125,1.013508095703125
-0.19346085937500002,-0.08007237060546875,0.965337841796875
-0.1939471484375,0.1172253466796875,1.1007552392578126
-0.39089421875,-0.0651218603515625,1.17718865234375
-0.22628537109375,-0.09820905517578125,1.1946380810546875
-0.183735078125,-0.050661530761718754,1.0152284619140626
-0.28634207031250003,-0.051886982421875,0.798216552734375
-0.191515703125,-0.19232374267578126,0.6696806201171875
-0.1268392578125,-0.15654055419921875,0.7080202099609375
-0.2454937890625,-0.0602200537109375,0.9277355517578125
-0.30895451171875,-0.09526797119140624,1.1282810986328125
-0.24914095703125,0.03904153076171875,1.2197062744140625
-0.26081189453125,0.08756941650390625,1.1656376220703124
-0.25059982421875,0.02580665283203125,1.0039231982421875
-0.23139140625,0.1397736572265625,0.9532952783203125
-0.21947732421875,0.153988896484375,0.990897568359375
-0.16695810546875,0.0162481298828125,1.016948828125
-0.1803310546875,0.0476196923828125,1.089204208984375
-0.1112780078125,0.01257177490234375,1.175714052734375
-0.32062544921875,0.0809519775390625,1.1504000927734375
-0.2561921484375,0.042227705078125,1.13196759765625
-0.26956509765625,0.103010107421875,1.0973145068359376
-0.294608984375,0.03119864013671875,1.0840431103515624
-0.3028758984375,-0.06683749267578125,1.0688055810546875
-0.29436583984375,-0.0200252392578125,1.049881552734375
-0.24865466796875,-0.05850442138671875,0.8869382958984375
-0.1988100390625,-0.10850284912109374,0.7837163232421875
-0.20026890625,-0.05850442138671875,0.7085117431640625
-0.14069849609375001,-0.12467881103515625,0.6741044189453125
-0.1093328515625,-0.06977857666015624,0.8466325732421875
-0.271267109375,-0.060710234375,0.9041419580078125
-0.17765646484375,-0.13644314697265625,0.89603166015625
-0.210967265625,-0.04281864013671875,0.754961630859375
-0.09134015625,0.0505607763671875,0.80362341796875
-0.28366748046875,-0.02027032958984375,0.9247863525390625
-0.31235853515625,0.08854977783203125,1.1218911669921874
-0.175954453125,0.16207687744140625,1.2666476953124999
-0.46164927734375,0.116735166015625,1.25780009765625
-0.42663646484375,-0.04698517578125,0.8358188427734374
-0.11541146484375,-0.1464918505859375,0.569162080078125
-0.08720669921875,-0.14330567626953125,0.4922371337890625
-0.057543066406249996,-0.1102184814453125,0.4887964013671875
-0.05024873046875,-0.09575815185546875,0.5969337060546875
-0.1958923046875,-0.05409279541015625,0.8692431005859375
-0.27102396484375,0.02776737548828125,0.9827872705078124
-0.14069849609375001,0.015022678222656249,1.0260421923828125
-0.18203306640625,0.15129290283203126,1.041033955078125
-0.27248283203125,0.214771298828125,1.10444173828125
-0.23795630859375,0.18438009765625,1.0624156494140624
-0.29144810546875,0.09786321044921875,0.9773804052734375
-0.19516287109375,0.1338914892578125,0.862115869140625
-0.290718671875,0.0765403515625,0.788385888671875
-0.21972046875,0.10178465576171875,0.855234404296875
-0.195406015625,0.14394019287109375,0.938303515625
-0.25497642578125,0.010856142578125,1.006626630859375
-0.12319208984375,-0.011201987304687501,1.038084755859375
-0.28269490234375,0.00791505859375,0.9763973388671875
-0.1890842578125,-0.0043394580078125,0.8500733056640625
-0.12562353515625,0.038306259765625,0.82525087890625
-0.27880458984375,0.11207844970703125,1.00810123046875
-0.27053767578125,0.04443351806640625,1.06708521484375
-0.29242068359375,0.07482471923828125,0.991880634765625
-0.35977171875,0.06281529296875,0.9164302880859375
-0.27296912109375,0.0838930615234375,0.87637033203125
-0.2717533984375,0.06404074462890624,0.718096640625
-0.09134015625,0.06845237060546874,0.698926845703125
-0.25108611328125,0.19638952392578124,0.83213234375
-0.174009296875,0.00521906494140625,0.8569547705078124
-0.12124693359375,0.0544822216796875,0.9596852099609375
-0.23114826171875,0.13168567626953126,1.0815854443359374
-0.51708623046875,0.10399046875,1.0137538623046876
-0.288773515625,-0.00507472900390625,0.652722724609375
-0.1200312109375,0.020659755859375,0.5718655126953125
-0.20537494140625,-0.07419020263671874,0.6165950341796875
-0.21218298828125,-0.1352176953125,0.7271900048828125
-0.33181009765625,0.0927163134765625,0.9051250244140625
-0.36633662109375,0.0966377587890625,0.867522734375
-0.2484115234375,0.14001874755859375,0.8112421826171875
-0.24768208984375,0.226535634765625,0.8171405810546875
-0.23309341796875,0.24197632568359376,0.95108337890625
-0.17182099609375,0.14345001220703124,1.0132623291015626
-0.13437673828125,0.11060790771484375,0.9778719384765625
-0.1268392578125,0.05325677001953125,0.875878798828125
-0.14312994140625,0.09149086181640625,0.95108337890625
