ax,ay,az
-0.35661083984374997,0.1574201611328125,1.103950205078125
-0.38287044921875,0.17286085205078125,1.1199250341796876
-0.4643238671875,0.161831787109375,0.9994993994140625
-0.34883021484375,-0.013407800292968751,0.8412257080078125
-0.16793068359375,0.0035034326171875,0.8717007666015625
-0.28998923828125,-0.06291604736328126,0.8628531689453125
-0.240144609375,0.0373258984375,0.9857364697265625
-0.26275705078125,0.0476196923828125,0.9714820068359376
-0.3962433984375,0.01453249755859375,0.906845390625
-0.09304216796875,0.0172284912109375,0.848352939453125
-0.20002576171875,-0.00409436767578125,1.108865537109375
-0.317950859375,0.05889384765625,1.182103984375
-0.36220316406249997,0.15178308349609376,1.2069264111328124
-0.40280830078125,0.17678229736328124,1.095594140625
-0.341292734375,0.13658748291015624,1.0250591259765625
-0.3952708203125,0.11501953369140624,0.90586232421875
-0.35855599609375,0.16109651611328124,0.822793212890625
-0.1920019921875,-0.00703545166015625,0.7328426367187499
-0.14799283203125,0.11845079833984375,0.816894814453125
-0.29339326171875,0.11845079833984375,0.850319072265625
-0.25205869140625,0.1000690234375,0.9206083203125
-0.2746711328125,0.171635400390625,1.0181776611328126
-0.3126016796875,0.20668331787109376,1.056763017578125
-0.3301080859375,0.2133007568359375,1.0845346435546874
-0.42760904296875,0.20080114990234374,1.0174403613281249
-0.4127772265625,0.1613416064453125,0.9120064892578125
-0.29874244140625,0.12727405029296876,0.814928681640625
-0.23552486328125,0.06011929931640625,0.7483259326171875
-0.230418828125,0.01453249755859375,0.7861739892578125
-0.2027003515625,0.15962597412109375,0.9886856689453125
-0.28196546875,0.10472573974609375,1.0346440234375
-0.3660934765625,0.11771552734375,1.1027213720703124
-0.323786328125,0.2064382275390625,1.145238994140625
-0.298499296875,0.14982236083984374,0.9709904736328125
-0.226528515625,0.1652630517578125,0.9287186181640625
-0.20829267578125,0.07825598388671876,1.0132623291015626
-0.2824517578125,0.05913893798828125,1.0324321240234375
-0.24962724609375,0.05227640869140625,0.84884447265625
-0.317950859375,0.10668646240234375,0.85081060546875
-0.46067669921875,0.1534987158203125,0.8692431005859375
-0.3524773828125,0.1368325732421875,0.8540055712890625
-0.25011353515625,0.00227798095703125,0.8412257080078125
-0.25935302734375,0.03904153076171875,0.933879716796875
-0.22385392578125,0.08242251953125,0.9646005419921875
-0.30749564453125,0.04492369873046875,0.871455
-0.31235853515625,0.21599675048828126,0.865065068359375
-0.2571647265625,0.19786006591796876,0.8859552294921875
-0.2970404296875,0.15619470947265626,0.9454307470703125
-0.308225078125,0.19222298828125,0.9070911572265625
-0.337402421875,0.18462518798828126,0.90782845703125
-0.24330548828125,0.132420947265625,0.9655836083984375
-0.34785763671875003,0.06158984130859375,0.9559987109375
-0.3826273046875,0.15227326416015624,0.9847534033203125
-0.39745912109375,0.16624341308593749,0.885709462890625
-0.35709712890625,0.142224560546875,0.7257154052734375
-0.21218298828125,0.14345001220703124,0.76233462890625
-0.32694720703125,0.20913422119140626,0.9321593505859375
-0.35174794921875,0.13732275390625,1.0452119873046875
-0.234309140625,0.21991819580078126,1.147205126953125
-0.35223423828125,0.26084828125,1.080356611328125
-0.32159802734375,0.1240878759765625,1.00515203125
-0.25789416015625,0.169674677734375,1.010558896484375
-0.39113736328125,0.11501953369140624,0.9970417333984375
-0.37703498046875,0.06698182861328125,0.9867195361328125
-0.33618669921875,0.01796376220703125,0.8461410400390625
-0.27418484375,0.05717821533203125,0.7434106005859376
-0.20342978515625,0.0407571630859375,0.7552073974609375
-0.39016478515624997,0.01845394287109375,0.847369873046875
-0.34445361328125,0.20325205322265624,1.070525947265625
-0.314060546875,0.034384814453125,1.1621968896484376
-0.37533296875,0.14639109619140625,1.2627154296875
-0.41447923828125,0.2152614794921875,1.2629611962890626
-0.3583128515625,0.05374695068359375,1.02776255859375
-0.34202216796875,0.0535018603515625,0.8648193017578125
-0.33959072265625,0.1485969091796875,0.8820229638671875
-0.1920019921875,-0.042083369140625,0.8117337158203125
-0.27929087890625,0.061834931640625,0.827708544921875
-0.407428046875,0.15619470947265626,0.9370746826171875
-0.37338781249999997,0.14246965087890626,0.9326508837890625
-0.36001486328125,0.16844922607421875,1.009575830078125
-0.40134943359374997,0.23756469970703126,1.1041959716796874
-0.349073359375,0.1123235400390625,1.1499085595703125
-0.341292734375,0.1133039013671875,1.0933822412109375
-0.40718490234375,0.10374537841796876,0.9936010009765625
-0.34348103515625,0.0035034326171875,0.8869382958984375
-0.25546271484375,-0.02468195556640625,0.7719195263671875
-0.32159802734375,-0.00409436767578125,0.7316138037109375
-0.21558701171875,0.04100225341796875,0.82328474609375
-0.3267040625,-0.0121823486328125,0.88226873046875
-0.3699837890625,0.0750698095703125,0.8638362353515625
-0.36001486328125,0.179478291015625,0.83508154296875
-0.32257060546875,0.1084020947265625,0.85474287109375
-0.28585578125,0.13168567626953126,0.9380577490234375
-0.33083751953125,0.191242626953125,1.090187275390625
-0.32159802734375,0.12335260498046875,1.1558069580078125
-0.3164919921875,0.12874459228515625,1.1720275537109375
-0.30506419921875,0.11943115966796874,1.0874838427734375
-0.4059691796875,0.21011458251953125,1.079865078125
-0.42979734375,0.20521277587890624,1.0088385302734375
-0.26907880859375,0.09933375244140626,0.8223016796875
-0.2411171875,0.00521906494140625,0.788877421875
-0.30141703125,0.167713955078125,0.9397781152343749
-0.2474389453125,0.05105095703125,0.97860923828125
-0.40086314453125,0.10815700439453126,0.9798380712890625
-0.42371873046874997,0.19099753662109376,0.9046334912109375
-0.35709712890625,0.210849853515625,0.9174133544921875
-0.38189787109375,0.1505576318359375,0.9891772021484375
-0.4361191015625,0.03168882080078125,0.9901602685546875
-0.25862359375,0.03757098876953125,1.031203291015625
-0.29922873046875,0.05815857666015625,1.0476696533203125
-0.28269490234375,0.09933375244140626,1.0661021484375
-0.4147223828125,0.057913486328125,0.9891772021484375
-0.47088876953125003,0.096147578125,0.9223286865234375
-0.3573402734375,0.063795654296875,0.8262339453125
-0.22093619140625,0.0358553564453125,0.931913583984375
-0.3213548828125,-0.0210056005859375,0.9911433349609375
-0.218747890625,0.059874208984374996,1.035135556640625
-0.23017568359375,0.09492212646484376,1.1159927685546875
-0.4176401171875,0.10374537841796876,1.1292641650390625
-0.43490337890624997,0.0427178857421875,0.9921264013671875
-0.27807515625,-0.0327699365234375,0.858183603515625
-0.35466568359375,0.1270289599609375,0.880794130859375
-0.2785614453125,0.0231106591796875,0.89504859375
-0.16355408203125,0.122617333984375,0.8525309716796875
-0.33108066406250003,0.0584036669921875,0.9144641552734375
-0.3889490625,0.053992041015625,0.9857364697265625
-0.15334201171875,0.17139031005859376,0.880794130859375
-0.15528716796875,0.1878113623046875,0.9778719384765625
-0.41156150390625,0.19786006591796876,1.1233657666015624
-0.380195859375,0.2319276220703125,1.1835785839843749
-0.4351465234375,0.1005592041015625,1.104933271484375
-0.4789125390625,0.057913486328125,0.867031201171875
-0.17571130859375,0.03757098876953125,0.693028447265625
-0.154557734375,0.0623251123046875,0.64240052734375
-0.284883203125,0.079481435546875,0.79969115234375
-0.32208431640625,0.02335574951171875,1.01989802734375
-0.4886383203125,0.20423241455078125,1.1518746923828125
-0.3933256640625,0.22825126708984375,1.064627548828125
-0.20415921875,0.14786163818359374,1.0820769775390624
-0.35174794921875,0.10202974609375,1.01989802734375
-0.2795340234375,0.19884042724609374,0.977134638671875
-0.31089966796875,0.04688442138671875,0.87637033203125
-0.446331171875,0.02678701416015625,0.8417172412109375
-0.29922873046875,0.12531332763671876,0.726452705078125
-0.205131796875,0.01551285888671875,0.6846723828125
-0.30846822265625,0.1005592041015625,0.763809228515625
-0.42420501953125,0.195164072265625,0.8171405810546875
-0.21655958984375,7.216796875000007e-05,0.8707177001953125
-0.214857578125,0.15374380615234376,0.9852449365234375
-0.2999581640625,0.25815228759765624,1.227816572265625
-0.321841171875,0.1446754638671875,1.3352165771484374
-0.5265688671875,0.12384278564453124,1.3858444970703125
-0.32402947265625,0.21158512451171874,1.3366911767578125
-0.33667298828125003,-0.08203309326171875,1.0614325830078124
-0.33424154296874997,0.022620478515625,0.9134810888671875
-0.2221519140625,-0.02272123291015625,0.717605107421875
-0.1399690625,-0.08791526123046875,0.781012890625
-0.20148462890625,0.0564429443359375,1.0348897900390626
-0.44730375,0.053992041015625,1.2698426611328124
-0.57057802734375,0.174576484375,1.344801474609375
-0.50784673828125,0.14590091552734374,1.2076637109375
-0.3816547265625,0.09835339111328124,0.9680412744140625
-0.20002576171875,0.0162481298828125,0.88030259765625
-0.25351755859375,-0.010221625976562499,0.796741953125
-0.28464005859375,-0.0371815625,0.695977646484375
-0.30020130859375,-0.04134809814453125,0.6416632275390625
-0.28026345703125,0.010856142578125,0.5969337060546875
-0.26907880859375,0.10472573974609375,0.633061396484375
-0.24670951171875,0.10472573974609375,0.770690693359375
-0.338375,0.214771298828125,0.9611598095703124
-0.45484123046875,0.2172222021484375,1.0850261767578124
-0.41302037109375,0.1642826904296875,1.1405694287109376
-0.40086314453125,0.15766525146484375,0.993355234375
-0.27685943359375,0.10031411376953125,0.7635634619140625
-0.004780703125000001,0.08242251953125,0.74857169921875
-0.1414279296875,0.142224560546875,1.0592206835937499
-0.41496552734375003,0.1995756982421875,1.3755222998046874
-0.47088876953125003,0.20570295654296875,1.4534303125
-0.51514107421875,0.23266289306640625,1.18603625
-0.2800203125,0.1515379931640625,0.901438525390625
-0.22750109375,0.09541230712890625,0.867031201171875
-0.33715927734375,0.14737145751953126,0.9503460791015625
-0.4079143359375,0.0922261328125,0.961897109375
-0.24525064453125,0.06624655761718751,0.8368019091796874
-0.37119951171875,0.06624655761718751,0.6396970947265626
-0.14458880859375,0.083402880859375,0.6298664306640624
-0.1710915625,-0.0151234326171875,0.620281533203125
-0.341292734375,0.05962911865234375,0.7674957275390625
-0.32937865234375,0.0633054736328125,0.870963466796875
-0.43587595703125,-0.02860340087890625,0.9164302880859375
-0.2620276171875,0.128499501953125,0.8653108349609375
-0.37581925781250003,-0.04183827880859375,0.869980400390625
-0.174981875,0.09100068115234375,1.009575830078125
-0.24622322265625,0.13168567626953126,1.072492080078125
-0.37338781249999997,0.17923320068359375,1.2354353369140625
-0.2630001953125,0.12433296630859375,1.2767241259765625
-0.29485212890625,0.20178151123046875,1.28335982421875
-0.3135742578125,0.0907555908203125,1.2732833935546874
-0.48255970703125,0.03413972412109375,1.17718865234375
-0.35977171875,0.09418685546875,1.0142453955078126
-0.40037685546875,0.01453249755859375,0.9247863525390625
-0.4837754296875,0.056933125,0.9061080908203125
-0.38092529296875,0.03953171142578125,0.8594124365234375
-0.33424154296874997,-0.0249270458984375,0.8790737646484375
-0.3889490625,0.071638544921875,1.0019570654296874
-0.2892598046875,0.07482471923828125,1.0171945947265626
-0.3077387890625,0.053992041015625,1.0575003173828126
-0.34639876953125,0.1878113623046875,1.1204165673828126
-0.3942982421875,0.097127939453125,1.03661015625
-0.45289607421875,0.01306195556640625,0.97271083984375
-0.392839375,0.0927163134765625,0.8984893261718749
-0.4215304296875,-0.0327699365234375,0.69745224609375
-0.32062544921875,-0.0513968017578125,0.6559176904296875
-0.346155625,-0.0043394580078125,0.68270625
-0.37703498046875,0.067717099609375,0.7119524755859374
-0.28464005859375,0.09835339111328124,0.860149736328125
-0.38311359375,0.13952856689453125,0.981066904296875
-0.3515048046875,0.19148771728515626,1.0216183935546874
-0.28998923828125,0.033404453125,0.969270107421875
-0.3038484765625,0.11011772705078125,0.9488714794921875
-0.33983386718749997,-0.013407800292968751,0.9324051171875
-0.335457265625,0.0123266845703125,0.8584293701171875
-0.2503566796875,0.20815385986328125,0.8790737646484375
-0.4341739453125,0.16599832275390625,0.9085657568359375
-0.36147373046875,0.07139345458984375,1.064136015625
-0.25059982421875,0.20178151123046875,1.2015195458984376
-0.487179453125,0.22432982177734376,1.0963314404296876
-0.31819400390625,0.03462990478515625,0.96484630859375
-0.230418828125,0.05227640869140625,0.8812856640625
-0.38700390625000003,0.1005592041015625,0.8869382958984375
-0.282938046875,0.016738310546875,0.92355751953125
-0.38530189453125,-0.026397587890625,0.88030259765625
-0.36439146484375,0.099088662109375,0.82328474609375
-0.28804408203125,-0.048455717773437504,0.7645465283203124
-0.32597462890625,0.0152677685546875,0.84884447265625
-0.35806970703125,0.04124734375,0.8957858935546875
-0.30117388671875,-0.03742665283203125,0.8380307421875
-0.3913805078125,0.11992134033203125,0.876861865234375
-0.41058892578125,-0.0016434643554687498,0.9700074072265625
-0.26664736328125,-0.03889719482421875,1.0461950537109375
-0.2163164453125,0.08903995849609375,0.9498545458984375
-0.300444453125,0.019434304199218752,0.95894791015625
-0.2960678515625,0.07237381591796875,1.0874838427734375
-0.39843169921875,0.093206494140625,1.148188193359375
-0.47040248046875,0.06747200927734374,1.081339677734375
-0.44706060546875,0.14124419921875,1.1469593603515624
-0.372415234375,0.05423713134765625,1.0427543212890624
-0.29169125,0.06624655761718751,0.9582106103515625
-0.34202216796875,0.021885207519531248,0.9754142724609375
-0.40645546875,0.03168882080078125,0.9700074072265625
-0.372415234375,-0.015368522949218751,0.8451579736328125
-0.327676640625,0.06355056396484375,0.92650671875
-0.392839375,0.06796218994140625,0.97369390625
-0.39867484375,0.022620478515625,0.9282270849609375
-0.26178447265625,-0.052867343750000004,0.891607861328125
-0.41691068359375,0.02433611083984375,0.9646005419921875
-0.35806970703125,0.08462833251953125,1.0181776611328126
-0.2800203125,-0.05752406005859375,0.9144641552734375
-0.40669861328125,0.07850107421875,0.92945591796875
-0.35126166015625,0.073599267578125,1.04939001953125
-0.33861814453125,-0.010711806640625,1.0068723974609375
-0.40694175781249997,0.014777587890624999,0.9953213671875
-0.3787369921875,0.0020328906249999995,0.9311762841796875
-0.3359435546875,0.08070688720703124,0.860149736328125
-0.31308796875,0.01649322021484375,0.8112421826171875
-0.21972046875,0.06109966064453125,0.8943112939453125
-0.38335673828125,0.0211499365234375,0.93338818359375
-0.49909353515625,0.14124419921875,0.959439443359375
-0.3194097265625,0.04884514404296875,0.8564632373046875
-0.37581925781250003,0.13854820556640626,0.8009199853515625
-0.34493990234375,0.191242626953125,0.918150654296875
-0.2620276171875,0.0672269189453125,1.0063808642578125
-0.40062,0.0907555908203125,1.010558896484375
-0.34737134765625,0.06624655761718751,0.9685328076171875
-0.3057936328125,0.05080586669921875,0.9105318896484375
-0.30263275390625,0.02139502685546875,0.9021758251953125
-0.35806970703125,0.03757098876953125,1.0427543212890624
-0.37168580078125,0.02531647216796875,1.211104443359375
-0.535808359375,0.053992041015625,1.1093570703125
-0.37071322265625,0.0348749951171875,0.8952943603515625
-0.15285572265625,-0.0097314453125,0.8304119775390625
-0.35028908203125,0.00521906494140625,0.9198710205078124
-0.3505322265625,0.0505607763671875,1.101984072265625
-0.2620276171875,0.020659755859375,1.0353813232421876
-0.56206796875,0.00717978759765625,0.8599039697265625
-0.31673513671875,0.04688442138671875,0.862115869140625
-0.28196546875,-0.0886505322265625,0.7620888623046875
-0.28026345703125,-0.04183827880859375,0.81935248046875
-0.3267040625,0.015022678222656249,0.841471474609375
-0.317950859375,0.00619942626953125,0.811979482421875
-0.33959072265625,0.01698340087890625,0.7660211279296875
-0.27296912109375,0.08756941650390625,0.9508376123046876
-0.35977171875,0.1157548046875,1.0009739990234374
-0.374360390625,0.08168724853515624,0.8746499658203125
-0.36050115234375,0.05717821533203125,0.7908435546875
-0.2756437109375,0.008895419921875,0.698926845703125
-0.20026890625,0.07188363525390624,0.764792294921875
-0.29631099609375,0.07237381591796875,0.96681244140625
-0.4370916796875,0.120656611328125,1.115747001953125
-0.4356328125,0.2137909375,1.02579642578125
-0.2435486328125,0.10595119140625,0.920116787109375
-0.37703498046875,0.07727562255859374,0.9407611816406249
-0.2416034765625,0.167713955078125,1.127052265625
-0.32475890625,0.08658905517578125,1.1459762939453124
-0.38384302734375,0.13340130859375,1.14376439453125
-0.33424154296874997,0.080461796875,1.0503730859375
-0.38676076171875,-0.0016434643554687498,0.965829375
-0.368524921875,0.0466393310546875,1.0869923095703125
-0.40062,0.05497240234375,0.97860923828125
-0.4448723046875,-0.0063001806640625,0.9242948193359375
-0.37314466796875,-0.04330882080078125,0.93142205078125
-0.343237890625,0.026296833496093748,0.9395323486328125
-0.19832375,-0.08056255126953125,0.9768888720703125
-0.3291355078125,-0.0553182470703125,1.053813818359375
-0.55064017578125,-0.04575972412109375,1.0184234277343749
-0.3797095703125,-0.09085634521484375,0.875878798828125
-0.22725794921875,0.0093856005859375,0.8554801708984375
-0.3573402734375,-0.04526954345703125,0.989914501953125
-0.43393080078125,0.0133070458984375,1.154086591796875
-0.4370916796875,-0.0308092138671875,1.0058893310546875
-0.3913805078125,0.09149086181640625,0.9100403564453124
-0.32840607421875,0.052031318359375,0.8608870361328125
-0.39697283203125,-0.0415931884765625,0.9695158740234375
-0.2581373046875,0.04884514404296875,1.09461107421875
-0.34980279296875,0.05129604736328125,1.151137392578125
-0.43757796875,0.08805959716796875,0.9407611816406249
-0.46116298828125,-0.0406128271484375,0.74070716796875
-0.1706052734375,-0.12712971435546874,0.65911265625
-0.32013916015625,-0.01953505859375,0.8304119775390625
-0.40037685546875,0.0417375244140625,1.0385762890625
-0.3874901953125,-0.06144550537109375,1.09657720703125
-0.46262185546875,0.0544822216796875,1.023338759765625
-0.41812640624999997,0.023845930175781252,0.8299204443359375
-0.31041337890625,-0.02027032958984375,0.8048522509765625
-0.2027003515625,-0.0210056005859375,0.7930554541015625
-0.3719289453125,0.0593840283203125,0.8805483642578125
-0.374360390625,0.0172284912109375,0.8825144970703125
-0.36050115234375,-0.034240478515625,0.91765912109375
-0.41350666015625,0.0378160791015625,0.93338818359375
-0.43368765625,0.14639109619140625,1.0039231982421875
-0.39745912109375,-0.011201987304687501,0.842454541015625
-0.27929087890625,0.03928662109375,0.860149736328125
-0.3641483203125,-0.079337099609375,0.9011927587890625
-0.31284482421875,0.018699033203125,0.9744312060546875
-0.33326896484375,0.080461796875,0.9636174755859375
-0.38457246093749997,-0.02149578125,1.01989802734375
-0.37265837890625,0.126538779296875,1.147205126953125
-0.3446967578125,0.132420947265625,1.0307117578125
-0.34226531250000003,-0.00850599365234375,1.013508095703125
-0.33764556640625,-0.03154448486328125,1.031203291015625
-0.37460353515625,0.03757098876953125,0.9188879541015624
-0.4200715625,-0.05409279541015625,0.82131861328125
-0.273212265625,-0.0009081933593750001,0.8023945849609375
-0.38627447265625,-0.05874951171875,0.7075286767578125
-0.23212083984375,-0.08938580322265625,0.80558955078125
-0.34980279296875,-0.03448556884765625,0.9572275439453125
-0.40523974609375,-0.057278969726562504,1.0255506591796875
-0.3106565234375,0.0059543359375,1.0226014599609374
-0.33035123046875,-0.04306373046875,1.0034316650390624
-0.40937320312500003,0.0642858349609375,0.9992536328125
-0.31916658203125,-0.03644629150390625,0.927981318359375
-0.26907880859375,0.06992291259765625,0.9257694189453125
-0.34737134765625,-0.096983603515625,0.9188879541015624
-0.376305546875,-0.040122646484374996,0.9331424169921875
-0.185680234375,-0.0063001806640625,0.97074470703125
-0.37606240234375,-0.0661022216796875,0.8677685009765626
-0.35223423828125,0.01747358154296875,0.9739396728515625
-0.3262177734375,0.04345315673828125,1.05233921875
-0.42517759765625,0.00865032958984375,0.9528037451171875
-0.37581925781250003,0.05913893798828125,0.9975332666015625
-0.3033621875,0.1515379931640625,1.058729150390625
-0.40426716796875,0.0686974609375,0.9803296044921875
-0.41691068359375,0.0740894482421875,0.92355751953125
-0.20026890625,-0.04330882080078125,0.7827332568359375
-0.34056330078125,0.020659755859375,0.7340714697265625
-0.18057419921875,-0.05090662109375,0.8771076318359375
-0.36390517578125,-0.08056255126953125,0.97074470703125
-0.43636224609375,0.04149243408203125,1.093136474609375
-0.35466568359375,-0.012427438964843749,1.0211268603515624
-0.38238416015625,0.053992041015625,0.8982435595703124
-0.3797095703125,0.026541923828125,0.87931953125
-0.28269490234375,0.09051050048828126,0.968287041015625
-0.36585033203125,0.0544822216796875,0.9739396728515625
-0.3476144921875,0.02360083984375,0.999745166015625
-0.27272597656249997,0.050070595703125,0.984999169921875
-0.3126016796875,-0.0180645166015625,0.9837703369140625
-0.35806970703125,0.1035002880859375,1.0919076416015625
-0.3456693359375,0.08756941650390625,1.085271943359375
-0.40937320312500003,-0.0018885546875000003,1.013508095703125
-0.29922873046875,0.1270289599609375,0.97271083984375
-0.483289140625,-0.08423890625,0.810996416015625
-0.20926525390625,-0.03987755615234375,0.80853875
-0.36390517578125,0.03953171142578125,0.7886316552734375
-0.405482890625,-0.02223105224609375,0.8662939013671875
-0.3145468359375,0.0329142724609375,0.8938197607421875
-0.39745912109375,0.06060947998046875,0.868014267578125
-0.31722142578125,-0.046249904785156254,0.8603955029296875
-0.34202216796875,0.02041466552734375,1.0122792626953125
-0.32548833984375003,-0.055808427734375,0.9842618701171875
-0.37922328125,-0.08007237060546875,0.9095488232421876
-0.3291355078125,0.05227640869140625,0.958456376953125
-0.335457265625,-0.0621807763671875,0.8026403515625
-0.12805498046875,-0.01978014892578125,0.90193005859375
-0.417153828125,0.03536517578125,0.975168505859375
-0.46748474609375,0.01747358154296875,1.0543053515625
-0.2309051171875,0.0054641552734375,1.08379734375
-0.39210994140625,0.10668646240234375,1.1297556982421875
-0.4040240234375,0.0760501708984375,1.1204165673828126
-0.33375525390625,-0.01585870361328125,1.0029401318359374
-0.29582470703125,0.11354899169921875,0.910286123046875
-0.31770771484375,0.085363603515625,0.82721701171875
-0.33715927734375,-0.0396324658203125,0.756927763671875
-0.30846822265625,0.00399361328125,0.835573076171875
-0.2736985546875,0.0711483642578125,0.8161575146484374
-0.31965287109375,-0.022476142578125,0.8225474462890625
-0.312115390625,0.06453092529296875,0.8682600341796876
-0.3962433984375,0.06404074462890624,0.8481071728515625
-0.3592854296875,0.07727562255859374,0.8554801708984375
-0.28318119140625,0.091245771484375,0.907336923828125
-0.3437241796875,0.09394176513671874,1.0692971142578125
-0.40037685546875,0.1035002880859375,1.1172216015625
-0.36779548828124997,0.03413972412109375,0.987948369140625
-0.29728357421875,0.16256705810546876,0.908319990234375
-0.31381740234375,0.06257020263671875,0.9582106103515625
-0.29776986328125,0.019434304199218752,1.0958399072265625
-0.33910443359375,0.13609730224609376,1.1604765234375
-0.3242726171875,0.04247279541015625,1.12017080078125
-0.4575158203125,0.0162481298828125,0.9650920751953125
-0.36536404296875,0.0417375244140625,0.927981318359375
-0.32840607421875,0.01600303955078125,0.8761245654296875
-0.39648654296875,-0.05850442138671875,0.8599039697265625
-0.28318119140625,0.04198261474609375,0.8068183837890625
-0.28026345703125,-0.035711020507812496,0.76921609375
-0.31770771484375,-0.046740085449218746,0.8195982470703125
-0.36828177734375,-0.00409436767578125,0.8358188427734374
-0.2659179296875,-0.0602200537109375,0.884726396484375
-0.2610550390625,0.02874773681640625,0.873912666015625
-0.34007701171875,-0.02223105224609375,0.926998251953125
-0.37411724609375,0.00178780029296875,1.022355693359375
-0.34591248046875,0.128499501953125,1.0174403613281249
-0.35344996093750003,0.06600146728515625,0.9557529443359375
-0.3242726171875,-0.04330882080078125,0.945676513671875
-0.31333111328125,0.1574201611328125,1.1012467724609376
-0.3135742578125,0.08634396484375,1.067576748046875
-0.3967296875,0.0074248779296875,1.0171945947265626
-0.35466568359375,0.18658591064453126,1.0953483740234375
-0.3894353515625,0.07825598388671876,1.02579642578125
-0.370470078125,0.06600146728515625,1.0167030615234376
-0.338375,0.10227483642578125,0.9390408154296875
-0.35028908203125,0.01012087158203125,0.82131861328125
-0.30117388671875,0.0103659619140625,0.776589091796875
-0.2756437109375,-0.0016434643554687498,0.83311541015625
-0.315033125,-0.020515419921875,0.7920723876953125
-0.39405509765625,-0.008996174316406251,0.8476156396484374
-0.4098594921875,0.0623251123046875,0.890624794921875
-0.3408064453125,0.0387964404296875,0.85081060546875
-0.3242726171875,0.0535018603515625,0.86359046875
-0.25546271484375,0.10227483642578125,0.965829375
-0.34980279296875,0.10521592041015625,1.028745625
-0.33083751953125,0.04002189208984375,1.067576748046875
-0.271267109375,0.13658748291015624,1.1223827001953124
-0.42663646484375,0.1231075146484375,1.0226014599609374
-0.41204779296875,0.09100068115234375,1.0407881884765624
-0.27613,-0.010221625976562499,1.024321826171875
-0.3904079296875,-0.0661022216796875,0.9537868115234375
-0.2085358203125,0.10031411376953125,0.9115149560546875
-0.37144265625,-0.0504164404296875,0.79182662109375
-0.312115390625,0.09541230712890625,1.00810123046875
-0.28220861328125,0.008895419921875,1.2201978076171875
-0.46213556640625,0.069677822265625,1.1612138232421876
-0.338375,0.0829127001953125,1.0393135888671874
-0.41982841796875,0.0608545703125,0.931913583984375
-0.36050115234375,0.04982550537109375,0.914218388671875
-0.35758341796875,-0.02272123291015625,0.89603166015625
-0.3967296875,-0.098944326171875,0.8431918408203125
-0.19953947265625,-0.030319033203124998,0.7576650634765625
-0.15334201171875,-0.0759058349609375,0.7409529345703125
-0.3427516015625,0.02139502685546875,0.8525309716796875
-0.34542619140624997,-0.00213364501953125,0.95304951171875
-0.37898013671874997,0.04786478271484375,0.96681244140625
-0.3631757421875,0.17188049072265624,1.0363643896484376
-0.42590703125,0.00570924560546875,1.0688055810546875
-0.28561263671875,0.0201695751953125,1.1356540966796875
-0.35466568359375,0.11060790771484375,1.0801108447265624
-0.32257060546875,0.07678544189453125,1.06708521484375
-0.3203823046875,-0.0033590966796874996,0.945676513671875
-0.4278521875,0.04051207275390625,0.7751144921875
-0.191515703125,0.075559990234375,0.6726298193359375
-0.2231244921875,-0.01953505859375,0.62667146484375
-0.21583015625000002,0.0417375244140625,0.7296476708984375
-0.36196001953125,0.057913486328125,0.876861865234375
-0.382141015625,0.1642826904296875,1.0388220556640624
-0.39843169921875,0.030708459472656248,1.05528841796875
-0.42906791015625,0.20276187255859374,1.0211268603515624
-0.2552195703125,0.18438009765625,1.061678349609375
-0.4458448828125,0.020659755859375,0.9990078662109375
-0.33715927734375,0.12972495361328126,0.96877857421875
-0.16112263671875,0.009140510253906251,0.93732044921875
-0.191515703125,-0.00777072265625,0.9631259423828125
-0.38457246093749997,0.01992448486328125,1.1725190869140625
-0.54042810546875,0.1338914892578125,1.1877566162109374
-0.48888146484375,0.03904153076171875,0.9046334912109375
-0.2921775390625,-0.12614935302734376,0.7670041943359375
-0.280992890625,-0.04306373046875,0.671400986328125
-0.1851939453125,0.019679394531249998,0.6844266162109375
-0.2542469921875,0.0015427099609375003,0.75840236328125
-0.2989855859375,0.09418685546875,0.930438984375
-0.3057936328125,0.03168882080078125,1.0196522607421874
-0.473563359375,0.1456558251953125,1.1376202294921876
-0.439523125,0.1564397998046875,1.253376298828125
-0.3962433984375,0.1348718505859375,1.1361456298828125
-0.392839375,0.13536203125,0.9179048876953125
-0.1949197265625,0.0868341455078125,0.861132802734375
-0.331566953125,0.0093856005859375,0.832623876953125
-0.25692158203125,0.083402880859375,1.07101748046875
-0.32111173828125,0.0211499365234375,1.237155703125
-0.4434134375,-0.142080224609375,1.159984990234375
-0.37995271484375,-0.008996174316406251,0.7920723876953125
-0.24184662109375,-0.03987755615234375,0.6256883984375
-0.224583359375,-0.11830646240234374,0.617332333984375
-0.23066197265625,-0.08840544189453126,0.8928366943359375
-0.448276328125,0.07580508056640625,1.24207103515625
-0.50930560546875,0.004973974609375,1.278936025390625
-0.442440859375,0.014777587890624999,1.049881552734375
-0.33813185546875,-0.11389483642578124,0.7188339404296875
-0.22725794921875,-0.0170841552734375,0.62667146484375
-0.232363984375,0.010856142578125,0.5934929736328125
-0.15577345703125,0.07065818359375,0.5050169970703124
-0.07067287109375,0.0309535498046875,0.6859012158203125
-0.25838044921875,0.13609730224609376,0.9749227392578125
-0.4409819921875,0.2083989501953125,1.311377216796875
-0.62431296875,0.23143744140625,1.379208798828125
-0.545534140625,0.12041152099609376,1.012525029296875
-0.290718671875,-0.08301345458984374,0.6060270703125
-0.06021765625,-0.07320984130859375,0.4003204248046875
0.01540029296875,-0.1043363134765625,0.414820654296875
0.027314375,-0.0768861962890625,0.5254156249999999
-0.25059982421875,-0.071494208984375,0.6667314208984375
-0.4302836328125,-0.023456503906250002,0.9881941357421875
-0.27613,0.016738310546875,1.315801015625
-0.2211793359375,0.41059847412109374,1.617110869140625
-0.30409162109375,0.5309378271484375,1.7225447412109376
-0.5090624609375,0.5341240014648437,1.811758017578125
-0.65227458984375,0.3397673681640625,1.4782527392578124
-0.44754689453125,0.27824969482421874,0.990897568359375
-0.18057419921875,-0.14698203125,0.7591396630859375
0.03631072265625,-0.216587685546875,0.6804943505859375
-0.18227621093750002,-0.24305744140625,0.7375122021484375
-0.40767119140625,-0.12663953369140624,0.641908994140625
-0.41447923828125,-0.03644629150390625,0.5571195166015624
-0.339347578125,-0.22026404052734375,0.664519521484375
-0.4477900390625,-0.204823349609375,1.0009739990234374
-0.54261640625,-0.013407800292968751,1.3914971289062499
-0.27005138671875,0.2534955712890625,1.4929987353515626
-0.24184662109375,0.18364482666015625,1.2676307617187499
-0.4837754296875,-0.04379900146484375,1.096085673828125
-0.52729830078125,0.077520712890625,0.9916348681640625
-0.43490337890624997,-0.1259042626953125,0.806081083984375
-0.267376796875,-0.01487834228515625,0.5472888525390625
-0.2610550390625,0.03144373046875,0.3976169921875
-0.18738224609375,-0.05115171142578125,0.37181149902343746
-0.06824142578125,-0.00948635498046875,0.5551533837890625
-0.27807515625,0.05227640869140625,0.9065996240234375
-0.5751977734375,0.09198104248046875,1.49766830078125
-0.82198947265625,0.11158826904296874,1.747858701171875
-0.77870974609375,0.1887917236328125,1.2981058203125
-0.330594375,0.01796376220703125,0.9154472216796875
-0.13389044921874999,-0.17565760009765624,0.966320908203125
-0.10130908203125,-0.03154448486328125,0.83311541015625
-0.08915185546875,0.03315936279296875,0.740215634765625
-0.27199654296875,-0.1004148681640625,0.7475886328125
-0.32937865234375,0.10129447509765625,0.8156659814453124
-0.44924890625,0.07139345458984375,0.851793671875
-0.41593810546875,0.069677822265625,1.0766701123046876
-0.41058892578125,0.14295983154296876,1.056271484375
-0.2775888671875,0.0201695751953125,0.926015185546875
-0.26178447265625,0.0927163134765625,0.9159387548828125
-0.29485212890625,0.00521906494140625,0.8783364648437499
-0.302389609375,0.08070688720703124,1.04939001953125
-0.36633662109375,0.1368325732421875,0.9795923046875
-0.3485870703125,-0.037916833496093746,0.64436666015625
-0.18495080078125,0.1456558251953125,0.6043067041015625
-0.34104958984375,0.15717507080078125,0.603569404296875
-0.43344451171875,0.049090234375,0.57358587890625
-0.41982841796875,-0.03448556884765625,0.5925099072265625
-0.22531279296875,-0.214626962890625,0.5738316455078125
0.043605058593749996,-0.1043363134765625,0.6642737548828125
0.041903046875,-0.04698517578125,0.943710380859375
-0.011831894531250001,0.108892275390625,1.3440641748046875
-0.50687416015625,0.1476165478515625,1.6719168212890625
-0.69628375,0.29148457275390627,1.7987323876953125
-0.70090349609375,0.2522701196289063,1.4227094873046875
-0.3077387890625,0.1152646240234375,1.2904870556640624
-0.4273658984375,0.14516564453125,1.1440101611328124
-0.2688356640625,0.00865032958984375,0.906845390625
-0.27515742187500003,-0.02223105224609375,0.7539785644531249
-0.36220316406249997,-0.046004814453125,0.6291291308593749
-0.397702265625,-0.04698517578125,0.490025234375
-0.25205869140625,0.0642858349609375,0.3998288916015625
0.06937837890625,0.00987578125,0.5743231787109375
0.09417912109375,0.179478291015625,1.091170341796875
-0.17814275390625,0.23952542236328125,1.4003447265625
-0.72740625,0.0838930615234375,1.418531455078125
-0.79548671875,-0.01634888427734375,1.1390948291015626
-0.4545980859375,-0.07566074462890625,0.8176321142578125
-0.26664736328125,-0.0999246875,0.9166760546875
-0.181789921875,-0.1513936572265625,0.927981318359375
-0.39065107421875,-0.01561361328125,0.8984893261718749
-0.30895451171875,-0.12418863037109375,0.7117067089843749
-0.0976619140625,-0.05090662109375,0.6800028173828125
-0.004780703125000001,0.0750698095703125,0.9183964208984375
-0.19127255859375,0.159871064453125,1.25976623046875
-0.3835998828125,0.096147578125,1.4846426708984375
-0.4973915234375,0.03536517578125,1.3607763037109375
-0.50249755859375,0.0809519775390625,1.1513831591796875
-0.52146283203125,0.0003172583007812497,0.9284728515625
-0.40256515625,0.00276816162109375,0.739232568359375
-0.42080099609375,-0.0847290869140625,0.7040879443359375
-0.28561263671875,-0.11879664306640625,0.777572158203125
-0.29387955078125,0.04590406005859375,0.9410069482421874
-0.2484115234375,-0.08423890625,1.02972869140625
-0.325731484375,-0.00507472900390625,1.1282810986328125
-0.38238416015625,0.09688284912109375,1.1828412841796876
-0.33472783203125,0.02286556884765625,1.0466865869140625
-0.27783201171875,-0.00752563232421875,0.9041419580078125
-0.24914095703125,-0.05213207275390625,0.777572158203125
-0.36585033203125,0.04590406005859375,0.6795112841796875
-0.3344846875,0.0137972265625,0.6514938916015625
-0.339347578125,-0.05703387939453125,0.7945300537109374
-0.4614061328125,0.07261890625,1.001219765625
-0.50444271484375,0.20178151123046875,1.1744852197265625
-0.438550546875,0.044188427734375,1.0968229736328126
-0.34299474609375,0.0652661962890625,1.0348897900390626
-0.2017277734375,-0.05311243408203125,0.9048792578125
-0.15042427734375,-0.10703230712890625,0.89799779296875
-0.1355924609375,0.01649322021484375,0.8918536279296875
-0.32281375,-0.05801424072265625,0.7802755908203125
-0.27029453125,-0.02615249755859375,0.79969115234375
-0.1988100390625,0.0887948681640625,0.8318865771484375
-0.3578265625,0.04590406005859375,0.84786140625
-0.3446967578125,-0.008751083984375,0.8869382958984375
-0.3874901953125,0.13462676025390624,0.9257694189453125
-0.4166675390625,0.030708459472656248,1.0103131298828125
-0.470645625,0.019679394531249998,1.0948568408203125
-0.38432931640625,0.0956573974609375,0.990897568359375
-0.40572603515625,0.012816865234374999,0.8245135791015625
-0.207076953125,0.085363603515625,0.8348357763671875
-0.1949197265625,-0.0298288525390625,0.7989538525390625
-0.29679728515625,0.01698340087890625,0.88423486328125
-0.2075632421875,0.197124794921875,0.9913891015625
-0.3797095703125,0.1485969091796875,0.891607861328125
-0.40815748046875,0.1682041357421875,0.9120064892578125
-0.3267040625,0.10202974609375,0.9365831494140625
-0.31746457031249997,0.06673673828125,1.0255506591796875
-0.455084375,0.0074248779296875,0.9950756005859375
-0.54918130859375,0.026541923828125,0.8122252490234375
-0.33229638671875,0.00619942626953125,0.6323240966796875
-0.220693046875,0.04884514404296875,0.6967149462890625
-0.2707808203125,0.106931552734375,0.889641728515625
-0.31041337890625,0.15227326416015624,1.12213693359375
-0.34445361328125,0.021885207519531248,1.090187275390625
-0.39478453125,0.1172253466796875,1.056763017578125
-0.36244630859375,-0.05409279541015625,0.834590009765625
-0.1161408984375,-0.0651218603515625,0.7866655224609375
-0.1424005078125,-0.016593974609375,0.8864467626953125
-0.32086859375,-0.11438501708984375,0.969270107421875
-0.4049966015625,-0.11830646240234374,1.0835515771484374
-0.35661083984374997,0.0037485229492187503,1.1422897949218749
-0.45192349609375,-0.01953505859375,1.1329506640625
-0.4779399609375,-0.01978014892578125,1.0806023779296874
-0.27685943359375,0.023845930175781252,1.093136474609375
-0.41885583984375,-0.120512275390625,1.052830751953125
-0.3262177734375,-0.061690595703125004,0.99630443359375
-0.20634751953125,-0.0406128271484375,0.8397511083984375
-0.20002576171875,0.07188363525390624,0.738249501953125
-0.2912049609375,0.075559990234375,0.7689703271484375
-0.29387955078125,0.09492212646484376,0.9247863525390625
-0.33959072265625,-0.0406128271484375,0.9739396728515625
-0.3048210546875,0.1005592041015625,1.0700344140625
-0.37946642578125,0.17433139404296874,1.047915419921875
-0.44171142578125,0.104970830078125,0.8795652978515625
-0.384086171875,0.14418528320312501,0.839505341796875
-0.3291355078125,0.1623219677734375,0.819844013671875
-0.3806821484375,0.07188363525390624,0.7581565966796875
-0.34445361328125,0.02286556884765625,0.766758427734375
-0.279047734375,0.0564429443359375,0.7257154052734375
-0.13340416015625,0.1054610107421875,0.7896147216796875
-0.20440236328125,0.06796218994140625,0.9031588916015625
-0.30555048828125,0.08021670654296875,1.075441279296875
-0.3806821484375,0.16844922607421875,1.16342572265625
-0.32548833984375003,0.1319307666015625,1.168832587890625
-0.31697828125,0.18315464599609374,1.09067880859375
-0.36536404296875,0.05497240234375,0.9282270849609375
-0.146777109375,0.0868341455078125,0.99827056640625
-0.5032269921875,0.03561026611328125,0.987948369140625
-0.50979189453125,0.09590248779296875,1.0181776611328126
-0.31576255859375,0.02874773681640625,0.994829833984375
-0.26810623046875,0.01453249755859375,1.0176861279296876
-0.37800755859375,-0.01095689697265625,1.073475146484375
-0.242089765625,-0.07026875732421875,1.0594664501953126
-0.29047552734375,-0.0298288525390625,0.90193005859375
-0.35101851562499997,-0.05801424072265625,0.7901062548828125
-0.22701480468750002,-0.0651218603515625,0.7414444677734375
-0.26567478515625,-0.0567887890625,0.83508154296875
-0.29971501953125,0.02286556884765625,0.99237216796875
-0.36463460937500003,0.02874773681640625,1.09067880859375
-0.41982841796875,0.12384278564453124,0.958456376953125
-0.3544225390625,0.11550971435546875,0.7753602587890625
-0.27442798828125,0.02923791748046875,0.6854096826171875
-0.33424154296874997,0.02090484619140625,0.78002982421875
-0.308225078125,-0.020515419921875,0.998762099609375
-0.32013916015625,-0.0121823486328125,1.246494833984375
-0.3301080859375,0.0054641552734375,1.189476982421875
-0.2902323828125,-0.06046514404296875,0.9734481396484375
-0.21023783203125002,-0.02860340087890625,0.8795652978515625
-0.27685943359375,-0.016593974609375,0.8382765087890625
-0.302389609375,0.071638544921875,0.8537598046875
-0.26275705078125,0.12947986328125,0.8957858935546875
-0.4798851171875,0.019679394531249998,0.791335087890625
-0.28634207031250003,0.228496357421875,0.839996875
-0.25838044921875,-0.02149578125,0.8766160986328125
-0.39478453125,0.02360083984375,1.0579918505859376
-0.29193439453125003,0.1652630517578125,1.159001923828125
-0.41788326171875,0.03119864013671875,1.078390478515625
-0.3126016796875,0.15521434814453125,1.0373474560546876
-0.28901666015625,0.07923634521484375,1.0624156494140624
-0.36828177734375,0.00472888427734375,1.192426181640625
-0.36098744140625,0.143204921875,1.2197062744140625
-0.37168580078125,0.103010107421875,1.0609410498046874
-0.2834243359375,0.0294830078125,0.9262609521484375
-0.35466568359375,0.05227640869140625,0.9144641552734375
-0.30555048828125,0.05815857666015625,1.0019570654296874
-0.27637314453125,-0.15310928955078124,0.9351085498046875
-0.41423609375,-0.02174087158203125,0.918150654296875
-0.31187224609374997,0.008405239257812499,0.7807671240234375
-0.23503857421875,-0.13203152099609375,0.7566819970703125
-0.33521412109375,-0.0366913818359375,0.8082929833984375
-0.3408064453125,-0.013407800292968751,0.8692431005859375
-0.331566953125,0.02335574951171875,0.90782845703125
-0.44268400390625,0.10815700439453126,0.843929140625
-0.25886673828125,0.05031568603515625,0.868997333984375
-0.2017277734375,-0.040122646484374996,0.8992266259765624
-0.35466568359375,-0.03301502685546875,0.9139726220703125
-0.15723232421875,-0.08448399658203125,0.8987350927734374
-0.27880458984375,-0.00213364501953125,0.8105048828125
-0.33959072265625,-0.0097314453125,0.7581565966796875
-0.29485212890625,-0.07468038330078125,0.8299204443359375
-0.42420501953125,0.05570767333984375,0.9056165576171875
-0.4040240234375,0.049090234375,0.8618701025390625
-0.27272597656249997,-0.05654369873046875,0.82328474609375
-0.25789416015625,0.1240878759765625,0.769707626953125
-0.3038484765625,0.11796061767578125,0.802148818359375
-0.3301080859375,-0.00850599365234375,0.88030259765625
-0.2795340234375,0.12727405029296876,0.9670582080078125
-0.300444453125,0.0103659619140625,0.923065986328125
-0.32111173828125,-0.01683906494140625,1.0235845263671874
-0.337402421875,0.03266918212890625,1.1194335009765626
-0.40086314453125,0.008895419921875,1.0157199951171876
-0.38481560546875,-0.00850599365234375,0.91765912109375
-0.41399294921875,0.08021670654296875,0.924049052734375
-0.31868029296875,0.06698182861328125,0.831640810546875
-0.3962433984375,-0.0386521044921875,0.7414444677734375
-0.356853984375,0.07065818359375,0.9095488232421876
-0.31041337890625,0.02531647216796875,0.8734211328125
-0.366579765625,-0.0249270458984375,0.96877857421875
-0.3500459375,-0.02419177490234375,1.0503730859375
-0.3835998828125,-0.07124911865234375,1.0506188525390625
-0.294608984375,-0.0308092138671875,1.1263149658203124
-0.47186134765625,-0.10262068115234375,1.03759322265625
-0.34348103515625,-0.04330882080078125,0.96484630859375
-0.302389609375,-0.17639287109375001,0.8608870361328125
-0.41812640624999997,-0.122472998046875,0.78494515625
-0.18592337890625,-0.14526639892578125,0.6883588818359375
-0.214857578125,-0.23006765380859376,0.696960712890625
-0.382141015625,0.01649322021484375,0.8156659814453124
-0.1472633984375,-0.0327699365234375,0.9129895556640625
-0.44657431640625,0.06992291259765625,1.06806828125
-0.501768125,-0.05997496337890625,1.157035791015625
-0.185680234375,-0.03129939453125,1.15752732421875
-0.33108066406250003,0.09247122314453125,1.0820769775390624
-0.35904228515625003,0.06281529296875,1.00023669921875
-0.428824765625,0.02776737548828125,0.9704989404296875
-0.5664445703125,0.0191892138671875,0.892590927734375
-0.378250703125,-0.10654212646484375,0.780521357421875
-0.22531279296875,-0.09281706787109376,0.65026505859375
-0.220693046875,0.01845394287109375,0.619298466796875
-0.21218298828125,-0.02321141357421875,0.716622041015625
-0.29144810546875,-0.05115171142578125,0.985982236328125
-0.45240978515625,0.06404074462890624,1.2462490673828124
-0.42663646484375,-0.01561361328125,1.3381657763671875
-0.48645001953125,0.0505607763671875,1.3519287060546874
-0.417153828125,0.07065818359375,1.194392314453125
-0.42906791015625,-0.10997339111328125,1.0894499755859375
-0.44073884765625,-0.0533575244140625,1.058729150390625
-0.45435494140625,-0.1700205224609375,0.8471241064453126
-0.28074974609375003,-0.18350049072265626,0.6136458349609375
-0.11857234375,-0.2013920849609375,0.5792385107421875
-0.2591098828125,-0.13325697265625,0.765283828125
-0.3009307421875,-0.03987755615234375,0.9950756005859375
-0.3797095703125,-0.06095532470703125,1.2285538720703124
-0.53070232421875,-0.00850599365234375,1.252884765625
-0.39210994140625,-0.022476142578125,1.1489254931640625
-0.2766162890625,-0.0915916162109375,1.0307117578125
-0.4001337109375,-0.06683749267578125,1.0412797216796874
-0.38141158203125003,-0.17026561279296876,1.03562708984375
-0.46481015625,-0.18350049072265626,0.8834975634765625
-0.298499296875,-0.07517056396484376,0.82721701171875
-0.2610550390625,-0.1719812451171875,0.7625803955078125
-0.32451576171875,-0.13693332763671875,0.719571240234375
-0.190543125,-0.19330410400390624,0.7227662060546876
-0.19370400390625,-0.21193096923828125,0.6765620849609375
-0.26713365234374997,-0.1945295556640625,0.734317236328125
-0.27442798828125,-0.12149263671875,0.7783094580078125
-0.23649744140625,-0.09404251953125001,0.85474287109375
-0.312115390625,-0.0200252392578125,0.916184521484375
-0.391866796875,0.07433453857421875,1.0078554638671875
-0.358799140625,0.05129604736328125,1.0756870458984376
-0.422989296875,0.049090234375,0.9085657568359375
-0.28804408203125,0.12433296630859375,0.8368019091796874
-0.36439146484375,0.03757098876953125,0.8751414990234375
-0.45313921875,0.0373258984375,0.9709904736328125
-0.2250696484375,0.02041466552734375,0.9756600390625
-0.154557734375,-0.091101435546875,0.97467697265625
-0.15820490234375,-0.087179990234375,1.0319405908203125
-0.098148203125,-0.05017135009765625,1.0717547802734375
-0.2163164453125,-0.13448242431640625,1.224867373046875
-0.54091439453125,0.012816865234374999,1.3730646337890624
-0.72546109375,-0.0180645166015625,1.2609950634765625
-0.52000396484375,-0.0994345068359375,1.0461950537109375
-0.31697828125,-0.0327699365234375,1.0058893310546875
-0.4507077734375,-0.0724745703125,0.9852449365234375
-0.42663646484375,-0.13056097900390626,1.03661015625
-0.30555048828125,-0.17247142578125,1.012525029296875
-0.2766162890625,-0.124433720703125,1.035135556640625
-0.35417939453125,-0.1866866650390625,1.0110504296875
-0.13097271484375,-0.140119501953125,1.0447204541015624
-0.11784291015625001,-0.1430605859375,1.221426640625
-0.57981751953125,-0.04919098876953125,1.2270792724609374
-0.56668771484375,-0.163648173828125,1.0221099267578124
-0.34785763671875003,-0.12222790771484375,0.9238032861328125
-0.4614061328125,-0.1337471533203125,0.8756330322265625
-0.41253408203124997,-0.15163874755859374,0.914218388671875
-0.362689453125,-0.2376654541015625,0.9587021435546875
-0.34591248046875,-0.15678564453125,0.985490703125
-0.3116291015625,-0.16830489013671876,0.95108337890625
-0.2960678515625,-0.118551552734375,0.9360916162109375
-0.2795340234375,-0.10188541015625,0.869980400390625
-0.23212083984375,-0.1337471533203125,0.9021758251953125
-0.2853694921875,-0.04085791748046875,0.9537868115234375
-0.34493990234375,-0.12909043701171874,0.80558955078125
-0.403537734375,-0.0175743359375,0.8028861181640625
-0.38481560546875,-0.1004148681640625,0.7144101416015625
-0.30311904296875003,-0.06291604736328126,0.7262069384765625
-0.31041337890625,0.0495804150390625,0.8948028271484375
-0.438550546875,-0.08423890625,0.9129895556640625
-0.42225986328125,-0.10752248779296875,0.8340984765625
-0.38967849609375,-0.1092381201171875,0.6829520166015625
-0.29533841796875,-0.0425735498046875,0.525907158203125
-0.09985021484375001,-0.15261910888671876,0.3954050927734375
-0.0363894921875,-0.15605037353515624,0.3880320947265625
8.218750000000066e-05,-0.12149263671875,0.3624723681640625
0.032420410156249996,-0.12149263671875,0.4519314111328125
0.0005684765624999998,-0.196980458984375,0.618315400390625
-0.13972591796875,-0.13791368896484374,0.8721922998046875
-0.3913805078125,-0.1876670263671875,1.0884669091796875
-0.1550440234375,0.197124794921875,1.5097108642578125
-0.21315556640625,0.473586689453125,1.9609383447265625
-0.4633512890625,0.5956416748046875,2.098813408203125
-0.76412107421875,0.4329016943359375,1.8697589355468751
-0.6199363671875,0.265750087890625,1.1548238916015625
-0.5450478515625,0.1319307666015625,0.7515208984375
-0.24525064453125,-0.1778634130859375,0.46544857421874997
0.001541054687499998,-0.154824921875,0.29955611816406247
0.0156434375,-0.1298257080078125,0.2985730517578125
0.0229377734375,-0.1229631787109375,0.324870078125
0.0545465625,-0.09796396484375,0.5873488085937499
-0.312115390625,-0.17810850341796874,0.94223578125
-0.56279740234375,-0.26536066162109373,1.5222449609375
-0.95134236328125,-0.004829638671875,2.129718558349609
-0.61580291015625,0.47922376708984377,2.0059136328125
-0.50979189453125,-0.06242586669921875,1.66872185546875
-0.45873154296875,-0.236194912109375,1.1410609619140626
-0.53313376953125,-0.26781156494140623,0.886692529296875
-0.2921775390625,-0.31682963134765624,0.521974892578125
-0.16744439453124998,-0.2621744873046875,0.354853603515625
-0.07067287109375,-0.20408807861328124,0.20739364257812498
-0.10714455078125,-0.23791054443359375,0.2587588623046875
-0.2153438671875,-0.29183041748046873,0.5104238623046875
-0.41593810546875,-0.14894275390625,0.82328474609375
-0.5601228125,-0.10262068115234375,1.187510849609375
-0.7376183203125,-0.08423890625,1.4890664697265625
-0.80351048828125,-0.0254172265625,1.435243583984375
-0.34785763671875003,-0.08448399658203125,1.1882481494140624
-0.1686601171875,-0.012672529296875,1.1504000927734375
-0.3126016796875,0.0221302978515625,0.88226873046875
-0.1715778515625,-0.1925688330078125,0.8537598046875
-0.035173769531249996,-0.0415931884765625,0.864082001953125
-0.166228671875,-0.050661530761718754,0.8780906982421874
-0.2775888671875,-0.042083369140625,0.902913125
-0.19370400390625,-0.0200252392578125,0.9638632421875
-0.16890326171875,0.03855135009765625,1.0093300634765625
-0.51805880859375,-0.03105430419921875,0.9424815478515625
-0.51416849609375,0.0584036669921875,0.7011387451171875
-0.2630001953125,-0.01046671630859375,0.57948427734375
-0.27199654296875,0.00178780029296875,0.544585419921875
-0.304334765625,0.07629526123046874,0.5667044140624999
-0.3709563671875,0.03266918212890625,0.5404073876953125
-0.36147373046875,0.02580665283203125,0.43792271484375
-0.32159802734375,-0.028358310546875,0.395159326171875
-0.10665826171875001,-0.02664267822265625,0.4583213427734375
0.0511425390625,-0.14036459228515624,0.8200897802734375
0.20213529296875,-0.123453359375,1.3828952978515625
0.1493729296875,0.20766367919921874,2.129718558349609
-0.895662265625,-0.15359947021484374,1.591059609375
-0.42906791015625,0.096147578125,1.0597122167968749
-0.61045373046875,-0.0999246875,1.021372626953125
-0.28561263671875,0.32628739990234373,1.49570216796875
-0.56984859375,0.29540601806640626,1.5583726513671876
-0.483289140625,0.21158512451171874,1.2509186328125
-0.4156949609375,0.056933125,0.787402822265625
-0.46286499999999997,-0.1190417333984375,0.4288293505859375
-0.36244630859375,-0.13448242431640625,0.2961153857421875
-0.2153438671875,-0.22320512451171876,0.3501840380859375
0.13113708984375,-0.10556176513671875,0.8318865771484375
0.224747734375,-0.0092412646484375,1.4713712744140626
-0.59002958984375,-0.04428918212890625,2.078169013671875
-0.74953240234375,-0.30187912109375,1.3175213818359375
-0.51368220703125,-0.32810378662109374,0.965337841796875
-0.543588984375,-0.13595296630859374,0.7876485888671875
-0.292663828125,-0.28300716552734373,0.8309035107421875
-0.19564916015625,-0.10262068115234375,1.013508095703125
-0.56206796875,-0.18644157470703124,0.976151572265625
-0.422989296875,-0.340113212890625,0.841471474609375
-0.327676640625,-0.390111640625,0.7456225
-0.09936392578125,-0.26192939697265627,0.7281730712890625
-0.04003666015625,-0.068553125,0.767741494140625
-0.04830357421875,-0.120512275390625,0.9056165576171875
-0.19321771484375,-0.1043363134765625,1.1302472314453125
-0.43101306640625,-0.20776443359375,1.2332234375
-0.5508833203125,-0.136198056640625,1.083305810546875
-0.52972974609375,-0.138158779296875,0.747097099609375
-0.37898013671874997,-0.1901179296875,0.528856357421875
-0.27442798828125,-0.20555862060546876,0.4566009765625
-0.3155194140625,-0.19722554931640626,0.5431108203125
-0.31041337890625,-0.2717330102539062,0.6178238671875
-0.36876806640625,-0.1102184814453125,0.9100403564453124
-0.28707150390625,-0.00605509033203125,1.010558896484375
-0.203186640625,0.02041466552734375,1.0978060400390626
-0.21169669921875,0.03928662109375,1.18308705078125
-0.2503566796875,0.087324326171875,1.178663251953125
-0.17765646484375,0.0074248779296875,1.2074179443359374
-0.4915560546875,0.014777587890624999,1.1484339599609374
-0.31576255859375,0.08217742919921875,1.1213996337890624
-0.43295822265625,-0.013407800292968751,0.9414984814453125
-0.4915560546875,0.028502646484374998,0.84786140625
-0.4045103125,-0.08227818359375,0.70629984375
-0.2406308984375,-0.09183670654296874,0.6195442333984374
-0.37703498046875,-0.1062970361328125,0.53328015625
-0.312115390625,-0.1219828173828125,0.5713739794921875
-0.11298001953125,-0.2190385888671875,0.5627721484375
-0.08185751953125,-0.2190385888671875,0.6642737548828125
-0.16185207031249998,-0.07713128662109375,0.703842177734375
-0.32013916015625,-0.15752091552734376,0.843929140625
-0.2766162890625,-0.1352176953125,0.9953213671875
-0.37508982421875,-0.061690595703125004,1.016457294921875
-0.185680234375,-0.0298288525390625,0.95501564453125
-0.314060546875,-0.124433720703125,0.91569298828125
-0.37460353515625,-0.0376717431640625,0.9677955078125
-0.2814791796875,-0.16879507080078124,0.9365831494140625
-0.34421046875,-0.189137568359375,0.8476156396484374
-0.33253953125,-0.0543378857421875,0.862115869140625
-0.32646091796875,-0.26536066162109373,0.80165728515625
-0.107873984375,-0.24477307373046875,0.7620888623046875
-0.03711892578125,-0.25359632568359375,0.7881401220703125
-0.18349193359375,-0.1759026904296875,0.7851909228515626
-0.17619759765625,-0.13693332763671875,0.722520439453125
-0.15747546875,-0.0092412646484375,0.8908705615234375
-0.103983671875,-0.12075736572265625,1.186527783203125
-0.2542469921875,0.1338914892578125,1.623009267578125
-0.4332013671875,0.35716878173828126,1.7721895947265625
-0.51708623046875,0.38633453125,1.649552060546875
-0.6612709375,0.12188206298828125,1.2678765283203126
-0.47866939453125,0.189281904296875,0.8952943603515625
-0.44851947265625003,-0.12149263671875,0.6490362255859374
-0.15625974609374998,-0.234234189453125,0.4293208837890625
-0.13948277343749999,-0.208744794921875,0.338141474609375
-0.0918264453125,-0.10850284912109374,0.402040791015625
-0.2056180859375,-0.201882265625,0.503296630859375
-0.1171134765625,-0.20604880126953126,1.016948828125
-0.378250703125,-0.0827683642578125,1.5706609814453125
-0.8008358984375,-0.011201987304687501,1.7417145361328126
-0.59489248046875,0.20570295654296875,1.6048225390625
-0.564013125,0.1035002880859375,1.3106399169921874
-0.39843169921875,0.03266918212890625,1.0147369287109376
-0.27151025390625,-0.21585241455078125,0.871455
-0.21801845703125,-0.2092349755859375,0.71711357421875
-0.20391607421875,-0.2190385888671875,0.582925009765625
-0.36974064453125,-0.17712814208984376,0.5964421728515625
-0.42760904296875,-0.15801109619140624,0.6259341650390625
-0.156502890625,-0.00360418701171875,0.86850580078125
-0.4409819921875,-0.10752248779296875,1.14671359375
-0.62698755859375,-0.07173929931640625,1.22830810546875
-0.44535859375,-0.07320984130859375,1.1390948291015626
-0.46602587890625,-0.0749254736328125,0.9599309765625
-0.286828359375,-0.08963089355468751,0.810996416015625
-0.22701480468750002,-0.1053166748046875,0.8127167822265625
-0.20197091796875,-0.02958376220703125,0.8795652978515625
-0.3252451953125,-0.0631611376953125,1.016948828125
-0.2581373046875,0.0289928271484375,1.098051806640625
-0.2746711328125,0.04002189208984375,1.0614325830078124
-0.386031328125,-0.0006631030273437505,1.1027213720703124
-0.42663646484375,-0.06659240234375,1.074458212890625
-0.35612455078125,-0.0072805419921875,0.9351085498046875
-0.38773333984375,-0.1455114892578125,0.6863927490234375
-0.29193439453125003,-0.1660990771484375,0.555399150390625
-0.187625390625,-0.07835673828125,0.4091680224609375
-0.07869664062500001,-0.1768830517578125,0.353870537109375
-0.060460800781250004,-0.21168587890625,0.3433025732421875
-0.19224513671875,-0.123453359375,0.477736904296875
-0.28561263671875,0.03953171142578125,0.5861199755859375
-0.26056875,0.1079119140625,0.8348357763671875
-0.16914640625,0.20815385986328125,1.2418252685546876
-0.1268392578125,0.2162418408203125,1.8994966943359375
-0.45289607421875,0.18854663330078125,2.129718558349609
-0.51173705078125,-0.05850442138671875,1.5957291748046876
-0.3942982421875,0.03904153076171875,0.99630443359375
-0.38578818359375,-0.075415654296875,0.8471241064453126
-0.17133470703125,0.0799716162109375,0.8623616357421875
-0.33181009765625,0.05521749267578125,0.8773533984374999
-0.19759431640625,0.0008074389648437498,0.88423486328125
-0.4332013671875,-0.0553182470703125,0.7409529345703125
-0.506631015625,-0.08619962890625,0.5905437744140625
-0.45143720703125,-0.17835359375,0.4715927392578125
-0.055354765624999996,-0.05360261474609375,0.4509483447265625
0.0258555078125,0.08315779052734375,0.979100771484375
-0.3369161328125,0.2231043701171875,1.42295525390625
-0.652517734375,0.0486000537109375,1.6756033203125
-0.5100350390625,-0.1768830517578125,1.3563525048828124
-0.343237890625,-0.23594982177734375,0.8952943603515625
-0.0918264453125,-0.139139140625,0.7537327978515624
-0.1229489453125,-0.30310457275390623,0.8977520263671875
-0.16914640625,-0.161687451171875,1.032186357421875
-0.20926525390625,-0.17467723876953126,1.0818312109375
-0.35028908203125,-0.24820433837890626,1.104933271484375
-0.2542469921875,-0.21634259521484375,1.103950205078125
-0.3699837890625,-0.169530341796875,1.0855177099609374
-0.2454937890625,-0.05899460205078125,1.1975872802734375
-0.42955419921875,-0.14330567626953125,1.2550966650390625
-0.40329458984375,-0.0523771630859375,1.222901240234375
-0.38238416015625,-0.0009081933593750001,0.984016103515625
-0.34056330078125,0.0848734228515625,0.8407341748046875
-0.28366748046875,-0.08350363525390625,0.822793212890625
-0.265431640625,0.0054641552734375,0.917167587890625
-0.24087404296875,0.01159141357421875,0.9459222802734375
-0.377278125,-0.15703073486328126,0.916184521484375
-0.33375525390625,-0.09281706787109376,0.893573994140625
-0.3057936328125,-0.00262382568359375,0.755944697265625
-0.20877896484375,-0.09624833251953124,0.7704449267578125
-0.45386865234375,-0.00777072265625,0.8780906982421874
-0.38384302734375,0.09198104248046875,0.995812900390625
-0.43830740234375,0.0142874072265625,0.8761245654296875
-0.2746711328125,-0.0043394580078125,0.843437607421875
-0.3301080859375,-0.02909358154296875,0.7099863427734375
-0.11930177734375,0.04835496337890625,0.8033776513671875
-0.18397822265625,0.0530116796875,0.880794130859375
-0.28391062499999997,0.067717099609375,1.0481611865234375
-0.29339326171875,0.208889130859375,1.1703071875
-0.393811953125,0.1289896826171875,1.096085673828125
-0.25546271484375,0.01698340087890625,0.9567360107421875
-0.2785614453125,0.00472888427734375,0.9768888720703125
-0.3233000390625,-0.0121823486328125,0.99433830078125
-0.2902323828125,-0.0063001806640625,0.8279543115234375
-0.26421591796875,-0.04183827880859375,0.8490902392578125
-0.34226531250000003,0.0682072802734375,0.9881941357421875
-0.26372962890625,-0.083258544921875,1.038084755859375
-0.33035123046875,0.04247279541015625,1.145238994140625
-0.203186640625,0.077520712890625,1.1803836181640626
-0.36293259765625,0.09149086181640625,1.16342572265625
-0.368524921875,0.0133070458984375,1.1179589013671876
-0.32500205078125,-0.1043363134765625,1.01399962890625
-0.34834392578125,-0.1886473876953125,0.93732044921875
-0.39867484375,-0.0259074072265625,0.717605107421875
-0.28366748046875,-0.16879507080078124,0.528856357421875
-0.19832375,-0.1925688330078125,0.40277809082031246
-0.1482359765625,-0.14698203125,0.4111341552734375
-0.1988100390625,-0.01169216796875,0.517059560546875
-0.27588685546875,0.04198261474609375,0.73087650390625
-0.48766574218750003,0.04394333740234375,0.9292101513671875
-0.5129527734375,0.08462833251953125,0.98057537109375
-0.18835482421875,0.01845394287109375,1.0240760595703124
-0.23844259765625,0.04884514404296875,0.9980247998046875
-0.125380390625,0.07041309326171875,0.999745166015625
-0.2800203125,0.0427178857421875,1.0621698828125
-0.30409162109375,0.11011772705078125,1.1248403662109374
-0.2255559375,0.21648693115234374,1.137374462890625
-0.47429279296875,0.1784979296875,1.0899415087890625
-0.3427516015625,0.1887917236328125,1.154086591796875
-0.277102578125,0.1113431787109375,1.0759328125
-0.3835998828125,-0.03914228515625,0.871946533203125
-0.170118984375,0.0294830078125,0.7807671240234375
-0.1939471484375,0.03928662109375,0.7758517919921875
-0.42323244140625,-0.00703545166015625,0.8250051123046875
-0.249870390625,0.05864875732421875,1.0068723974609375
-0.36366203125,0.0608545703125,0.9380577490234375
-0.40329458984375,0.0069346972656249995,0.7928096875
-0.25157240234375,-0.01683906494140625,0.835573076171875
-0.17303671874999998,-0.030319033203124998,0.7822417236328125
-0.2182616015625,0.03413972412109375,0.8092760498046875
-0.34737134765625,0.04884514404296875,0.9508376123046876
-0.29971501953125,0.0270321044921875,0.9921264013671875
-0.28318119140625,0.13217585693359374,0.9488714794921875
-0.362689453125,0.1652630517578125,0.8812856640625
-0.174009296875,0.08217742919921875,0.9577190771484375
-0.31333111328125,0.071638544921875,1.0245675927734375
-0.27394169921875,0.130460224609375,1.1258234326171874
-0.29874244140625,0.1054610107421875,1.0739666796875
-0.3437241796875,0.06011929931640625,1.0700344140625
-0.09693248046875,0.099088662109375,1.10640787109375
-0.2289599609375,-0.02125069091796875,1.0914161083984375
-0.2766162890625,0.08756941650390625,1.204222978515625
-0.37071322265625,0.02360083984375,1.089204208984375
-0.29874244140625,0.06943273193359376,0.9945840673828125
-0.36147373046875,0.00570924560546875,0.8557259375
-0.21704587890625,-0.030319033203124998,0.800182685546875
-0.27442798828125,-0.02223105224609375,0.72891037109375
-0.3485870703125,0.0142874072265625,0.878827998046875
-0.199296328125,0.1113431787109375,0.907336923828125
-0.34542619140624997,0.122617333984375,0.8839890966796875
-0.2027003515625,0.171635400390625,0.959439443359375
-0.44997833984375,0.118695888671875,0.926998251953125
-0.18981369140625,0.2348687060546875,1.0162115283203126
-0.21023783203125002,0.116735166015625,0.9638632421875
-0.2960678515625,0.06796218994140625,0.9655836083984375
-0.2133987109375,0.04712951171875,1.043983154296875
-0.22968939453125,0.065756376953125,1.0943653076171875
-0.40232201171875,0.0417375244140625,1.0402966552734374
-0.23819945312500002,0.1387932958984375,1.151137392578125
-0.33983386718749997,0.05521749267578125,1.0732293798828125
-0.37533296875,0.04394333740234375,1.0368559228515626
-0.2698082421875,0.16305723876953124,1.068559814453125
-0.3660934765625,0.02531647216796875,0.9808211376953125
-0.25400384765625,0.11771552734375,0.944693447265625
-0.15577345703125,0.05864875732421875,0.9434646142578125
-0.360744296875,0.0064445166015625,0.928964384765625
-0.26616107421875,0.0505607763671875,1.0582376171875
-0.2630001953125,0.08242251953125,0.9891772021484375
-0.33642984375,-0.006790361328125,0.9021758251953125
-0.26372962890625,0.10987263671875,0.9641090087890625
-0.3135742578125,0.02972809814453125,0.831640810546875
-0.2853694921875,0.0711483642578125,0.7640549951171876
-0.24525064453125,0.016738310546875,0.769707626953125
-0.2435486328125,0.0191892138671875,0.874895732421875
-0.2532744140625,0.062080021972656246,0.92945591796875
-0.2435486328125,0.13462676025390624,0.86064126953125
-0.22361078125,0.0976181201171875,0.84786140625
-0.28609892578125,0.17237067138671874,0.928964384765625
-0.3476144921875,0.24246650634765626,0.9896687353515625
-0.2591098828125,0.07678544189453125,0.9242948193359375
-0.3592854296875,0.16305723876953124,0.8223016796875
-0.21193984375,0.174576484375,0.7861739892578125
-0.2299325390625,0.0927163134765625,0.6886046484375
-0.2805066015625,0.0711483642578125,0.682214716796875
-0.237226875,0.0211499365234375,0.6446124267578125
-0.2484115234375,0.0956573974609375,0.7168678076171875
-0.205131796875,0.0878145068359375,0.7807671240234375
-0.32013916015625,0.02360083984375,0.850319072265625
-0.1171134765625,0.159871064453125,0.9518206787109375
-0.37217208984375,0.06011929931640625,0.9542783447265625
-0.27151025390625,0.13070531494140625,1.093136474609375
-0.27248283203125,0.093206494140625,1.1248403662109374
-0.3252451953125,0.10619628173828125,1.11427240234375
-0.23212083984375,0.18315464599609374,1.0565172509765626
-0.36341888671875,-0.01144707763671875,0.9685328076171875
-0.31284482421875,0.21942801513671875,1.067576748046875
-0.2678630859375,0.0995788427734375,1.0501273193359375
-0.3339983984375,0.13805802490234376,1.0982975732421876
-0.44025255859375,0.11599989501953126,1.11230626953125
-0.23917203125,0.021640117187500002,1.084288876953125
-0.2425760546875,-0.04919098876953125,0.967303974609375
-0.27296912109375,0.10815700439453126,0.9424815478515625
-0.23309341796875,-0.0210056005859375,0.914218388671875
-0.46019041015625,0.0093856005859375,1.1272980322265624
-0.35272052734375,0.07825598388671876,1.3145721826171874
-0.4045103125,-0.01683906494140625,1.2595204638671875
-0.39843169921875,0.03561026611328125,1.1504000927734375
-0.28366748046875,-0.02468195556640625,1.086255009765625
-0.3631757421875,-0.0533575244140625,1.024813359375
-0.25886673828125,-0.03644629150390625,1.0103131298828125
-0.3563676953125,0.065756376953125,1.0073639306640625
-0.47137505859375,0.05570767333984375,0.8943112939453125
-0.24306234375,0.030708459472656248,0.72104583984375
-0.210967265625,-0.032279755859375,0.6210188330078125
-0.2678630859375,0.10766682373046875,0.6903250146484375
-0.28561263671875,-0.03987755615234375,0.7365291357421875
-0.2736985546875,0.05570767333984375,0.977626171875
-0.36220316406249997,0.12482314697265626,1.1641630224609374
-0.3738741015625,0.08854977783203125,1.1828412841796876
-0.39648654296875,0.07727562255859374,1.12803533203125
-0.32159802734375,0.09443194580078125,1.1386032958984376
-0.26713365234374997,0.0593840283203125,0.9835245703125
-0.35417939453125,0.02752228515625,0.9356000830078125
-0.24816837890625,0.13266603759765624,0.9660751416015625
-0.35806970703125,0.03144373046875,0.848352939453125
-0.23990146484375,0.04786478271484375,0.839996875
-0.3967296875,-0.0229663232421875,0.7684787939453125
-0.24306234375,-0.012672529296875,0.7527497314453125
-0.27831830078124997,-0.04723026611328125,0.6760705517578125
-0.26372962890625,0.0133070458984375,0.7262069384765625
-0.18689595703125,0.053992041015625,0.854251337890625
-0.37022693359375003,-0.0229663232421875,1.0167030615234376
-0.294608984375,0.1809488330078125,1.15752732421875
-0.315033125,0.0486000537109375,1.1474508935546874
-0.33983386718749997,0.104970830078125,1.166866455078125
-0.24233291015625,0.1074217333984375,1.0759328125
-0.31187224609374997,0.06673673828125,1.023338759765625
-0.20245720703125,0.1191860693359375,1.181612451171875
-0.444386015625,0.01575794921875,1.131476064453125
-0.30798193359375,0.09835339111328124,1.0395593554687501
-0.2610550390625,0.0672269189453125,0.84097994140625
-0.199296328125,-0.03693647216796875,0.7335799365234374
-0.24476435546875,0.03315936279296875,0.6932742138671875
-0.18008791015625,-0.0646316796875,0.78002982421875
-0.2678630859375,-0.10065995849609374,0.8267254785156251
-0.22823052734375,0.06943273193359376,1.0309575244140625
-0.33715927734375,-0.04526954345703125,1.16735798828125
-0.387976484375,0.0329142724609375,1.2752495263671875
-0.21023783203125002,0.04124734375,1.16342572265625
-0.300444453125,-0.040122646484374996,1.0201437939453124
-0.27734572265625,0.0750698095703125,1.138357529296875
-0.40134943359374997,0.03855135009765625,1.0149826953125
-0.18640966796875,0.02776737548828125,0.886692529296875
-0.2425760546875,-0.00213364501953125,0.776589091796875
-0.27005138671875,0.1927131689453125,0.7829790234375
-0.2878009375,-0.015368522949218751,0.751029365234375
-0.22239505859375,0.10913736572265625,0.8859552294921875
-0.34810078125,-0.0006631030273437505,1.0796193115234376
-0.39502767578125,0.00227798095703125,1.2147909423828125
-0.2377131640625,0.11452935302734375,1.2233927734375
-0.36001486328125,0.09737302978515625,1.16735798828125
-0.33813185546875,0.0530116796875,1.1565442578125
-0.44171142578125,-0.0016434643554687498,1.0948568408203125
-0.1851939453125,0.03266918212890625,1.095594140625
-0.44171142578125,-0.01683906494140625,0.8778449316406249
-0.17279357421875,0.03315936279296875,0.8313950439453125
-0.21972046875,-0.08840544189453126,0.802148818359375
-0.279047734375,0.02752228515625,1.019406494140625
-0.37654869140625,-0.15408965087890625,0.9626344091796875
-0.38724705078125,-0.0798272802734375,0.9749227392578125
-0.31722142578125,-0.042083369140625,0.883251796875
-0.27345541015625,-0.0415931884765625,0.8087845166015625
-0.360744296875,0.01012087158203125,0.8377849755859375
-0.358799140625,0.03708080810546875,0.9744312060546875
-0.2873146484375,0.00619942626953125,0.9186421875
-0.337402421875,-0.03546593017578125,0.8616243359375
-0.2406308984375,0.1574201611328125,0.934862783203125
-0.29169125,0.0848734228515625,0.92355751953125
-0.30627992187499997,0.07825598388671876,1.0329236572265625
-0.3009307421875,0.0946770361328125,0.992863701171875
-0.40572603515625,-0.00581,0.9186421875
-0.17814275390625,-0.03914228515625,0.819844013671875
-0.335457265625,0.0250713818359375,0.6984353125
-0.19419029296875,-0.07860182861328124,0.76823302734375
-0.3738741015625,-0.11757119140625,0.92159138671875
-0.463837578125,0.01306195556640625,1.0383305224609374
-0.30798193359375,-0.04723026611328125,1.005643564453125
-0.39867484375,0.14737145751953126,1.012525029296875
-0.18349193359375,0.05619785400390625,0.9709904736328125
-0.25862359375,-0.01193725830078125,0.929947451171875
-0.30214646484375,0.0074248779296875,0.8301662109375
-0.18884111328125,-0.07124911865234375,0.8736668994140625
-0.2571647265625,-0.0151234326171875,0.999745166015625
-0.55209904296875,-0.01732924560546875,1.0034316650390624
-0.3476144921875,-0.09379742919921875,0.90586232421875
-0.277102578125,-0.03056412353515625,0.9095488232421876
-0.333512109375,-0.0043394580078125,0.93928658203125
-0.236254296875,-0.14379585693359376,0.966320908203125
-0.35855599609375,-0.04330882080078125,0.973202373046875
-0.2177753125,0.0976181201171875,0.9754142724609375
-0.26616107421875,-0.07468038330078125,0.8564632373046875
-0.37995271484375,-0.014633251953124999,0.9380577490234375
-0.29339326171875,-0.035711020507812496,0.9614055761718749
-0.2668905078125,-0.07811164794921875,0.8790737646484375
-0.368524921875,-0.0719843896484375,0.8262339453125
-0.25351755859375,-0.045024453125,0.814928681640625
-0.3592854296875,-0.12761989501953125,0.781012890625
-0.210967265625,-0.14281549560546875,0.829674677734375
-0.09644619140624999,-0.0621807763671875,0.76626689453125
-0.27831830078124997,-0.16585398681640626,0.6613245556640625
-0.21193984375,-0.2062938916015625,0.6062728369140625
-0.21193984375,-0.15752091552734376,0.6500192919921874
-0.148722265625,0.03217900146484375,0.83311541015625
-0.1088465625,0.16060633544921876,1.20668064453125
-0.28658521484375,0.3566786010742187,1.663314990234375
-0.5224354101562501,0.31109179931640624,1.9240733544921875
-0.60656341796875,0.2260454541015625,1.6714252880859375
-0.55793451171875,0.23217271240234374,1.200290712890625
-0.3072525,0.0191892138671875,0.84097994140625
-0.07310431640625001,-0.22173458251953124,0.6249510986328125
-0.072861171875,-0.23251855712890626,0.438414248046875
-0.0480604296875,-0.22320512451171876,0.4769996044921875
-0.02058509765625,-0.2293323828125,0.7994453857421875
-0.3670660546875,-0.2474690673828125,1.3086737841796876
-0.76168962890625,-0.03595611083984375,1.7033749462890624
-0.6919071484375,0.15668489013671874,1.6542216259765625
-0.54772244140625,0.06060947998046875,1.3465218408203126
-0.40086314453125,-0.01585870361328125,0.9179048876953125
-0.24476435546875,-0.17835359375,0.6033236376953125
-0.23212083984375,-0.16634416748046876,0.4878133349609375
-0.13534931640625,-0.212666240234375,0.3229039453125
-0.03079716796875,-0.19281392333984376,0.3668961669921875
-0.0636216796875,-0.2768799072265625,0.6917996142578124
-0.29776986328125,-0.21536223388671874,1.0692971142578125
-0.4978778125,7.216796875000007e-05,1.35414060546875
-0.6145871875,0.07678544189453125,1.560093017578125
-0.4030514453125,0.07261890625,1.238630302734375
-0.3369161328125,0.03462990478515625,1.12410306640625
-0.31624884765625,0.16477287109375,1.043983154296875
-0.30409162109375,-0.006790361328125,0.9660751416015625
-0.19321771484375,0.05178622802734375,1.0461950537109375
-0.31965287109375,0.02360083984375,0.93732044921875
-0.2921775390625,-0.13056097900390626,0.8616243359375
-0.2255559375,-0.15286419921875,0.765775361328125
-0.24573693359375,-0.18031431640625,0.6279002978515625
-0.1200312109375,-0.0690433056640625,0.6082389697265624
-0.3427516015625,-0.08154291259765625,0.577026611328125
-0.2980130078125,-0.030319033203124998,0.48904216796875
-0.2075632421875,-0.07271966064453125,0.41039685546875
-0.2022140625,-0.12124754638671875,0.588331875
-0.0996070703125,-0.07419020263671874,0.79575888671875
0.1231133203125,-0.1249239013671875,1.286800556640625
0.10244603515625,0.16697868408203126,2.0386005908203124
-0.741994921875,0.34515935546875,2.129718558349609
-0.44730375,0.22138873779296875,1.7466298681640624
-0.621395234375,0.189281904296875,1.539448623046875
-0.5314317578125,-0.07615092529296875,1.417548388671875
-0.15625974609374998,0.2098694921875,1.1676037548828124
-0.349073359375,-0.01561361328125,0.70531677734375
-0.16720125,-0.11928682373046876,0.5551533837890625
-0.30409162109375,-0.11487519775390626,0.432515849609375
-0.34032015625,-0.1229631787109375,0.3347007421875
-0.3213548828125,-0.22026404052734375,0.31209021484375
-0.12246265625,-0.1259042626953125,0.5861199755859375
-0.113709453125,0.04639424072265625,0.9911433349609375
-0.3806821484375,0.2387901513671875,1.3020380859375
-0.6987151953125,0.00865032958984375,1.2855717236328126
-0.54650671875,-0.14771730224609375,1.1213996337890624
-0.26154132812499997,-0.21560732421875,0.8363103759765624
-0.14264365234375,-0.04379900146484375,0.93535431640625
-0.206104375,-0.2631548486328125,1.1037044384765624
-0.39600025390625,-0.1445311279296875,1.1005094726562499
-0.3553951171875,-0.18399067138671876,0.8422087744140625
-0.19248828125,-0.245998525390625,0.6126627685546875
-0.16549923828125,-0.09722869384765626,0.55982294921875
-0.01085931640625,-0.11438501708984375,0.644858193359375
-0.04441326171875,-0.042328459472656246,0.9852449365234375
-0.32597462890625,-0.0661022216796875,1.3342335107421874
-0.48158712890625,0.0059543359375,1.4979140673828124
-0.471618203125,0.07727562255859374,1.4099296240234376
-0.46019041015625,0.0574233056640625,1.006626630859375
-0.23455228515625,0.0922261328125,0.7812586572265625
-0.2338228515625,-0.016593974609375,0.8043607177734375
-0.2873146484375,-0.11193411376953125,0.814928681640625
-0.426879609375,0.014777587890624999,0.8707177001953125
-0.244034921875,-0.11046357177734376,0.6863927490234375
-0.07942607421875,-0.067572763671875,0.5856284423828125
-0.103983671875,-0.05605351806640625,0.6497735253906249
-0.3242726171875,-0.0170841552734375,0.9110234228515625
-0.35417939453125,0.07776580322265625,1.127052265625
-0.335457265625,0.1309504052734375,1.2585373974609375
-0.50541529296875,0.095167216796875,1.2280623388671874
-0.3680386328125,0.07825598388671876,1.1302472314453125
-0.312115390625,0.0603643896484375,1.11034013671875
-0.33035123046875,0.0299731884765625,1.04349162109375
-0.35758341796875,-0.02223105224609375,0.9665666748046875
-0.20829267578125,-0.0170841552734375,0.991880634765625
-0.30798193359375,-0.07909200927734375,1.0228472265625
-0.27272597656249997,-0.02174087158203125,1.0368559228515626
-0.16793068359375,0.0348749951171875,1.0417712548828124
-0.26129818359375,-0.13595296630859374,1.0255506591796875
-0.341292734375,0.057913486328125,1.1258234326171874
-0.26421591796875,-0.08938580322265625,1.07298361328125
-0.35417939453125,-0.0837487255859375,1.0280083251953125
-0.27053767578125,-0.0259074072265625,1.152120458984375
-0.333512109375,-0.14330567626953125,1.210121376953125
-0.32646091796875,-0.03252484619140625,1.213070576171875
-0.3874901953125,-0.10727739746093751,0.9803296044921875
-0.360744296875,-0.11144393310546875,0.950591845703125
-0.2882872265625,-0.08938580322265625,0.9405154150390624
-0.4400094140625,-0.1347275146484375,0.9196252539062499
-0.20415921875,-0.0719843896484375,0.85867513671875
-0.310170234375,-0.11536537841796875,0.7247323388671875
-0.19175884765625,-0.01634888427734375,0.7266984716796875
-0.3203823046875,-0.07713128662109375,0.716622041015625
-0.160393203125,-0.01634888427734375,0.848352939453125
-0.27515742187500003,0.02041466552734375,1.04152548828125
-0.3437241796875,0.104970830078125,1.2482152001953124
-0.45484123046875,0.0686974609375,1.2472321337890624
-0.3573402734375,0.06257020263671875,1.1961126806640625
-0.3738741015625,0.0946770361328125,1.0661021484375
-0.40232201171875,-0.04085791748046875,0.93142205078125
-0.25254498046875,-0.11487519775390626,0.8451579736328125
-0.20732009765625,-0.1151202880859375,0.8026403515625
-0.14215736328125,-0.09428760986328125,0.8299204443359375
-0.28950294921874997,-0.114630107421875,0.8852179296875
-0.349073359375,-0.06928839599609375,1.0732293798828125
-0.2892598046875,0.0525214990234375,1.09264494140625
-0.2542469921875,0.09639266845703125,1.0609410498046874
-0.32743349609375,0.0642858349609375,1.0083469970703125
-0.14702025390625,0.108892275390625,1.0334151904296875
-0.34542619140624997,0.05227640869140625,1.0412797216796874
-0.38530189453125,0.096147578125,1.0334151904296875
-0.2192341796875,0.01012087158203125,0.930438984375
-0.347128203125,-0.08301345458984374,0.974185439453125
-0.3602580078125,-0.04379900146484375,1.0815854443359374
-0.3077387890625,-0.09134652587890625,1.1140266357421875
-0.37752126953125,-0.15752091552734376,1.0068723974609375
-0.16793068359375,-0.02223105224609375,0.977134638671875
-0.22385392578125,-0.11585555908203125,0.811979482421875
-0.265431640625,-0.16046199951171874,0.8648193017578125
-0.1530988671875,-0.0415931884765625,1.044966220703125
-0.35806970703125,-0.16977543212890625,1.05233921875
-0.3388612890625,-0.08497417724609375,1.1268064990234374
-0.25157240234375,-0.044044091796875,0.9542783447265625
-0.30214646484375,-0.16193254150390626,0.8240220458984375
-0.2775888671875,-0.0592396923828125,0.8889044287109376
-0.27880458984375,-0.083258544921875,0.8672769677734375
-0.32086859375,-0.079337099609375,0.8200897802734375
-0.19419029296875,0.03144373046875,0.885709462890625
-0.244034921875,0.0294830078125,0.8515479052734375
-0.121490078125,-0.010711806640625,0.934862783203125
-0.3330258203125,0.0005623486328125002,1.053813818359375
-0.23990146484375,0.0008074389648437498,1.119187734375
-0.426879609375,-0.11193411376953125,0.9365831494140625
-0.1166271875,0.0922261328125,1.0353813232421876
-0.292663828125,-0.03301502685546875,1.0899415087890625
-0.37898013671874997,-0.14918784423828124,1.093136474609375
-0.335457265625,-0.04183827880859375,0.8294289111328125
-0.20026890625,-0.126394443359375,0.65223119140625
-0.2484115234375,-0.06144550537109375,0.6180696337890625
-0.185680234375,-0.0219859619140625,0.7257154052734375
-0.25351755859375,-0.0523771630859375,0.7748687255859374
-0.13923962890625,-0.063651318359375,0.7960046533203124
-0.26251390625,-0.07075893798828126,0.7736398925781249
-0.267376796875,0.028502646484374998,0.916184521484375
-0.31989601562500003,0.08756941650390625,0.954524111328125
-0.29874244140625,0.12972495361328126,1.0437373876953124
-0.47648109375000003,0.019434304199218752,1.0810939111328124
-0.37119951171875,0.10276501708984374,1.1243488330078124
-0.18884111328125,0.02139502685546875,1.039067822265625
-0.30798193359375,-0.042083369140625,1.0343982568359376
-0.13972591796875,-0.04968116943359375,1.0189149609375
-0.329621796875,-0.09918941650390625,1.0130165625
-0.38043900390625,-0.01781942626953125,1.02383029296875
-0.22628537109375,-0.010711806640625,0.8279543115234375
-0.32694720703125,-0.0915916162109375,0.6627991552734375
-0.14653396484375,0.04688442138671875,0.80165728515625
-0.14604767578125,-0.0837487255859375,0.8805483642578125
-0.33083751953125,-0.06291604736328126,0.9542783447265625
-0.29096181640625,-0.06095532470703125,1.118696201171875
-0.4045103125,-0.03203466552734375,1.0678225146484375
-0.345183046875,-0.046740085449218746,1.006626630859375
-0.40037685546875,-0.0347306591796875,0.9134810888671875
-0.31989601562500003,-0.0013983740234375002,0.835573076171875
-0.32354318359375,-0.051886982421875,0.6610787890625
-0.27880458984375,-0.0376717431640625,0.5993913720703125
-0.20464550781250002,0.0221302978515625,0.5757977783203125
-0.22677166015625,0.015022678222656249,0.6421547607421875
-0.30020130859375,-0.029338671875,0.7109694091796875
-0.19905318359375002,-0.083258544921875,0.7660211279296875
-0.16501294921875,-0.20163717529296876,0.7741314257812499
0.012482558593749998,-0.24526325439453125,0.8839890966796875
-0.049519296875,-0.224430576171875,1.18701931640625
-0.3660934765625,-0.0332601171875,1.5018463330078125
-0.6306347265625,0.191242626953125,1.591551142578125
-0.5671740039062501,0.0740894482421875,1.4453200146484375
-0.5071173046875,-0.07173929931640625,1.3165383154296875
-0.44560173828125,-0.0347306591796875,1.168832587890625
-0.2221519140625,-0.023456503906250002,1.0063808642578125
-0.23601115234375,0.04835496337890625,0.8422087744140625
-0.3262177734375,0.11845079833984375,0.6470700927734375
-0.3067662109375,0.16354741943359374,0.6190527001953126
-0.11687033203125,-0.08840544189453126,0.7613515625
-0.04441326171875,-0.05556333740234375,1.11820466796875
-0.33229638671875,-0.12909043701171874,1.303512685546875
-0.34883021484375,-0.02468195556640625,1.3553694384765624
-0.34542619140624997,0.09737302978515625,1.2265877392578124
-0.3446967578125,0.0956573974609375,1.201273779296875
-0.35028908203125,0.05374695068359375,1.3293181787109374
-0.38481560546875,0.08217742919921875,1.42688751953125
-0.39940427734375,-0.00458454833984375,1.3897767626953126
-0.35369310546875,0.030708459472656248,1.174239453125
-0.33108066406250003,-0.0386521044921875,0.8879213623046875
-0.15358515625,-0.02125069091796875,0.8112421826171875
-0.15869119140625,-0.1876670263671875,0.895540126953125
-0.2182616015625,-0.259723583984375,0.9680412744140625
-0.23528171875,-0.22957747314453125,0.9356000830078125
-0.27296912109375,-0.19845100097656249,0.770690693359375
