ax,ay,az
-0.26275705078125,0.13340130859375,1.0619241162109374
-0.224583359375,0.05227640869140625,0.950591845703125
-0.2221519140625,0.0525214990234375,0.8544971044921875
-0.20026890625,0.128499501953125,0.9009469921875
-0.21412814453125,0.08070688720703124,0.92945591796875
-0.34202216796875,0.1270289599609375,1.0796193115234376
-0.34032015625,0.159871064453125,1.1204165673828126
-0.33959072265625,0.1172253466796875,1.0835515771484374
-0.2970404296875,0.04247279541015625,1.0181776611328126
-0.2017277734375,0.069677822265625,0.97860923828125
-0.2435486328125,0.05129604736328125,0.914709921875
-0.267376796875,0.08634396484375,0.8967689599609375
-0.2581373046875,0.120656611328125,0.96877857421875
-0.294608984375,0.1157548046875,1.064627548828125
-0.30603677734375,0.15374380615234376,1.1513831591796875
-0.27540056640625,0.116735166015625,1.0948568408203125
-0.304334765625,0.1113431787109375,1.0383305224609374
-0.3320532421875,0.08364797119140625,1.0162115283203126
-0.3427516015625,0.04492369873046875,1.007609697265625
-0.28804408203125,0.010611052246093749,0.9375662158203125
-0.30409162109375,0.03610044677734375,0.9144641552734375
-0.26907880859375,0.01649322021484375,0.89406552734375
-0.27442798828125,0.0407571630859375,0.9247863525390625
-0.3252451953125,-0.02027032958984375,0.937811982421875
-0.19248828125,0.03364954345703125,0.99237216796875
-0.18640966796875,-0.0009081933593750001,0.92945591796875
-0.2736985546875,0.057668395996093746,0.928964384765625
-0.2377131640625,0.06404074462890624,0.9336339501953125
-0.26227076171875,0.0603643896484375,0.953541044921875
-0.30068759765624997,0.1623219677734375,1.078390478515625
-0.2824517578125,0.0868341455078125,1.115747001953125
-0.3189234375,0.16354741943359374,1.11230626953125
-0.3048210546875,0.11771552734375,0.9980247998046875
-0.24525064453125,0.1211467919921875,0.941744248046875
-0.26081189453125,0.11354899169921875,0.9650920751953125
-0.27296912109375,0.06060947998046875,0.9970417333984375
-0.30506419921875,0.0691876416015625,0.951574912109375
-0.212912421875,0.06698182861328125,0.997779033203125
-0.27515742187500003,0.09810830078125,0.971236240234375
-0.29096181640625,0.04737460205078125,0.9818042041015624
-0.2853694921875,0.0907555908203125,1.0307117578125
-0.23844259765625,0.08119706787109375,0.9931094677734374
-0.34421046875,0.0103659619140625,0.965337841796875
-0.26470220703125,0.04786478271484375,0.993846767578125
-0.33618669921875,0.0701680029296875,0.996795966796875
-0.2513292578125,0.108892275390625,0.9862280029296875
-0.3057936328125,0.07188363525390624,0.9901602685546875
-0.317950859375,0.11967625,1.0661021484375
-0.24379177734375002,0.06453092529296875,1.01399962890625
-0.25983931640625,0.097127939453125,0.97860923828125
-0.28391062499999997,0.062080021972656246,1.011541962890625
-0.2989855859375,0.10423555908203125,1.05332228515625
-0.2620276171875,0.09100068115234375,1.028254091796875
-0.28998923828125,0.0182088525390625,0.9921264013671875
-0.292663828125,0.11354899169921875,1.1012467724609376
-0.33181009765625,0.03021827880859375,1.0624156494140624
-0.3437241796875,0.0211499365234375,1.011541962890625
-0.28196546875,0.06943273193359376,0.9677955078125
-0.32548833984375003,0.057913486328125,0.93928658203125
-0.2620276171875,0.0319339111328125,0.96484630859375
-0.21753216796875,0.0770305322265625,1.005643564453125
-0.26129818359375,0.057913486328125,0.96877857421875
-0.23552486328125,0.06502110595703126,1.011541962890625
-0.26518849609375,0.10423555908203125,1.05135615234375
-0.312115390625,0.0966377587890625,1.02186416015625
-0.2921775390625,0.0868341455078125,1.0412797216796874
-0.24233291015625,0.099088662109375,1.03169482421875
-0.27880458984375,0.07139345458984375,0.9926179345703126
-0.3694975,0.059874208984374996,1.0717547802734375
-0.28269490234375,0.11305881103515625,1.1150097021484375
-0.3155194140625,0.1084020947265625,1.0230929931640624
-0.30700935546875,0.020659755859375,1.0147369287109376
-0.2882872265625,0.09639266845703125,1.036118623046875
-0.2620276171875,0.03953171142578125,0.94715111328125
-0.25303126953125,0.05889384765625,0.8997181591796874
-0.24768208984375,0.10178465576171875,0.8780906982421874
-0.3019033203125,0.07629526123046874,0.906845390625
-0.23212083984375,0.093206494140625,0.9493630126953125
-0.28074974609375003,0.089285048828125,0.9857364697265625
-0.27491427734375,0.06502110595703126,1.01399962890625
-0.2406308984375,0.080461796875,1.004660498046875
-0.31041337890625,0.1103628173828125,1.0157199951171876
-0.3515048046875,0.1260485986328125,1.070525947265625
-0.3670660546875,0.14541073486328124,1.021372626953125
-0.31989601562500003,0.1652630517578125,0.9587021435546875
-0.1511537109375,0.1427147412109375,0.8984893261718749
-0.19710802734375,0.01845394287109375,0.9046334912109375
-0.23649744140625,0.01698340087890625,0.915201455078125
-0.189570546875,0.022620478515625,0.9665666748046875
-0.29436583984375,0.079481435546875,1.0425085546875
-0.2260422265625,0.08805959716796875,1.0432458544921874
-0.195406015625,0.0868341455078125,1.0395593554687501
-0.3524773828125,0.08242251953125,1.056271484375
-0.2814791796875,0.1368325732421875,0.9980247998046875
-0.31697828125,0.04100225341796875,0.9508376123046876
-0.29339326171875,0.13340130859375,1.0240760595703124
-0.273212265625,0.10374537841796876,1.042017021484375
-0.23795630859375,0.07384435791015626,0.9916348681640625
-0.2104809765625,0.0770305322265625,0.9272440185546875
-0.27637314453125,0.0878145068359375,0.93338818359375
-0.31673513671875,0.10619628173828125,1.00515203125
-0.30311904296875003,0.07629526123046874,1.0388220556640624
-0.35101851562499997,0.1476165478515625,1.048898486328125
-0.16987583984375,0.07433453857421875,0.96681244140625
-0.28974609375,0.10325519775390625,0.9439561474609375
-0.3369161328125,0.16109651611328124,0.9936010009765625
-0.34737134765625,0.1113431787109375,1.0609410498046874
-0.32986494140625,0.13805802490234376,1.09854333984375
-0.28561263671875,0.09394176513671874,0.997779033203125
-0.28026345703125,0.11698025634765626,0.9763973388671875
-0.27296912109375,0.10227483642578125,0.8572005371093749
-0.29776986328125,0.09100068115234375,0.82131861328125
-0.24525064453125,0.09541230712890625,0.891116328125
-0.3203823046875,0.087324326171875,1.0122792626953125
-0.237226875,0.019434304199218752,1.0245675927734375
-0.29290697265625,0.07482471923828125,0.9874568359375
-0.2610550390625,0.07678544189453125,0.922082919921875
-0.23406599609375,0.09639266845703125,0.91372685546875
-0.30700935546875,0.0985984814453125,0.93928658203125
-0.29679728515625,0.14295983154296876,0.9650920751953125
-0.27053767578125,0.0623251123046875,0.9604225097656249
-0.31624884765625,0.17629211669921874,0.970253173828125
-0.23917203125,0.1338914892578125,0.9621428759765625
-0.30409162109375,0.11011772705078125,0.9980247998046875
-0.3194097265625,0.14835181884765625,1.0579918505859376
-0.21996361328125,0.0907555908203125,0.9965502001953125
-0.31673513671875,0.122617333984375,0.95501564453125
-0.2445212109375,0.09198104248046875,0.9680412744140625
-0.2736985546875,0.0883046875,0.93535431640625
-0.33667298828125003,0.14001874755859375,0.9778719384765625
-0.2338228515625,0.09026541015625,0.9936010009765625
-0.30919765625,0.10987263671875,0.9999909326171875
-0.2785614453125,0.069677822265625,0.95304951171875
-0.31187224609374997,0.10717664306640624,0.927981318359375
-0.27102396484375,0.0682072802734375,0.8864467626953125
-0.27418484375,0.08609887451171874,0.933879716796875
-0.31430369140625003,0.09737302978515625,0.995812900390625
-0.2571647265625,0.03315936279296875,0.9818042041015624
-0.26859251953125,0.096147578125,1.0427543212890624
-0.290718671875,0.08021670654296875,1.0130165625
-0.23941517578125,0.1103628173828125,0.976151572265625
-0.27831830078124997,0.07286399658203124,0.9478884130859375
-0.25108611328125,0.06453092529296875,0.9169218212890625
-0.222638203125,0.0691876416015625,0.9346170166015625
-0.2347954296875,0.08953013916015624,0.9498545458984375
-0.2970404296875,0.08217742919921875,0.95894791015625
-0.2873146484375,0.08021670654296875,1.00220283203125
-0.3048210546875,0.106931552734375,1.0319405908203125
-0.2892598046875,0.071638544921875,1.02579642578125
-0.23357970703125,0.081442158203125,1.0501273193359375
-0.27418484375,0.0887948681640625,0.99040603515625
-0.28755779296875,0.0907555908203125,0.9414984814453125
-0.25254498046875,0.09688284912109375,0.9478884130859375
-0.32111173828125,0.1652630517578125,0.997779033203125
-0.24330548828125,0.122617333984375,1.0186691943359376
-0.29922873046875,0.1652630517578125,1.0550426513671876
-0.255705859375,0.09933375244140626,0.9980247998046875
-0.3267040625,0.11158826904296874,0.93535431640625
-0.3067662109375,0.09247122314453125,0.9046334912109375
-0.24695265625,0.07923634521484375,0.930930517578125
-0.3242726171875,0.10080429443359375,0.9400238818359374
-0.271267109375,0.023845930175781252,0.9356000830078125
-0.234309140625,0.14345001220703124,1.0009739990234374
-0.341292734375,0.06894255126953125,1.02186416015625
-0.2698082421875,0.040266982421875,1.0235845263671874
-0.2775888671875,0.13560712158203125,0.965829375
-0.232363984375,0.06011929931640625,0.8928366943359375
-0.2464663671875,0.05668803466796875,0.9026673583984375
-0.26032560546875,0.10815700439453126,0.966320908203125
-0.252788125,0.016738310546875,0.9719735400390626
-0.2523018359375,0.08658905517578125,1.0294829248046875
-0.27394169921875,0.10031411376953125,1.0053977978515625
-0.24233291015625,0.053992041015625,0.9837703369140625
-0.2736985546875,0.1172253466796875,1.01006736328125
-0.27053767578125,0.11305881103515625,0.941744248046875
-0.280992890625,0.0780108935546875,0.9324051171875
-0.2620276171875,0.1201664306640625,0.9756600390625
-0.32451576171875,0.14197947021484375,0.993355234375
-0.23698373046875,0.0476196923828125,0.987948369140625
-0.310170234375,0.1054610107421875,0.95796484375
-0.1920019921875,0.08217742919921875,0.92945591796875
-0.2999581640625,0.0633054736328125,0.9048792578125
-0.29242068359375,0.11747043701171875,0.9193794873046874
-0.29485212890625,0.11207844970703125,0.9434646142578125
-0.3709563671875,0.15031254150390624,1.0049062646484375
-0.2328502734375,0.138303115234375,0.994829833984375
-0.28950294921874997,0.1191860693359375,0.9591936767578125
-0.3116291015625,0.13266603759765624,0.9638632421875
-0.25546271484375,0.1387932958984375,1.0280083251953125
-0.3378887109375,0.11599989501953126,0.991880634765625
-0.27442798828125,0.08756941650390625,0.9660751416015625
-0.2260422265625,0.08854977783203125,0.943710380859375
-0.277102578125,0.12237224365234375,0.947642646484375
-0.21558701171875,0.03144373046875,0.9820499707031249
-0.33326896484375,0.1387932958984375,1.0353813232421876
-0.242089765625,0.0819323388671875,1.066593681640625
-0.2474389453125,0.06109966064453125,1.0186691943359376
-0.3223274609375,0.108892275390625,0.986965302734375
-0.18349193359375,0.07874616455078125,0.9724650732421874
-0.33618669921875,0.081442158203125,0.961897109375
-0.25546271484375,0.15325362548828125,1.0053977978515625
-0.286828359375,0.04933532470703125,0.9818042041015624
-0.28172232421875,0.148106728515625,1.0294829248046875
-0.19856689453125,0.09394176513671874,0.9872110693359375
-0.31527626953125,0.053992041015625,0.9213456201171875
-0.236254296875,0.12825441162109374,0.937811982421875
-0.27637314453125,0.13315621826171875,0.937811982421875
-0.27248283203125,0.06600146728515625,1.0189149609375
-0.28074974609375003,0.14908708984375,1.02186416015625
-0.2357680078125,0.13266603759765624,1.0063808642578125
-0.3072525,0.08070688720703124,1.028745625
-0.28196546875,0.0848734228515625,1.0633987158203124
-0.269321953125,0.173596123046875,1.062661416015625
-0.2411171875,0.05227640869140625,0.9501003125
-0.29387955078125,0.09933375244140626,0.9473968798828125
-0.224583359375,0.14345001220703124,0.985982236328125
-0.3320532421875,0.111833359375,0.949608779296875
-0.2707808203125,0.11943115966796874,1.000728232421875
-0.31041337890625,0.1613416064453125,1.026287958984375
-0.23503857421875,0.0819323388671875,1.040542421875
-0.26713365234374997,0.0711483642578125,1.0110504296875
-0.31624884765625,0.1113431787109375,0.93535431640625
-0.24306234375,0.0407571630859375,0.9100403564453124
-0.31916658203125,0.07384435791015626,0.918150654296875
-0.26251390625,0.104970830078125,0.946659580078125
-0.26567478515625,0.06502110595703126,0.9351085498046875
-0.30530734375,0.1471263671875,0.999745166015625
-0.2182616015625,0.07065818359375,1.02579642578125
-0.32159802734375,0.10962754638671875,0.999745166015625
-0.28026345703125,0.1054610107421875,0.9832788037109375
-0.2289599609375,0.0544822216796875,0.946659580078125
-0.30895451171875,0.111833359375,0.980083837890625
-0.292663828125,0.04835496337890625,0.9599309765625
-0.25643529296875,0.12531332763671876,1.0280083251953125
-0.35588140625,0.1182057080078125,1.035135556640625
-0.20391607421875,0.07482471923828125,1.0575003173828126
-0.33521412109375,0.14786163818359374,1.0130165625
-0.21121041015625,0.05374695068359375,0.93338818359375
-0.17717017578125,0.06796218994140625,0.8825144970703125
-0.29339326171875,0.08266760986328126,0.9228202197265625
-0.29242068359375,0.120656611328125,0.9818042041015624
-0.24816837890625,0.091245771484375,0.9159387548828125
-0.27783201171875,0.11599989501953126,0.9704989404296875
-0.27296912109375,0.0848734228515625,1.0388220556640624
-0.24719580078125,0.07237381591796875,1.057746083984375
-0.28609892578125,0.10472573974609375,0.992863701171875
-0.27199654296875,0.07090327392578125,0.93928658203125
-0.30700935546875,0.04786478271484375,0.8682600341796876
-0.27053767578125,0.1064413720703125,0.9407611816406249
-0.2454937890625,0.09933375244140626,0.9756600390625
-0.33253953125,0.07335417724609375,0.9407611816406249
-0.2386857421875,0.11060790771484375,0.97369390625
-0.25886673828125,0.0652661962890625,0.9577190771484375
-0.3301080859375,0.080461796875,0.9257694189453125
-0.23698373046875,0.06060947998046875,0.9284728515625
-0.31478998046875,0.12286242431640625,0.965829375
-0.28269490234375,0.044188427734375,0.9734481396484375
-0.34226531250000003,0.1005592041015625,1.001711298828125
-0.317950859375,0.15913579345703124,1.040050888671875
-0.2571647265625,0.05497240234375,0.93338818359375
-0.29193439453125003,0.1471263671875,0.99040603515625
-0.23819945312500002,0.11060790771484375,0.9587021435546875
-0.24914095703125,0.06355056396484375,0.9188879541015624
-0.26032560546875,0.10374537841796876,0.922082919921875
-0.29193439453125003,0.0593840283203125,0.929947451171875
-0.25108611328125,0.04394333740234375,0.9960586669921875
-0.24087404296875,0.0530116796875,0.9473968798828125
-0.30530734375,0.08756941650390625,0.9356000830078125
-0.2347954296875,0.0799716162109375,1.050864619140625
-0.3524773828125,0.08805959716796875,1.02972869140625
-0.2746711328125,0.07335417724609375,1.0309575244140625
-0.29509527343749997,0.13315621826171875,0.9768888720703125
-0.26859251953125,0.08658905517578125,0.912252255859375
-0.3184371484375,0.0623251123046875,0.9245405859375
-0.2960678515625,0.09296140380859375,0.975168505859375
-0.27151025390625,0.062080021972656246,0.9609140429687499
-0.26518849609375,0.0652661962890625,0.98647376953125
-0.300444453125,0.09810830078125,0.9704989404296875
-0.304334765625,0.07188363525390624,0.9621428759765625
-0.28658521484375,0.1211467919921875,0.9999909326171875
-0.31624884765625,0.04688442138671875,0.9520664453125
-0.33521412109375,0.0922261328125,1.0267794921875
-0.33278267578125,0.14148928955078124,1.0732293798828125
-0.269321953125,0.06109966064453125,1.02776255859375
-0.3262177734375,0.0848734228515625,0.958456376953125
-0.26056875,0.06845237060546874,0.967303974609375
-0.24525064453125,0.10227483642578125,0.899472392578125
-0.29582470703125,0.00619942626953125,0.88030259765625
-0.2659179296875,0.10276501708984374,0.9820499707031249
-0.298499296875,0.0985984814453125,1.0171945947265626
-0.28123603515625,0.048109873046875,0.993846767578125
-0.25157240234375,0.03904153076171875,0.969761640625
-0.2581373046875,0.0907555908203125,0.949608779296875
-0.294608984375,0.099088662109375,0.9206083203125
-0.28123603515625,0.06109966064453125,0.99040603515625
-0.3116291015625,0.064776015625,1.0039231982421875
-0.33642984375,0.10276501708984374,0.985490703125
-0.25643529296875,0.01257177490234375,0.9410069482421874
-0.310170234375,0.06992291259765625,0.9026673583984375
-0.2454937890625,0.1172253466796875,0.9655836083984375
-0.29339326171875,0.018699033203125,0.9587021435546875
-0.2678630859375,0.03021827880859375,0.9631259423828125
-0.30409162109375,0.049090234375,0.950591845703125
-0.27345541015625,-0.0141430712890625,1.0174403613281249
-0.288773515625,0.08364797119140625,0.994829833984375
-0.31770771484375,0.0152677685546875,1.00515203125
-0.34591248046875,-0.0013983740234375002,1.0130165625
-0.27783201171875,0.0740894482421875,1.011541962890625
-0.24622322265625,-0.0006631030273437505,0.97271083984375
-0.33861814453125,0.02335574951171875,0.956490244140625
-0.2644590625,0.06943273193359376,0.98057537109375
-0.32840607421875,-0.013407800292968751,0.8933282275390625
-0.28658521484375,0.06281529296875,0.9341254833984375
-0.27977716796875,0.0074248779296875,0.915201455078125
-0.31478998046875,0.0103659619140625,0.953541044921875
-0.27637314453125,0.06796218994140625,0.9434646142578125
-0.28415376953125,-0.028358310546875,0.84786140625
-0.2931501171875,0.033404453125,0.921099853515625
-0.30992708984375,0.03144373046875,0.9537868115234375
-0.27929087890625,-0.01438816162109375,0.937811982421875
-0.2800203125,0.04541387939453125,0.94125271484375
-0.29776986328125,0.0642858349609375,0.97664310546875
-0.30506419921875,0.0765403515625,1.012525029296875
-0.31697828125,0.02286556884765625,1.0088385302734375
-0.34931650390625,0.07261890625,1.0466865869140625
-0.27491427734375,-0.00801581298828125,0.9798380712890625
-0.290718671875,0.030708459472656248,0.9375662158203125
-0.24573693359375,-0.0210056005859375,0.9223286865234375
-0.3077387890625,0.02727719482421875,0.9252778857421875
-0.26518849609375,0.01159141357421875,0.9414984814453125
-0.3427516015625,0.01575794921875,0.9837703369140625
-0.36244630859375,0.04198261474609375,1.0216183935546874
-0.21412814453125,0.02874773681640625,1.02579642578125
-0.32086859375,0.0319339111328125,0.9442019140625
-0.2960678515625,0.08021670654296875,0.98254150390625
-0.2941226953125,0.04492369873046875,0.9960586669921875
-0.34810078125,0.0255615625,1.0275167919921875
-0.27272597656249997,0.0672269189453125,1.072492080078125
-0.36487775390625,0.05080586669921875,1.00023669921875
-0.33667298828125003,0.052031318359375,0.9395323486328125
-0.25157240234375,0.00227798095703125,0.883743330078125
-0.3184371484375,-0.0006631030273437505,0.9272440185546875
-0.32281375,-0.0001729223632812504,0.935845849609375
-0.27880458984375,-0.05409279541015625,0.9007012255859375
-0.3349709765625,0.022620478515625,0.905370791015625
-0.27929087890625,-0.010221625976562499,0.929947451171875
-0.3242726171875,0.0495804150390625,0.984999169921875
-0.24938410156250002,0.01649322021484375,1.00613509765625
-0.32597462890625,0.0348749951171875,1.0270252587890625
-0.31284482421875,0.04884514404296875,1.0594664501953126
-0.337402421875,0.0015427099609375003,0.9631259423828125
-0.2659179296875,0.00570924560546875,0.9326508837890625
-0.30530734375,0.0387964404296875,0.8790737646484375
-0.2659179296875,-0.0023787353515625003,0.8859552294921875
-0.2649453515625,0.01845394287109375,0.9442019140625
-0.3894353515625,0.032424091796875,1.0307117578125
-0.27977716796875,0.00472888427734375,1.0575003173828126
-0.308225078125,0.04149243408203125,0.9818042041015624
-0.3135742578125,0.03855135009765625,0.9665666748046875
-0.277102578125,-0.0175743359375,0.913235322265625
-0.33253953125,0.0074248779296875,0.899472392578125
-0.2416034765625,-0.02419177490234375,0.9144641552734375
-0.333512109375,-0.0092412646484375,0.903404658203125
-0.33813185546875,0.04345315673828125,0.9196252539062499
-0.25838044921875,0.01159141357421875,0.8864467626953125
-0.27831830078124997,0.02360083984375,0.95108337890625
-0.32451576171875,0.01208159423828125,1.0363643896484376
-0.2960678515625,0.0044837939453125,1.05332228515625
-0.31673513671875,0.0515411376953125,1.0073639306640625
-0.25400384765625,0.0003172583007812497,0.958456376953125
-0.3028758984375,0.06624655761718751,0.972219306640625
-0.26640421875,0.02335574951171875,0.98942296875
-0.317950859375,-0.0121823486328125,0.9763973388671875
-0.31333111328125,0.01698340087890625,0.9734481396484375
-0.2581373046875,0.0037485229492187503,0.9638632421875
-0.27637314453125,-0.03105430419921875,0.896523193359375
-0.294608984375,-0.03301502685546875,0.8987350927734374
-0.2756437109375,-0.046740085449218746,0.89406552734375
-0.333512109375,0.026051743164062502,0.9292101513671875
-0.279047734375,0.010856142578125,0.94223578125
-0.2989855859375,-0.0053198193359375,0.9874568359375
-0.34153587890625,0.05374695068359375,1.04545775390625
-0.327676640625,0.02433611083984375,1.0707717138671875
-0.2795340234375,0.0012976196289062499,0.9793465380859375
-0.3500459375,-0.01634888427734375,0.9046334912109375
-0.2912049609375,0.0123266845703125,0.9139726220703125
-0.2853694921875,0.00816014892578125,0.8616243359375
-0.33861814453125,0.00276816162109375,0.8854636962890625
-0.32062544921875,0.022620478515625,0.9638632421875
-0.3320532421875,0.0123266845703125,0.9704989404296875
-0.267376796875,-0.028358310546875,0.9773804052734375
-0.31746457031249997,-0.01389798095703125,0.9626344091796875
-0.26227076171875,0.023845930175781252,1.0014655322265624
-0.280992890625,-0.04526954345703125,0.9252778857421875
-0.32402947265625,-0.0170841552734375,0.90782845703125
-0.31746457031249997,-0.00850599365234375,0.9085657568359375
-0.31430369140625003,0.0010525292968750002,0.90193005859375
-0.31187224609374997,0.0535018603515625,0.902913125
-0.2182616015625,0.020659755859375,0.9520664453125
-0.3189234375,0.0456589697265625,0.936828916015625
-0.32111173828125,0.02335574951171875,0.97074470703125
-0.31770771484375,0.01747358154296875,1.0162115283203126
-0.3213548828125,0.0456589697265625,1.0304659912109375
-0.33326896484375,0.00963069091796875,0.9921264013671875
-0.3067662109375,-0.0092412646484375,0.984016103515625
-0.31187224609374997,0.03904153076171875,0.9557529443359375
-0.29339326171875,-0.049926259765625,0.886692529296875
-0.24865466796875,-0.03522083984375,0.839996875
-0.24695265625,-0.01634888427734375,0.7942842871093749
-0.2892598046875,-0.01169216796875,0.83114927734375
-0.316005703125,-0.0337502978515625,0.9324051171875
-0.31430369140625003,0.02286556884765625,0.96877857421875
-0.3126016796875,0.010611052246093749,0.9759058056640625
-0.3767918359375,0.050070595703125,1.0071181640625
-0.28853037109375,-0.0023787353515625003,1.005643564453125
-0.3096839453125,-0.00654527099609375,0.964354775390625
-0.304334765625,0.017718671875,0.9665666748046875
-0.31624884765625,0.0201695751953125,0.9405154150390624
-0.30020130859375,0.0005623486328125002,0.936828916015625
-0.30457791015625,-0.01830960693359375,0.938303515625
-0.29485212890625,-0.020515419921875,0.916184521484375
-0.2970404296875,0.063795654296875,0.977626171875
-0.247925234375,-0.01561361328125,0.9857364697265625
-0.3660934765625,0.010611052246093749,1.014491162109375
-0.268349375,-0.0082609033203125,1.0353813232421876
-0.29387955078125,-0.0175743359375,0.9970417333984375
-0.372415234375,0.004973974609375,0.997779033203125
-0.29169125,-0.0180645166015625,0.9714820068359376
-0.31965287109375,-0.02419177490234375,0.9685328076171875
-0.33618669921875,0.00791505859375,0.965829375
-0.25011353515625,-0.03914228515625,0.9316678173828125
-0.33424154296874997,0.0020328906249999995,0.9095488232421876
-0.27613,-0.0376717431640625,0.928964384765625
-0.28901666015625,-0.04085791748046875,0.92159138671875
-0.30944080078125,0.00423870361328125,0.996795966796875
-0.345183046875,-0.042328459472656246,0.9994993994140625
-0.34104958984375,0.0025230712890624996,0.9945840673828125
-0.3028758984375,-0.03154448486328125,0.9646005419921875
-0.27977716796875,-0.010221625976562499,0.9808211376953125
-0.34883021484375,-0.010221625976562499,0.985982236328125
-0.28998923828125,-0.04698517578125,0.911269189453125
-0.338375,-0.018554697265625,0.86653966796875
-0.2921775390625,0.017718671875,0.89406552734375
-0.2488978125,0.00816014892578125,0.894557060546875
-0.29631099609375,0.0137972265625,0.976151572265625
-0.3184371484375,0.030463369140625002,1.0130165625
-0.30919765625,0.023845930175781252,1.03562708984375
-0.3009307421875,-0.0190448779296875,1.0275167919921875
-0.27929087890625,0.01747358154296875,1.0425085546875
-0.36293259765625,-0.036201201171875,1.0171945947265626
-0.30871136718750003,-0.053847705078125,0.96484630859375
-0.30700935546875,-0.010711806640625,0.9174133544921875
-0.32086859375,-0.008996174316406251,0.920116787109375
-0.33667298828125003,-0.0180645166015625,0.9837703369140625
-0.27880458984375,-0.0332601171875,1.014491162109375
-0.2970404296875,-0.029338671875,1.032677890625
-0.269321953125,-0.022476142578125,0.9626344091796875
-0.33861814453125,-0.01978014892578125,0.9356000830078125
-0.29096181640625,-0.035711020507812496,0.929947451171875
-0.30457791015625,-0.02762303955078125,0.9284728515625
-0.34299474609375,-0.05360261474609375,0.95501564453125
-0.28415376953125,-0.00703545166015625,0.990897568359375
-0.34226531250000003,-0.04330882080078125,0.9940925341796875
-0.29971501953125,-0.053847705078125,0.994829833984375
-0.3194097265625,-0.013652890625,0.9881941357421875
-0.28901666015625,-0.05213207275390625,0.956490244140625
-0.3466419140625,-0.0474753564453125,0.9149556884765625
-0.2941226953125,-0.03742665283203125,0.9559987109375
-0.32281375,-0.04183827880859375,0.92355751953125
-0.2620276171875,-0.028358310546875,0.9559987109375
-0.28026345703125,0.01845394287109375,1.0078554638671875
-0.3242726171875,-0.042083369140625,1.0348897900390626
-0.32086859375,-0.0141430712890625,1.085271943359375
-0.302389609375,-0.00801581298828125,1.025304892578125
-0.25862359375,0.0142874072265625,0.9749227392578125
-0.33642984375,0.01110123291015625,0.98647376953125
-0.36682291015625,0.010856142578125,1.0147369287109376
-0.29047552734375,-0.0043394580078125,0.99827056640625
-0.3184371484375,-0.023456503906250002,1.006626630859375
-0.31430369140625003,-0.044044091796875,1.0383305224609374
-0.26470220703125,-0.05409279541015625,0.9886856689453125
-0.3505322265625,-0.10458140380859375,0.8989808593749999
-0.26129818359375,-0.01585870361328125,0.9402696484374999
-0.34007701171875,-0.03522083984375,0.954524111328125
-0.292663828125,-0.057278969726562504,1.040050888671875
-0.349073359375,-0.0406128271484375,1.0624156494140624
-0.347128203125,-0.0386521044921875,1.0594664501953126
-0.27345541015625,0.00987578125,1.0110504296875
-0.28269490234375,-0.0582593310546875,0.9665666748046875
-0.32694720703125,-0.0881603515625,0.980083837890625
-0.29242068359375,-0.04698517578125,0.9665666748046875
-0.31965287109375,-0.076396015625,0.9508376123046876
-0.30263275390625,-0.07517056396484376,0.9390408154296875
-0.32159802734375,-0.00311400634765625,1.0157199951171876
-0.3242726171875,-0.0847290869140625,1.0184234277343749
-0.26713365234374997,-0.0567887890625,1.0609410498046874
-0.349073359375,-0.09183670654296874,0.9926179345703126
-0.284883203125,-0.09281706787109376,0.8815314306640625
-0.26956509765625,-0.06830803466796875,0.8559717041015625
-0.35806970703125,-0.01389798095703125,0.9719735400390626
-0.31333111328125,-0.077376376953125,1.0275167919921875
-0.33229638671875,-0.06193568603515625,1.0599579833984376
-0.3203823046875,-0.02125069091796875,1.079865078125
-0.3729015234375,-0.02272123291015625,0.9990078662109375
-0.2800203125,-0.068553125,0.9434646142578125
-0.32791978515625,0.04002189208984375,0.965337841796875
-0.33715927734375,-0.01634888427734375,0.954032578125
-0.24525064453125,-0.05115171142578125,1.0307117578125
-0.30214646484375,-0.0016434643554687498,1.131476064453125
-0.42517759765625,-0.06928839599609375,1.1172216015625
-0.26616107421875,-0.0631611376953125,1.1005094726562499
-0.39259623046875003,-0.10311086181640625,0.9670582080078125
-0.28464005859375,-0.0680629443359375,0.88423486328125
-0.23212083984375,-0.12369844970703125,0.7792925244140625
-0.25594900390624997,-0.155805283203125,0.80362341796875
-0.25351755859375,-0.1288453466796875,0.8662939013671875
-0.25303126953125,-0.079337099609375,0.9655836083984375
-0.34883021484375,-0.038161923828125,1.030220224609375
-0.3194097265625,-0.02517213623046875,1.0771616455078126
-0.40621232421875,-0.060710234375,1.08084814453125
-0.29339326171875,-0.0651218603515625,0.9754142724609375
-0.20926525390625,-0.11879664306640625,0.875387265625
-0.2367405859375,-0.140119501953125,0.838522275390625
-0.25740787109375,-0.11291447509765624,0.8092760498046875
-0.23260712890625002,-0.09232688720703125,0.8957858935546875
-0.30311904296875003,-0.124433720703125,0.9532952783203125
-0.2450075,-0.048455717773437504,0.9768888720703125
-0.29339326171875,-0.0915916162109375,0.946659580078125
-0.279047734375,-0.08350363525390625,0.95501564453125
-0.30117388671875,-0.024436865234375,0.9818042041015624
-0.24233291015625,-0.0999246875,0.976151572265625
-0.30506419921875,-0.0788469189453125,0.9980247998046875
-0.36779548828124997,0.00963069091796875,1.027271025390625
-0.21801845703125,0.0003172583007812497,0.95108337890625
-0.2853694921875,-0.029338671875,0.942727314453125
-0.3038484765625,0.00619942626953125,0.99040603515625
-0.14507509765624998,-0.04821062744140625,0.9990078662109375
-0.38335673828125,0.02139502685546875,1.0543053515625
-0.18349193359375,-0.07271966064453125,1.06118681640625
-0.26664736328125,0.03659062744140625,1.0461950537109375
-0.29339326171875,-0.0494360791015625,1.001219765625
-0.316005703125,-0.042328459472656246,1.031203291015625
-0.34032015625,-0.0612004150390625,1.02186416015625
-0.39356880859375,-0.151883837890625,1.0049062646484375
-0.3116291015625,-0.169530341796875,0.8783364648437499
-0.2610550390625,-0.18546121337890625,0.7279273046875
-0.29874244140625,-0.16340308349609375,0.6492819921874999
-0.24476435546875,-0.1592365478515625,0.6215103662109375
-0.296554140625,-0.10948321044921874,0.6529684912109375
-0.19856689453125,0.00668960693359375,0.7665126611328125
-0.27005138671875,0.0069346972656249995,0.91569298828125
-0.2878009375,0.05227640869140625,1.074458212890625
-0.3164919921875,0.07261890625,1.1100943701171875
-0.34299474609375,-0.0006631030273437505,1.0958399072265625
-0.37168580078125,-0.06046514404296875,1.098051806640625
-0.40815748046875,-0.07026875732421875,1.121645400390625
-0.38967849609375,-0.1494329345703125,1.0621698828125
-0.35661083984374997,-0.09134652587890625,1.0184234277343749
-0.36876806640625,-0.10213050048828125,0.8903790283203125
-0.2736985546875,-0.07026875732421875,0.946168046875
-0.21996361328125,0.03928662109375,0.956490244140625
-0.30603677734375,-0.071494208984375,0.9380577490234375
-0.1657423828125,-0.0464949951171875,0.9827872705078124
-0.18981369140625,-0.08154291259765625,1.052830751953125
-0.456056953125,-0.0151234326171875,0.98450763671875
-0.2036729296875,-0.1406096826171875,0.8250051123046875
-0.26859251953125,-0.13056097900390626,0.946659580078125
-0.47526537109375,0.0133070458984375,0.951574912109375
-0.2766162890625,-0.095022880859375,0.981066904296875
-0.4244481640625,-0.03840701416015625,0.975168505859375
-0.33983386718749997,0.06011929931640625,0.8918536279296875
-0.1783858984375,-0.12149263671875,0.837539208984375
-0.27248283203125,-0.0808076416015625,0.933879716796875
-0.26251390625,-0.1033559521484375,0.9095488232421876
-0.1112780078125,-0.08546435791015625,0.961897109375
-0.26859251953125,-0.08423890625,1.0373474560546876
-0.3116291015625,-0.1151202880859375,1.0314490576171875
-0.294608984375,-0.07075893798828126,1.1277895654296874
-0.34104958984375,-0.06267095703125,1.1361456298828125
-0.3476144921875,-0.04772044677734375,1.1848074169921876
-0.4283384765625,-0.06267095703125,1.1592476904296876
-0.37581925781250003,0.016738310546875,1.1440101611328124
-0.3485870703125,0.03266918212890625,1.1199250341796876
-0.39162365234375,-0.0415931884765625,1.062661416015625
-0.2386857421875,-0.028358310546875,0.9818042041015624
-0.201241484375,-0.1161006494140625,0.9075826904296875
-0.2542469921875,-0.1626678125,0.91077765625
-0.14580453125,-0.2643803002929688,0.8967689599609375
-0.237226875,-0.23545964111328124,0.9827872705078124
-0.19175884765625,-0.18202994873046874,1.1120605029296875
-0.30068759765624997,-0.149923115234375,1.2034856787109376
-0.43879369140625,0.02335574951171875,1.29122435546875
-0.41399294921875,-0.0621807763671875,1.275986826171875
-0.442440859375,0.040266982421875,1.19291771484375
-0.3690112109375,0.016738310546875,1.048898486328125
-0.3242726171875,-0.08203309326171875,0.985982236328125
-0.28998923828125,-0.1288453466796875,0.9051250244140625
-0.2581373046875,-0.2631548486328125,0.799199619140625
-0.181789921875,-0.2366850927734375,0.7905977880859375
-0.20926525390625,-0.224430576171875,0.7738856591796874
-0.30117388671875,-0.1670794384765625,0.8613785693359375
-0.2853694921875,-0.04379900146484375,0.9832788037109375
-0.37119951171875,0.089285048828125,1.1408151953125
-0.3515048046875,0.02090484619140625,1.1577730908203125
-0.38287044921875,0.09149086181640625,1.0879753759765625
-0.3811684375,-0.04477936279296875,0.9646005419921875
-0.34348103515625,-0.06095532470703125,0.9886856689453125
-0.29631099609375,-0.11585555908203125,0.9704989404296875
-0.3135742578125,-0.10164031982421876,1.011541962890625
-0.31770771484375,-0.11340465576171875,1.0137538623046876
-0.32840607421875,0.00816014892578125,1.1073909375
-0.28998923828125,0.0093856005859375,1.1784174853515625
-0.1813036328125,-0.01487834228515625,1.18603625
-0.2488978125,-0.07026875732421875,1.1975872802734375
-0.29679728515625,-0.06781785400390625,1.1459762939453124
-0.3339983984375,-0.136198056640625,1.0747039794921875
-0.32281375,-0.10727739746093751,1.078390478515625
-0.4108320703125,-0.14036459228515624,1.004660498046875
-0.35904228515625003,-0.08742508056640624,0.925032119140625
-0.29752671875000003,-0.0945327001953125,0.78002982421875
-0.265431640625,-0.1587463671875,0.7409529345703125
-0.222638203125,-0.15457983154296875,0.7955131201171874
-0.27442798828125,-0.14722712158203125,0.878827998046875
-0.22531279296875,-0.09036616455078125,0.967303974609375
-0.220693046875,-0.10409122314453124,1.006626630859375
-0.19346085937500002,-0.0386521044921875,1.00515203125
-0.1774133203125,-0.11781628173828125,0.9105318896484375
-0.23552486328125,-0.09428760986328125,0.925032119140625
-0.23698373046875,-0.120512275390625,0.99040603515625
-0.3320532421875,-0.12271808837890624,1.0206353271484374
-0.2892598046875,-0.1273748046875,0.9881941357421875
-0.33667298828125003,-0.1484525732421875,0.9847534033203125
-0.32257060546875,-0.10997339111328125,0.9520664453125
-0.3184371484375,-0.0371815625,0.9306847509765624
-0.22677166015625,0.0152677685546875,0.9134810888671875
-0.22823052734375,-0.027868129882812502,0.839996875
-0.13729447265625,-0.0974737841796875,0.893573994140625
-0.1929745703125,-0.13938423095703126,1.009084296875
-0.29679728515625,-0.1611972705078125,1.091170341796875
-0.31187224609374997,-0.1611972705078125,1.086255009765625
-0.27734572265625,-0.18840229736328126,0.97664310546875
-0.29825615234375,-0.07517056396484376,0.9587021435546875
-0.37119951171875,-0.0700236669921875,0.9085657568359375
-0.3612305859375,-0.091101435546875,0.90193005859375
-0.3485870703125,-0.03840701416015625,0.9139726220703125
-0.34007701171875,-0.05115171142578125,0.8717007666015625
-0.298499296875,-0.10654212646484375,0.855234404296875
-0.2007551953125,-0.0631611376953125,0.8977520263671875
-0.21461443359375,-0.13399224365234375,0.8943112939453125
-0.20342978515625,-0.19600009765625,0.9709904736328125
-0.27880458984375,-0.08840544189453126,1.060695283203125
-0.33667298828125003,-0.16732452880859375,1.0835515771484374
-0.3889490625,-0.05262225341796875,1.0621698828125
-0.39308251953125,0.00791505859375,0.892590927734375
-0.27005138671875,-0.10605194580078126,0.72301197265625
-0.209022109375,-0.132276611328125,0.6780366845703125
-0.2620276171875,-0.1210024560546875,0.65616345703125
-0.28974609375,-0.16291290283203125,0.7247323388671875
-0.39575710937499997,-0.157766005859375,0.824759345703125
-0.37849384765625,-0.13252170166015625,0.8279543115234375
-0.2620276171875,-0.08644471923828125,0.7768348583984375
-0.2955815625,-0.0494360791015625,0.82131861328125
-0.2800203125,-0.07075893798828126,0.8490902392578125
-0.26178447265625,-0.1352176953125,0.963371708984375
-0.34931650390625,-0.08448399658203125,0.9277355517578125
-0.2396583203125,-0.14379585693359376,0.8254966455078125
-0.26859251953125,-0.08497417724609375,0.765283828125
-0.29509527343749997,-0.05262225341796875,0.846386806640625
-0.27540056640625,-0.0053198193359375,0.9267524853515625
-0.349073359375,-0.0092412646484375,1.0604495166015624
-0.43538966796875,-0.00262382568359375,1.216019775390625
-0.44073884765625,0.028257556152343752,1.227816572265625
-0.2630001953125,-0.07320984130859375,1.1066536376953124
-0.19467658203125,-0.1901179296875,1.064627548828125
-0.2960678515625,-0.09796396484375,1.043983154296875
-0.2532744140625,-0.15997181884765624,0.9196252539062499
-0.25497642578125,-0.1626678125,0.8132083154296875
-0.24695265625,-0.08742508056640624,0.80755568359375
-0.22968939453125,-0.13448242431640625,0.9852449365234375
-0.3505322265625,-0.1053166748046875,1.0402966552734374
-0.32159802734375,-0.08301345458984374,1.0722463134765625
-0.30360533203125,-0.0082609033203125,0.9867195361328125
-0.2970404296875,-0.12909043701171874,0.8891501953125
-0.24379177734375002,-0.09428760986328125,0.8923451611328125
-0.213885,-0.19134338134765624,1.0171945947265626
-0.413263515625,-0.1739419677734375,1.1926719482421875
-0.368524921875,-0.1513936572265625,1.173747919921875
-0.3271903515625,-0.17639287109375001,1.0255506591796875
-0.21218298828125,-0.09379742919921875,0.938795048828125
-0.172064140625,-0.07664110595703125,0.883743330078125
-0.226528515625,-0.14183513427734376,0.991880634765625
-0.32597462890625,-0.05090662109375,1.170798720703125
-0.40475345703125,-0.027868129882812502,1.2531305322265625
-0.28853037109375,-0.0621807763671875,1.1341794970703125
-0.2970404296875,-0.1474722119140625,0.9700074072265625
-0.26810623046875,-0.0455146337890625,0.8805483642578125
-0.2824517578125,-0.12467881103515625,0.845403740234375
-0.36439146484375,-0.18423576171875,0.8923451611328125
-0.3320532421875,-0.1719812451171875,0.9638632421875
-0.28853037109375,-0.1665892578125,0.9562444775390625
-0.298499296875,-0.157766005859375,0.915201455078125
-0.21996361328125,-0.15507001220703126,0.926015185546875
-0.2878009375,-0.02223105224609375,0.9414984814453125
-0.26275705078125,-0.0700236669921875,0.9508376123046876
-0.2503566796875,-0.08497417724609375,0.8933282275390625
-0.29096181640625,-0.11487519775390626,0.95698177734375
-0.2795340234375,-0.14502130859375,1.071509013671875
-0.3500459375,-0.187176845703125,1.0031858984375
-0.35563826171875,-0.1062970361328125,0.993355234375
-0.31333111328125,-0.1749223291015625,0.9174133544921875
-0.2873146484375,-0.0999246875,0.8613785693359375
-0.23892888671875,-0.15997181884765624,0.93928658203125
-0.3515048046875,-0.0778665576171875,1.048898486328125
-0.29679728515625,-0.07468038330078125,1.0506188525390625
-0.30700935546875,-0.0866898095703125,0.9301932177734376
-0.263486484375,-0.05090662109375,0.8407341748046875
-0.2177753125,-0.106787216796875,0.7832247900390625
-0.20342978515625,-0.13056097900390626,0.892590927734375
-0.32597462890625,-0.089140712890625,1.0267794921875
-0.28853037109375,-0.18840229736328126,1.1012467724609376
-0.40767119140625,-0.10752248779296875,1.1204165673828126
-0.29363640625,-0.0857094482421875,1.0865007763671874
-0.30530734375,-0.12173772705078124,0.9680412744140625
-0.28026345703125,-0.12418863037109375,0.895540126953125
-0.314060546875,-0.07860182861328124,0.92159138671875
-0.39697283203125,-0.12173772705078124,0.861132802734375
-0.31478998046875,-0.14771730224609375,0.87440419921875
-0.35272052734375,-0.1857063037109375,0.8825144970703125
-0.29582470703125,-0.1494329345703125,0.8557259375
-0.28561263671875,-0.20163717529296876,0.7498005322265625
-0.2630001953125,-0.201882265625,0.7645465283203124
-0.34639876953125,-0.1445311279296875,0.8365561425781249
-0.3291355078125,-0.1660990771484375,0.8773533984374999
-0.323786328125,-0.16781470947265625,0.9223286865234375
-0.32500205078125,-0.11487519775390626,0.9815584374999999
-0.34445361328125,-0.10899302978515625,0.9719735400390626
-0.28853037109375,-0.09379742919921875,0.9400238818359374
-0.34931650390625,-0.09869923583984375,0.90389619140625
-0.29776986328125,-0.09404251953125001,0.9159387548828125
-0.3446967578125,-0.1273748046875,0.97271083984375
-0.34348103515625,-0.10065995849609374,1.0230929931640624
-0.2610550390625,-0.06144550537109375,1.0417712548828124
-0.32500205078125,-0.12541408203125,1.0014655322265624
-0.31284482421875,-0.122472998046875,0.9685328076171875
-0.247925234375,-0.10972830078125,0.970253173828125
-0.30700935546875,-0.17418705810546875,0.9402696484374999
-0.33715927734375,-0.12958061767578125,0.9301932177734376
-0.27685943359375,-0.12149263671875,0.8795652978515625
-0.3427516015625,-0.17810850341796874,0.8751414990234375
-0.3213548828125,-0.10262068115234375,0.9301932177734376
-0.32257060546875,-0.13742350830078126,0.962388642578125
-0.33229638671875,-0.1396293212890625,0.998762099609375
-0.24768208984375,-0.13840386962890625,1.007609697265625
-0.34639876953125,-0.16879507080078124,1.0019570654296874
-0.2912049609375,-0.1229631787109375,0.9636174755859375
-0.29290697265625,-0.17026561279296876,0.94715111328125
-0.33983386718749997,-0.1553151025390625,0.9990078662109375
-0.27199654296875,-0.17835359375,1.0058893310546875
-0.3189234375,-0.16193254150390626,0.9778719384765625
-0.28998923828125,-0.104826494140625,1.0230929931640624
-0.31576255859375,-0.12565917236328125,0.9953213671875
-0.35369310546875,-0.1572758251953125,1.0044147314453125
-0.288773515625,-0.107767578125,1.014491162109375
-0.34737134765625,-0.11732610107421874,0.984999169921875
-0.2999581640625,-0.09404251953125001,1.0024485986328124
-0.3233000390625,-0.1587463671875,0.9813126708984374
-0.33910443359375,-0.075415654296875,1.0334151904296875
-0.28974609375,-0.139139140625,1.076424345703125
-0.35588140625,-0.11561046875,1.056763017578125
-0.2775888671875,-0.14036459228515624,1.052830751953125
-0.26713365234374997,-0.1979608203125,0.98843990234375
-0.29728357421875,-0.12565917236328125,1.0117877294921875
-0.3281629296875,-0.1749223291015625,0.989914501953125
-0.34104958984375,-0.15678564453125,0.9975332666015625
-0.3028758984375,-0.10458140380859375,1.01989802734375
-0.35101851562499997,-0.15678564453125,0.991880634765625
-0.27831830078124997,-0.07909200927734375,1.0167030615234376
-0.273212265625,-0.19477464599609376,0.9621428759765625
-0.34007701171875,-0.14502130859375,0.99630443359375
-0.314060546875,-0.16830489013671876,0.9449392138671875
-0.2474389453125,-0.1857063037109375,0.926998251953125
-0.30603677734375,-0.17271651611328126,0.9282270849609375
-0.28123603515625,-0.1352176953125,0.9292101513671875
-0.2955815625,-0.12320826904296875,0.9528037451171875
-0.33181009765625,-0.075415654296875,0.946659580078125
-0.30263275390625,-0.10262068115234375,0.9284728515625
-0.32986494140625,-0.096983603515625,0.94223578125
-0.29387955078125,-0.10286577148437501,0.9247863525390625
-0.30700935546875,-0.10262068115234375,0.963371708984375
-0.34834392578125,-0.08619962890625,0.9965502001953125
-0.3242726171875,-0.11879664306640625,0.963371708984375
-0.28074974609375003,-0.0567887890625,1.03169482421875
-0.3320532421875,-0.10458140380859375,1.049881552734375
-0.2960678515625,-0.10556176513671875,1.019406494140625
-0.31333111328125,-0.10458140380859375,1.015474228515625
-0.337402421875,-0.13546278564453124,1.0250591259765625
-0.321841171875,-0.1406096826171875,1.00023669921875
-0.2999581640625,-0.17271651611328126,0.993846767578125
-0.292663828125,-0.1744321484375,0.922082919921875
-0.24670951171875,-0.20384298828125,0.89406552734375
-0.29387955078125,-0.15065838623046876,0.90193005859375
-0.237226875,-0.217568046875,0.9159387548828125
-0.31576255859375,-0.14673694091796874,0.9547698779296875
-0.30117388671875,-0.134237333984375,0.9985163330078125
-0.304334765625,-0.17761832275390624,0.9729566064453125
-0.3164919921875,-0.139139140625,0.9203625537109374
-0.29922873046875,-0.1327667919921875,0.964354775390625
-0.3096839453125,-0.13693332763671875,0.9793465380859375
-0.308225078125,-0.139139140625,0.91569298828125
-0.24427806640625,-0.13007079833984375,0.8569547705078124
-0.31868029296875,-0.13497260498046876,0.8171405810546875
-0.259596171875,-0.1626678125,0.778555224609375
-0.2416034765625,-0.17663796142578125,0.78494515625
-0.26761994140625,-0.1631579931640625,0.7807671240234375
-0.236254296875,-0.13595296630859374,0.793301220703125
-0.33132380859375,-0.04821062744140625,0.9048792578125
-0.34250845703125,-0.09771887451171875,1.046932353515625
-0.33715927734375,-0.07762146728515625,1.099034873046875
-0.33521412109375,-0.04575972412109375,1.0427543212890624
-0.296554140625,-0.06683749267578125,0.9700074072265625
-0.3033621875,-0.10507158447265624,0.9793465380859375
-0.3164919921875,-0.0661022216796875,1.029237158203125
-0.2659179296875,-0.03056412353515625,1.052830751953125
-0.3476144921875,-0.13056097900390626,1.0250591259765625
-0.30992708984375,-0.06340622802734375,1.073475146484375
-0.31624884765625,-0.11364974609375,1.0589749169921876
-0.323786328125,-0.16340308349609375,1.0923991748046875
-0.31478998046875,-0.15163874755859374,1.1066536376953124
-0.27005138671875,-0.14624676025390626,1.0024485986328124
-0.29509527343749997,-0.23104801513671874,0.99040603515625
-0.35028908203125,-0.2396261767578125,1.069542880859375
-0.39478453125,-0.163648173828125,1.0385762890625
-0.34493990234375,-0.19575500732421874,0.947642646484375
-0.38432931640625,-0.06977857666015624,0.961897109375
-0.35588140625,-0.06267095703125,0.946659580078125
-0.361716875,-0.19526482666015624,0.9144641552734375
-0.18835482421875,-0.1906081103515625,0.85867513671875
-0.25254498046875,-0.0881603515625,0.935845849609375
-0.28901666015625,-0.1278649853515625,1.0545511181640626
-0.41156150390625,-0.12026718505859375,1.05528841796875
-0.36098744140625,-0.04085791748046875,1.080356611328125
-0.45775896484375,-0.12418863037109375,1.0034316650390624
-0.34810078125,-0.140119501953125,0.992863701171875
-0.3446967578125,-0.0768861962890625,0.9449392138671875
-0.337402421875,-0.10703230712890625,0.925032119140625
-0.3339983984375,-0.147962392578125,0.8771076318359375
-0.25862359375,-0.2058037109375,0.9115149560546875
-0.32864921874999997,-0.10997339111328125,0.961897109375
-0.338375,-0.1964902783203125,0.9501003125
-0.2620276171875,-0.12541408203125,1.0575003173828126
-0.337402421875,-0.1768830517578125,1.0481611865234375
-0.33618669921875,-0.22516584716796875,1.0658563818359374
-0.263486484375,-0.1161006494140625,1.075441279296875
-0.33181009765625,-0.296977314453125,1.0545511181640626
-0.31089966796875,-0.175412509765625,1.1169758349609376
-0.3262177734375,-0.1425704052734375,1.0147369287109376
-0.33181009765625,-0.1190417333984375,1.032677890625
-0.34810078125,-0.0999246875,1.051847685546875
-0.33181009765625,-0.16585398681640626,1.0609410498046874
-0.3301080859375,-0.11046357177734376,1.129509931640625
-0.323786328125,-0.18791211669921876,1.1073909375
-0.24281919921875,-0.1504132958984375,1.039067822265625
-0.27418484375,-0.12516899169921875,1.0073639306640625
-0.304334765625,-0.13595296630859374,1.1184504345703126
-0.30530734375,-0.13717841796875,1.1290183984375
-0.368524921875,-0.0788469189453125,1.1322133642578125
-0.32646091796875,-0.0960032421875,1.0928907080078125
-0.325731484375,-0.1288453466796875,0.899472392578125
-0.27540056640625,-0.1210024560546875,0.876861865234375
-0.2873146484375,-0.09330724853515625,0.8874298291015625
-0.27515742187500003,-0.139139140625,0.90389619140625
-0.28026345703125,-0.12369844970703125,0.93437125
-0.30700935546875,-0.1200220947265625,0.9582106103515625
-0.314060546875,-0.1513936572265625,0.947642646484375
-0.31697828125,-0.11683592041015625,0.9183964208984375
-0.31089966796875,-0.15065838623046876,0.928964384765625
-0.370470078125,-0.13399224365234375,0.93732044921875
-0.29922873046875,-0.1337471533203125,0.938795048828125
-0.3223274609375,-0.1455114892578125,0.938795048828125
-0.27880458984375,-0.12909043701171874,0.9739396728515625
-0.30068759765624997,-0.12124754638671875,0.9375662158203125
-0.31138595703125,-0.10850284912109374,0.9714820068359376
-0.29144810546875,-0.13546278564453124,0.934862783203125
-0.290718671875,-0.0768861962890625,0.904387724609375
-0.30141703125,-0.10850284912109374,0.9166760546875
-0.2805066015625,-0.1357078759765625,0.902421591796875
-0.335457265625,-0.11757119140625,0.94321884765625
-0.31478998046875,-0.11732610107421874,0.995812900390625
-0.31187224609374997,-0.15678564453125,0.9557529443359375
-0.33764556640625,-0.146001669921875,0.946168046875
-0.35174794921875,-0.132276611328125,0.93437125
-0.32694720703125,-0.1259042626953125,0.927981318359375
-0.35320681640625,-0.11046357177734376,0.9228202197265625
-0.279047734375,-0.13448242431640625,0.9208540869140625
-0.3019033203125,-0.07713128662109375,0.9572275439453125
-0.25303126953125,-0.1572758251953125,0.9972875
-0.27442798828125,-0.1352176953125,0.9739396728515625
-0.30530734375,-0.11193411376953125,0.9704989404296875
-0.3106565234375,-0.13644314697265625,0.96877857421875
-0.31722142578125,-0.14379585693359376,0.9149556884765625
-0.378250703125,-0.14820748291015626,0.9365831494140625
-0.2698082421875,-0.1102184814453125,0.98057537109375
-0.31576255859375,-0.15556019287109374,0.9832788037109375
-0.33667298828125003,-0.14771730224609375,1.0535680517578125
-0.31916658203125,-0.11438501708984375,1.051847685546875
-0.30603677734375,-0.107767578125,1.0122792626953125
-0.26178447265625,-0.15016820556640625,0.9056165576171875
-0.25983931640625,-0.1033559521484375,0.957473310546875
-0.31430369140625003,-0.1308060693359375,1.014491162109375
-0.28026345703125,-0.13546278564453124,0.9916348681640625
-0.2834243359375,-0.1621776318359375,0.9621428759765625
-0.3359435546875,-0.1680597998046875,1.0157199951171876
-0.29387955078125,-0.14869766357421876,1.0176861279296876
-0.3233000390625,-0.1876670263671875,0.9397781152343749
-0.3729015234375,-0.13987441162109376,0.9759058056640625
-0.31819400390625,-0.107767578125,0.9677955078125
-0.30846822265625,-0.16462853515625,0.9206083203125
-0.34421046875,-0.12712971435546874,0.9528037451171875
-0.30311904296875003,-0.10213050048828125,0.99433830078125
-0.282938046875,-0.10164031982421876,0.9700074072265625
-0.308225078125,-0.16070708984375,0.9439561474609375
-0.27296912109375,-0.10752248779296875,0.983033037109375
-0.30846822265625,-0.1430605859375,1.012525029296875
-0.33570041015625,-0.16389326416015626,0.9852449365234375
-0.29339326171875,-0.17467723876953126,0.95304951171875
-0.33521412109375,-0.1210024560546875,0.9685328076171875
-0.31770771484375,-0.1317864306640625,0.9837703369140625
-0.34834392578125,-0.10115013916015625,1.03562708984375
-0.28391062499999997,-0.08105273193359375,1.047915419921875
-0.35466568359375,-0.1337471533203125,0.97860923828125
-0.23066197265625,-0.10948321044921874,0.9356000830078125
-0.28707150390625,-0.09624833251953124,0.9311762841796875
-0.34396732421875,-0.1543347412109375,0.94911724609375
-0.25886673828125,-0.13693332763671875,0.977134638671875
-0.300444453125,-0.13595296630859374,0.9670582080078125
-0.32694720703125,-0.1533543798828125,1.003677431640625
-0.32840607421875,-0.14894275390625,1.032186357421875
-0.32281375,-0.157766005859375,0.987948369140625
-0.32208431640625,-0.13154134033203124,0.96681244140625
-0.3388612890625,-0.12026718505859375,0.9454307470703125
-0.29047552734375,-0.1249239013671875,0.935845849609375
-0.358799140625,-0.093062158203125,0.9638632421875
-0.31187224609374997,-0.1121792041015625,0.9795923046875
-0.296554140625,-0.11732610107421874,0.9459222802734375
-0.36633662109375,-0.13938423095703126,0.9714820068359376
-0.282938046875,-0.16291290283203125,0.9972875
-0.33472783203125,-0.14820748291015626,0.963371708984375
-0.31746457031249997,-0.16046199951171874,0.9410069482421874
-0.29679728515625,-0.16340308349609375,0.9481341796875
-0.3578265625,-0.1455114892578125,0.935845849609375
-0.28269490234375,-0.16830489013671876,0.9793465380859375
-0.2668905078125,-0.1327667919921875,0.9577190771484375
-0.36925435546875,-0.11242429443359375,1.0024485986328124
-0.25740787109375,-0.12565917236328125,0.9847534033203125
-0.31673513671875,-0.11781628173828125,0.9169218212890625
-0.2805066015625,-0.0915916162109375,0.944693447265625
-0.34153587890625,-0.14428603759765624,0.9198710205078124
-0.26056875,-0.10997339111328125,0.9567360107421875
-0.323786328125,-0.09134652587890625,1.00515203125
-0.2878009375,-0.13717841796875,1.015474228515625
-0.3797095703125,-0.12271808837890624,1.0162115283203126
-0.2902323828125,-0.15899145751953125,0.976151572265625
-0.255705859375,-0.10262068115234375,0.920116787109375
-0.33253953125,-0.18104958740234375,0.871946533203125
-0.3203823046875,-0.1180613720703125,0.94715111328125
-0.29242068359375,-0.09845414550781251,0.950591845703125
-0.3694975,-0.1327667919921875,0.9675497412109375
-0.3155194140625,-0.106787216796875,1.00810123046875
-0.2824517578125,-0.13644314697265625,0.980083837890625
-0.36633662109375,-0.15507001220703126,0.9363373828125
-0.30263275390625,-0.1651187158203125,0.9559987109375
-0.341292734375,-0.106787216796875,0.9311762841796875
-0.33108066406250003,-0.17859868408203125,0.9414984814453125
-0.30846822265625,-0.14771730224609375,0.9065996240234375
-0.29533841796875,-0.16585398681640626,0.8918536279296875
-0.3033621875,-0.14109986328125,0.9729566064453125
-0.36390517578125,-0.16242272216796874,0.9537868115234375
-0.2678630859375,-0.1200220947265625,0.985490703125
-0.327676640625,-0.13007079833984375,0.9827872705078124
-0.3048210546875,-0.123453359375,0.98057537109375
-0.29752671875000003,-0.15899145751953125,0.9262609521484375
-0.3301080859375,-0.14232531494140624,0.9196252539062499
-0.30360533203125,-0.10801266845703125,0.965337841796875
-0.34737134765625,-0.14869766357421876,0.953541044921875
-0.28269490234375,-0.11364974609375,0.9759058056640625
-0.26859251953125,-0.10850284912109374,0.9395323486328125
-0.33642984375,-0.13105115966796876,0.9395323486328125
-0.330594375,-0.12811007568359375,0.9331424169921875
-0.2736985546875,-0.08938580322265625,0.9704989404296875
-0.37922328125,-0.11634573974609375,1.001219765625
-0.2921775390625,-0.100905048828125,1.0309575244140625
-0.3155194140625,-0.10972830078125,1.001219765625
-0.333512109375,-0.12958061767578125,0.953541044921875
-0.30919765625,-0.1464918505859375,0.9459222802734375
-0.2824517578125,-0.14281549560546875,0.967303974609375
-0.3505322265625,-0.17835359375,0.9646005419921875
-0.3038484765625,-0.1033559521484375,0.9717277734375
-0.29728357421875,-0.146001669921875,0.9085657568359375
-0.329621796875,-0.1641383544921875,0.8736668994140625
-0.2552195703125,-0.15654055419921875,1.01006736328125
-0.39308251953125,-0.1484525732421875,1.034152490234375
-0.30652306640625,-0.1700205224609375,1.003677431640625
-0.33764556640625,-0.093062158203125,0.9501003125
-0.28585578125,-0.1739419677734375,0.9090572900390625
-0.31527626953125,-0.11095375244140625,0.895540126953125
-0.30506419921875,-0.1553151025390625,0.92552365234375
-0.34250845703125,-0.1435507666015625,0.965829375
-0.32086859375,-0.09232688720703125,0.9704989404296875
-0.30360533203125,-0.1366882373046875,0.9326508837890625
-0.3223274609375,-0.14085477294921875,0.9196252539062499
-0.27807515625,-0.08644471923828125,0.950591845703125
-0.2800203125,-0.1665892578125,0.9356000830078125
-0.28196546875,-0.12320826904296875,0.9488714794921875
-0.26056875,-0.12418863037109375,0.9660751416015625
-0.290718671875,-0.11193411376953125,0.9936010009765625
-0.30311904296875003,-0.1038461328125,1.029237158203125
-0.3388612890625,-0.11683592041015625,0.9931094677734374
-0.314060546875,-0.12565917236328125,0.9815584374999999
-0.2659179296875,-0.1161006494140625,0.99433830078125
-0.28391062499999997,-0.16732452880859375,0.9284728515625
-0.302389609375,-0.1288453466796875,0.953541044921875
-0.33618669921875,-0.118551552734375,0.9913891015625
-0.31916658203125,-0.1523740185546875,0.9646005419921875
-0.2970404296875,-0.12026718505859375,0.967303974609375
-0.31430369140625003,-0.15899145751953125,0.9424815478515625
-0.2746711328125,-0.1317864306640625,0.920116787109375
-0.314060546875,-0.10507158447265624,0.9650920751953125
-0.338375,-0.1268846240234375,0.981066904296875
-0.32086859375,-0.15556019287109374,0.9370746826171875
-0.31722142578125,-0.14428603759765624,0.9324051171875
-0.325731484375,-0.132276611328125,0.9245405859375
-0.292663828125,-0.140119501953125,0.917167587890625
-0.32475890625,-0.13252170166015625,0.9567360107421875
-0.31478998046875,-0.1415900439453125,0.95796484375
-0.32281375,-0.08423890625,0.9719735400390626
-0.253760703125,-0.1484525732421875,0.97271083984375
-0.3378887109375,-0.12467881103515625,0.9739396728515625
-0.26567478515625,-0.10899302978515625,1.0157199951171876
-0.29169125,-0.09820905517578125,0.9604225097656249
-0.32402947265625,-0.1259042626953125,0.920116787109375
-0.2775888671875,-0.107767578125,0.9704989404296875
-0.2921775390625,-0.10507158447265624,0.9336339501953125
-0.3213548828125,-0.0960032421875,0.9577190771484375
-0.304334765625,-0.1406096826171875,0.94911724609375
-0.333512109375,-0.0994345068359375,0.953541044921875
-0.27831830078124997,-0.0847290869140625,0.95796484375
-0.35077537109375,-0.17810850341796874,0.8874298291015625
-0.2644590625,-0.08791526123046875,0.94911724609375
-0.24768208984375,-0.16732452880859375,0.8982435595703124
-0.269321953125,-0.165608896484375,0.8893959619140624
-0.27637314453125,-0.09796396484375,0.9469053466796875
-0.314060546875,-0.09379742919921875,0.978117705078125
-0.26227076171875,-0.1082577587890625,1.027271025390625
-0.34931650390625,-0.1062970361328125,1.0280083251953125
-0.31697828125,-0.12516899169921875,1.004660498046875
-0.34639876953125,-0.06977857666015624,0.9469053466796875
-0.31722142578125,-0.1513936572265625,0.89799779296875
-0.33910443359375,-0.06438658935546875,0.9193794873046874
-0.3242726171875,-0.09722869384765626,0.969270107421875
-0.32062544921875,-0.14869766357421876,0.9881941357421875
-0.31041337890625,-0.05801424072265625,1.01989802734375
-0.3267040625,-0.10850284912109374,0.9370746826171875
-0.2707808203125,-0.13987441162109376,0.95796484375
-0.32864921874999997,-0.08301345458984374,0.9921264013671875
-0.3155194140625,-0.16046199951171874,0.9852449365234375
-0.3019033203125,-0.12369844970703125,0.9795923046875
-0.31965287109375,-0.06291604736328126,0.9614055761718749
-0.288773515625,-0.144040947265625,0.985490703125
-0.3320532421875,-0.093062158203125,0.994829833984375
-0.31527626953125,-0.091101435546875,0.991880634765625
-0.26956509765625,-0.159726728515625,0.935845849609375
-0.29679728515625,-0.1131595654296875,0.9469053466796875
-0.2989855859375,-0.12614935302734376,0.97271083984375
-0.30555048828125,-0.1308060693359375,0.955507177734375
-0.2698082421875,-0.1131595654296875,0.9832788037109375
-0.339347578125,-0.07271966064453125,1.026287958984375
-0.25594900390624997,-0.089140712890625,1.0565172509765626
-0.288773515625,-0.1229631787109375,1.0014655322265624
-0.29290697265625,-0.07762146728515625,0.9582106103515625
-0.28853037109375,-0.1219828173828125,0.90193005859375
-0.33959072265625,-0.107767578125,0.8608870361328125
-0.30895451171875,-0.09845414550781251,0.9183964208984375
-0.3203823046875,-0.11487519775390626,0.965337841796875
-0.32281375,-0.07958218994140626,1.0216183935546874
-0.3048210546875,-0.08619962890625,0.98942296875
-0.327676640625,-0.1141399267578125,1.012525029296875
-0.3155194140625,-0.0376717431640625,1.0555341845703126
-0.33715927734375,-0.08497417724609375,1.0071181640625
-0.30311904296875003,-0.07051384765625,1.0157199951171876
-0.29096181640625,-0.12541408203125,0.94223578125
-0.33959072265625,-0.096983603515625,0.9166760546875
-0.24573693359375,-0.098944326171875,0.9641090087890625
-0.3145468359375,-0.112669384765625,0.945676513671875
-0.3009307421875,-0.12516899169921875,0.9636174755859375
-0.26081189453125,-0.1013952294921875,0.9793465380859375
-0.33861814453125,-0.1151202880859375,0.9719735400390626
-0.30871136718750003,-0.13350206298828124,1.00023669921875
-0.2639727734375,-0.10188541015625,1.0078554638671875
-0.3408064453125,-0.112669384765625,0.992863701171875
-0.2561921484375,-0.09673851318359375,1.0068723974609375
-0.31333111328125,-0.03301502685546875,0.9857364697265625
-0.25449013671875,-0.07762146728515625,1.028254091796875
-0.2873146484375,-0.07443529296875,0.977626171875
-0.28318119140625,-0.075415654296875,0.903404658203125
-0.2333365625,-0.08595453857421875,0.871455
-0.2707808203125,-0.0739451123046875,0.8859552294921875
-0.30871136718750003,-0.0553182470703125,0.9975332666015625
-0.3019033203125,-0.04723026611328125,1.048406953125
-0.3699837890625,-0.04723026611328125,1.058729150390625
-0.3203823046875,-0.068553125,1.065610615234375
-0.32451576171875,-0.0631611376953125,1.0216183935546874
-0.31381740234375,-0.0308092138671875,0.9523122119140625
-0.26421591796875,-0.07566074462890625,0.92552365234375
-0.32743349609375,-0.1288453466796875,0.9009469921875
-0.29922873046875,-0.0719843896484375,0.9036504248046875
-0.2488978125,-0.08056255126953125,0.8628531689453125
-0.30506419921875,-0.07026875732421875,0.885709462890625
-0.27783201171875,-0.05458297607421875,0.9537868115234375
-0.2532744140625,-0.07615092529296875,1.0245675927734375
-0.3660934765625,-0.06389640869140625,0.984016103515625
-0.24233291015625,-0.09012107421875,0.9193794873046874
-0.28853037109375,-0.0190448779296875,0.9208540869140625
-0.268349375,-0.065612041015625,0.9665666748046875
-0.3072525,-0.035711020507812496,1.0098215966796875
-0.3330258203125,0.00766996826171875,1.0228472265625
-0.24768208984375,-0.0396324658203125,0.9847534033203125
-0.2785614453125,-0.06046514404296875,0.96288017578125
-0.25205869140625,-0.046004814453125,0.9056165576171875
-0.23844259765625,-0.055808427734375,0.8820229638671875
-0.28609892578125,-0.0254172265625,0.9061080908203125
-0.268349375,-0.0651218603515625,0.9641090087890625
-0.30166017578125,0.0037485229492187503,1.0348897900390626
-0.2921775390625,-0.03399538818359375,1.045949287109375
-0.268349375,-0.06585713134765625,1.0088385302734375
-0.25740787109375,0.008895419921875,0.9717277734375
-0.30141703125,-0.0063001806640625,0.97271083984375
-0.31770771484375,-0.05262225341796875,0.932896650390625
-0.26567478515625,-0.018554697265625,0.928964384765625
-0.27831830078124997,-0.04330882080078125,0.89013326171875
-0.3262177734375,-0.04477936279296875,0.943710380859375
-0.29485212890625,-0.05899460205078125,0.967303974609375
-0.3155194140625,-0.05090662109375,0.96288017578125
-0.253760703125,-0.00213364501953125,1.032677890625
-0.34810078125,-0.05605351806640625,1.024813359375
-0.25886673828125,-0.06879821533203125,0.98647376953125
-0.27005138671875,-0.0464949951171875,0.94715111328125
-0.35101851562499997,-0.063651318359375,0.9139726220703125
-0.247925234375,-0.025662316894531252,0.9183964208984375
-0.31333111328125,-0.02713285888671875,0.909303056640625
-0.28804408203125,-0.00581,0.9542783447265625
-0.24573693359375,-0.02027032958984375,0.893573994140625
-0.26907880859375,0.0037485229492187503,0.868997333984375
-0.26129818359375,0.00717978759765625,0.870963466796875
-0.280992890625,0.00178780029296875,0.9120064892578125
-0.27929087890625,0.01551285888671875,0.95894791015625
-0.2736985546875,0.02237538818359375,0.9847534033203125
-0.316005703125,0.06502110595703126,1.0398051220703124
-0.29363640625,0.0037485229492187503,1.0240760595703124
-0.2941226953125,0.05619785400390625,0.990897568359375
-0.2571647265625,0.05913893798828125,0.9815584374999999
-0.34445361328125,0.0299731884765625,0.96484630859375
-0.24525064453125,0.026051743164062502,0.9675497412109375
-0.31284482421875,-0.04330882080078125,0.9036504248046875
-0.26567478515625,-0.0151234326171875,0.9331424169921875
-0.27637314453125,-0.0009081933593750001,0.9872110693359375
-0.36390517578125,-0.06046514404296875,0.98647376953125
-0.27272597656249997,-0.047965537109375,0.9532952783203125
-0.3213548828125,-0.02149578125,0.94911724609375
-0.23649744140625,-0.0092412646484375,0.9945840673828125
-0.2328502734375,-0.00948635498046875,1.012525029296875
-0.34299474609375,0.0037485229492187503,1.0466865869140625
-0.257651015625,0.05521749267578125,1.09854333984375
-0.3476144921875,0.0044837939453125,1.043983154296875
-0.2980130078125,0.00521906494140625,1.0162115283203126
-0.25449013671875,0.0044837939453125,0.95108337890625
-0.257651015625,-0.046249904785156254,0.91569298828125
-0.253760703125,-0.00360418701171875,0.9124980224609375
-0.329621796875,-0.00801581298828125,0.925032119140625
-0.2659179296875,-0.06389640869140625,0.9916348681640625
-0.3267040625,0.04590406005859375,1.023338759765625
-0.3213548828125,0.03757098876953125,0.9921264013671875
-0.27053767578125,0.010856142578125,0.9609140429687499
-0.327676640625,0.07286399658203124,0.9773804052734375
-0.2853694921875,0.0858537841796875,0.990897568359375
-0.26761994140625,0.0368357177734375,0.8923451611328125
-0.31333111328125,0.0515411376953125,0.8731753662109375
-0.25303126953125,0.0608545703125,0.889641728515625
-0.28269490234375,-0.0200252392578125,0.896523193359375
-0.34007701171875,0.06894255126953125,0.9953213671875
-0.2513292578125,0.06404074462890624,1.1174673681640626
-0.397702265625,0.06355056396484375,1.14671359375
-0.35223423828125,0.1054610107421875,1.1174673681640626
-0.230418828125,0.04320806640625,1.058729150390625
-0.34396732421875,0.05423713134765625,1.08379734375
-0.29971501953125,0.01159141357421875,0.969761640625
-0.17133470703125,-0.04575972412109375,0.9798380712890625
-0.31673513671875,-0.0097314453125,1.0395593554687501
-0.28561263671875,-0.048455717773437504,1.0742124462890625
-0.312115390625,-0.025662316894531252,1.0294829248046875
-0.21655958984375,-0.0028689160156250004,0.9793465380859375
-0.28220861328125,-0.02321141357421875,0.9842618701171875
-0.28269490234375,-0.02419177490234375,0.9994993994140625
-0.27296912109375,-0.006790361328125,1.013508095703125
-0.3145468359375,0.02139502685546875,1.0009739990234374
-0.30530734375,-0.1161006494140625,0.9046334912109375
-0.29922873046875,-0.0621807763671875,0.86260740234375
-0.2367405859375,-0.042328459472656246,0.8043607177734375
-0.24281919921875,-0.08938580322265625,0.7689703271484375
-0.282938046875,-0.04306373046875,0.861132802734375
-0.29242068359375,-0.01585870361328125,0.9532952783203125
-0.277102578125,-0.010221625976562499,0.9768888720703125
-0.2843969140625,0.0255615625,0.9228202197265625
-0.2824517578125,0.07972652587890625,0.9670582080078125
-0.214857578125,0.0858537841796875,1.0019570654296874
-0.36341888671875,0.08805959716796875,1.0378389892578126
-0.32451576171875,0.0535018603515625,1.0766701123046876
-0.28634207031250003,0.0142874072265625,1.0688055810546875
-0.34980279296875,0.00472888427734375,1.000728232421875
-0.2309051171875,0.0495804150390625,0.9503460791015625
-0.279047734375,-0.0016434643554687498,0.9186421875
-0.3067662109375,0.0191892138671875,1.0206353271484374
-0.25157240234375,0.04541387939453125,1.087729609375
-0.3057936328125,0.0309535498046875,1.0845346435546874
-0.36536404296875,0.10178465576171875,1.12017080078125
-0.26640421875,0.06894255126953125,1.0471781201171875
-0.34104958984375,0.0191892138671875,1.0122792626953125
-0.28464005859375,-0.0006631030273437505,1.0049062646484375
-0.24768208984375,-0.02076051025390625,0.9183964208984375
-0.2620276171875,-0.06732767333984375,0.8952943603515625
-0.3145468359375,-0.05164189208984375,0.9439561474609375
-0.32694720703125,-0.05482806640625,0.98942296875
-0.34056330078125,-0.00997653564453125,0.9936010009765625
-0.29242068359375,0.0008074389648437498,0.920116787109375
-0.3583128515625,-0.0249270458984375,0.929947451171875
-0.298499296875,0.00717978759765625,0.964354775390625
-0.29971501953125,-0.08938580322265625,0.8431918408203125
-0.2878009375,-0.0317895751953125,0.9321593505859375
-0.2668905078125,7.216796875000007e-05,0.9599309765625
-0.3476144921875,-0.04428918212890625,0.8933282275390625
-0.3048210546875,-0.028113220214843748,0.8554801708984375
-0.24816837890625,-0.0376717431640625,0.87440419921875
-0.29047552734375,-0.008996174316406251,0.971236240234375
-0.34348103515625,-0.008751083984375,0.9872110693359375
-0.2143712890625,0.04737460205078125,0.94321884765625
-0.27880458984375,0.09394176513671874,0.9609140429687499
-0.2941226953125,0.06060947998046875,1.0309575244140625
-0.279047734375,0.04394333740234375,1.076424345703125
-0.33521412109375,0.0211499365234375,1.04545775390625
-0.2435486328125,0.06624655761718751,1.0466865869140625
-0.2980130078125,0.03708080810546875,0.96288017578125
-0.3164919921875,-0.02149578125,0.934862783203125
-0.28123603515625,0.0103659619140625,0.98254150390625
-0.2902323828125,-0.0631611376953125,0.966320908203125
-0.22361078125,0.019434304199218752,0.98647376953125
-0.2644590625,-0.01169216796875,0.9690243408203125
-0.21972046875,0.00325834228515625,1.0186691943359376
-0.32086859375,-0.035711020507812496,0.99630443359375
-0.3213548828125,0.05105095703125,1.0117877294921875
-0.24379177734375002,-0.04134809814453125,1.0280083251953125
-0.3573402734375,0.0093856005859375,1.0486527197265625
-0.25497642578125,-0.028113220214843748,1.022355693359375
-0.26421591796875,-0.044534272460937496,0.9729566064453125
-0.378250703125,-0.04575972412109375,0.978117705078125
-0.25546271484375,-0.059484782714843754,0.947642646484375
-0.29387955078125,0.0103659619140625,0.90782845703125
-0.245980078125,-0.02419177490234375,0.9675497412109375
-0.34226531250000003,-0.01634888427734375,0.986965302734375
-0.23139140625,0.0495804150390625,1.026287958984375
-0.2892598046875,-0.0229663232421875,0.9655836083984375
-0.32791978515625,0.05105095703125,0.9798380712890625
-0.25351755859375,0.05080586669921875,0.95796484375
-0.2882872265625,0.0064445166015625,0.9287186181640625
-0.2853694921875,0.057668395996093746,1.048406953125
-0.3485870703125,0.0486000537109375,1.0093300634765625
-0.25789416015625,0.0074248779296875,0.9916348681640625
-0.310170234375,0.0280124658203125,0.9400238818359374
-0.30506419921875,0.0008074389648437498,0.945676513671875
-0.23552486328125,0.04100225341796875,0.95796484375
-0.3301080859375,0.02482629150390625,0.8972604931640625
-0.2999581640625,0.0319339111328125,0.9385492822265625
-0.22336763671875,0.04541387939453125,0.9400238818359374
-0.3019033203125,0.07065818359375,0.90586232421875
-0.2425760546875,-0.0411030078125,0.9557529443359375
-0.36755234375,-0.0023787353515625003,0.9493630126953125
-0.2843969140625,0.0515411376953125,1.0270252587890625
-0.31187224609374997,0.0008074389648437498,0.987948369140625
-0.3690112109375,0.0270321044921875,0.9891772021484375
-0.28561263671875,0.04786478271484375,0.9837703369140625
-0.29363640625,0.00865032958984375,0.924049052734375
-0.31041337890625,0.04320806640625,0.9999909326171875
-0.3106565234375,0.01453249755859375,1.0206353271484374
-0.294608984375,0.01747358154296875,1.0078554638671875
-0.24476435546875,0.0397768017578125,0.9287186181640625
-0.2980130078125,0.03855135009765625,0.912252255859375
-0.28172232421875,-0.0288484912109375,0.9341254833984375
-0.3048210546875,0.028257556152343752,0.9213456201171875
-0.25886673828125,0.04712951171875,0.9881941357421875
-0.358799140625,0.02874773681640625,0.9965502001953125
-0.2688356640625,0.00816014892578125,1.044966220703125
-0.31308796875,0.0843832421875,1.0516019189453125
-0.3242726171875,0.00619942626953125,1.0112961962890625
-0.2566784375,-0.044044091796875,0.97369390625
-0.35855599609375,0.01845394287109375,0.932896650390625
-0.27272597656249997,0.01453249755859375,0.9717277734375
-0.2644590625,-0.0170841552734375,0.99433830078125
-0.3126016796875,0.05815857666015625,0.9999909326171875
-0.2834243359375,0.0025230712890624996,1.011541962890625
-0.27394169921875,0.00399361328125,0.996795966796875
-0.3028758984375,0.02972809814453125,0.94715111328125
-0.26810623046875,0.00865032958984375,0.96877857421875
-0.3563676953125,0.05521749267578125,1.0149826953125
-0.28391062499999997,-0.0001729223632812504,1.0098215966796875
-0.312115390625,0.0201695751953125,0.9292101513671875
-0.323786328125,0.02041466552734375,0.9481341796875
-0.30263275390625,-0.010221625976562499,1.01399962890625
-0.23139140625,0.0319339111328125,1.066593681640625
-0.361716875,-0.00507472900390625,1.0174403613281249
-0.2989855859375,0.05570767333984375,1.0432458544921874
-0.3213548828125,0.0093856005859375,0.9454307470703125
-0.2878009375,-0.01193725830078125,0.91077765625
-0.25351755859375,0.0319339111328125,0.896523193359375
-0.29533841796875,0.03928662109375,0.94321884765625
-0.28366748046875,-0.02958376220703125,0.9990078662109375
-0.34250845703125,0.06502110595703126,1.0629071826171874
-0.37581925781250003,0.03855135009765625,1.089204208984375
-0.26616107421875,-0.03693647216796875,1.043983154296875
-0.36366203125,0.01649322021484375,0.9611598095703124
-0.28707150390625,-0.00311400634765625,0.9638632421875
-0.2318776953125,-0.0043394580078125,0.8987350927734374
-0.3033621875,0.0191892138671875,0.935845849609375
-0.27977716796875,-0.0043394580078125,0.9744312060546875
-0.2639727734375,0.0407571630859375,0.9614055761718749
-0.28464005859375,0.02090484619140625,0.9940925341796875
-0.2873146484375,0.0250713818359375,0.978117705078125
-0.284883203125,0.00399361328125,1.03169482421875
-0.376305546875,0.00521906494140625,1.0149826953125
-0.26324333984375,0.02433611083984375,0.9813126708984374
-0.3242726171875,-0.02149578125,0.930438984375
-0.34348103515625,0.010611052246093749,0.96484630859375
-0.24379177734375002,0.00816014892578125,0.9940925341796875
-0.360744296875,0.04786478271484375,0.9911433349609375
-0.286828359375,-0.01389798095703125,0.9795923046875
-0.28804408203125,-0.00262382568359375,0.8849721630859375
-0.29922873046875,0.03266918212890625,0.8967689599609375
-0.26470220703125,-0.026397587890625,0.8933282275390625
-0.36779548828124997,0.008895419921875,0.9567360107421875
-0.2600824609375,0.044188427734375,1.005643564453125
-0.30749564453125,0.0613447509765625,1.0058893310546875
-0.3427516015625,0.032424091796875,1.048406953125
-0.28609892578125,-0.06683749267578125,1.032186357421875
-0.3203823046875,0.0270321044921875,0.951574912109375
-0.308225078125,-0.0175743359375,0.9120064892578125
-0.30846822265625,-0.01487834228515625,0.8874298291015625
-0.2999581640625,0.02482629150390625,0.8783364648437499
-0.31770771484375,-0.015368522949218751,0.9198710205078124
-0.2357680078125,-0.0016434643554687498,0.9532952783203125
-0.34688505859375,0.03413972412109375,0.974185439453125
-0.29363640625,0.01845394287109375,1.061678349609375
-0.27807515625,0.03561026611328125,1.0324321240234375
-0.3223274609375,0.00399361328125,0.9744312060546875
-0.28658521484375,0.038306259765625,0.9660751416015625
-0.267376796875,-0.0337502978515625,0.90389619140625
-0.3690112109375,-0.01046671630859375,0.9356000830078125
-0.26372962890625,-0.024436865234375,0.9950756005859375
-0.3330258203125,0.05178622802734375,0.9616513427734374
-0.23017568359375,-0.0386521044921875,0.9680412744140625
-0.32354318359375,0.01600303955078125,0.9559987109375
-0.35855599609375,0.0025230712890624996,0.954032578125
-0.27296912109375,0.00325834228515625,0.9400238818359374
-0.2980130078125,0.0387964404296875,0.9179048876953125
-0.304334765625,0.01845394287109375,0.9363373828125
-0.30506419921875,0.01845394287109375,0.9913891015625
-0.37581925781250003,0.0466393310546875,0.9945840673828125
-0.2668905078125,0.017718671875,1.0196522607421874
-0.31430369140625003,-0.024436865234375,0.9191337207031249
-0.31284482421875,0.02482629150390625,0.929947451171875
-0.26713365234374997,-0.00605509033203125,0.9134810888671875
-0.3417790234375,-0.0038492773437499997,0.891607861328125
-0.3145468359375,-0.010711806640625,0.93535431640625
-0.28974609375,0.02041466552734375,0.950591845703125
-0.34007701171875,0.03144373046875,0.95894791015625
-0.29752671875000003,0.009140510253906251,0.996795966796875
-0.2396583203125,0.0231106591796875,0.99040603515625
-0.36536404296875,-0.01046671630859375,0.8970147265625
-0.27588685546875,-0.057769150390625,0.9031588916015625
-0.34834392578125,-0.032279755859375,0.892590927734375
-0.2698082421875,-0.020515419921875,0.9174133544921875
-0.28074974609375003,-0.02737794921875,0.9493630126953125
-0.3476144921875,-0.00801581298828125,0.9768888720703125
-0.28561263671875,-0.01561361328125,0.9896687353515625
-0.32159802734375,-0.04919098876953125,0.94125271484375
-0.26372962890625,0.0250713818359375,0.9311762841796875
-0.2814791796875,-0.0602200537109375,0.8721922998046875
-0.33983386718749997,0.02776737548828125,0.882760263671875
-0.25473328125,-0.02517213623046875,0.90389619140625
-0.38335673828125,0.019434304199218752,0.9717277734375
-0.34348103515625,0.05325677001953125,1.05233921875
-0.28074974609375003,-0.030073942871093752,1.0221099267578124
-0.2795340234375,0.00521906494140625,1.0363643896484376
-0.32257060546875,0.018699033203125,1.0130165625
-0.32086859375,-0.02419177490234375,0.9680412744140625
-0.34980279296875,-0.01634888427734375,0.949608779296875
-0.3806821484375,0.00668960693359375,0.9582106103515625
-0.282938046875,0.02482629150390625,0.9931094677734374
-0.288773515625,0.0030132519531249997,0.9614055761718749
-0.33667298828125003,0.00865032958984375,0.996795966796875
-0.28269490234375,0.0054641552734375,1.0191607275390624
-0.361716875,-0.0268877685546875,0.9820499707031249
-0.30603677734375,-0.05752406005859375,0.964354775390625
-0.32864921874999997,-0.0332601171875,0.9419900146484375
-0.28755779296875,-0.059484782714843754,0.8962774267578125
-0.28196546875,-0.1013952294921875,0.9105318896484375
-0.34980279296875,-0.057278969726562504,0.968287041015625
-0.3096839453125,-0.02370159423828125,1.02776255859375
-0.33983386718749997,-0.02174087158203125,0.97271083984375
-0.317950859375,-0.0239466845703125,0.922082919921875
-0.2396583203125,-0.0332601171875,0.8864467626953125
-0.28755779296875,-0.07713128662109375,0.8544971044921875
-0.35272052734375,-0.0386521044921875,0.9267524853515625
-0.2912049609375,-0.05752406005859375,0.970253173828125
-0.349073359375,-0.013162709960937501,0.9906518017578125
-0.3028758984375,-0.03840701416015625,1.0108046630859375
-0.30700935546875,-0.02076051025390625,0.99630443359375
-0.29363640625,-0.02762303955078125,0.9641090087890625
-0.30992708984375,-0.046740085449218746,0.959439443359375
-0.32062544921875,-0.0200252392578125,0.970253173828125
-0.3106565234375,0.01992448486328125,0.970253173828125
-0.29363640625,0.00399361328125,0.9680412744140625
