ax,ay,az
-0.26178447265625,0.08168724853515624,0.841471474609375
-0.20148462890625,0.07629526123046874,0.8746499658203125
-0.2775888671875,0.03413972412109375,0.924049052734375
-0.28853037109375,0.0721287255859375,1.0078554638671875
-0.19662173828125,0.0221302978515625,1.0368559228515626
-0.28196546875,0.018699033203125,1.0078554638671875
-0.3203823046875,0.062080021972656246,1.0130165625
-0.25059982421875,0.024091020507812498,0.9886856689453125
-0.36220316406249997,0.0642858349609375,0.9051250244140625
-0.2027003515625,0.07727562255859374,0.9493630126953125
-0.23017568359375,-0.0055649096679687505,0.8694888671875
-0.2843969140625,0.03413972412109375,0.9267524853515625
-0.24306234375,0.0025230712890624996,0.9945840673828125
-0.327676640625,0.017718671875,0.96484630859375
-0.2989855859375,0.08560869384765625,0.9975332666015625
-0.28220861328125,0.015022678222656249,0.977626171875
-0.294608984375,0.06011929931640625,0.9395323486328125
-0.27102396484375,0.06453092529296875,0.946659580078125
-0.23066197265625,-0.01389798095703125,0.887675595703125
-0.30895451171875,0.00399361328125,0.9174133544921875
-0.2309051171875,-0.0327699365234375,1.0501273193359375
-0.33618669921875,0.0221302978515625,1.0334151904296875
-0.230418828125,0.01159141357421875,0.9604225097656249
-0.24330548828125,-0.0239466845703125,0.8466325732421875
-0.23990146484375,-0.0004180126953125,0.8525309716796875
-0.22750109375,0.0789912548828125,0.8972604931640625
-0.2027003515625,0.04051207275390625,0.9444476806640625
-0.24476435546875,0.05889384765625,1.0491442529296875
-0.25205869140625,0.07874616455078125,1.0157199951171876
-0.22579908203125,0.04835496337890625,1.0014655322265624
-0.2542469921875,0.04590406005859375,1.0181776611328126
-0.33424154296874997,0.06845237060546874,1.0240760595703124
-0.2639727734375,0.0985984814453125,0.9994993994140625
-0.34056330078125,0.065756376953125,0.9931094677734374
-0.30871136718750003,0.03217900146484375,0.9542783447265625
-0.24184662109375,0.04198261474609375,0.8653108349609375
-0.2425760546875,0.028257556152343752,0.796741953125
-0.21947732421875,0.046149150390625,0.87243806640625
-0.19419029296875,-0.018554697265625,0.914709921875
-0.2931501171875,-0.0219859619140625,0.9818042041015624
-0.26616107421875,0.0427178857421875,1.0346440234375
-0.3111428125,0.0848734228515625,1.0152284619140626
-0.25789416015625,0.06845237060546874,0.9233117529296875
-0.20732009765625,0.0652661962890625,0.8790737646484375
-0.35466568359375,0.01845394287109375,0.946168046875
-0.23552486328125,0.0574233056640625,1.0014655322265624
-0.34104958984375,0.032424091796875,1.0228472265625
-0.30311904296875003,0.0373258984375,1.0582376171875
-0.1939471484375,-0.00703545166015625,1.0073639306640625
-0.249870390625,0.02776737548828125,0.9206083203125
-0.23455228515625,0.05570767333984375,0.9665666748046875
-0.12902755859375,-0.0366913818359375,0.89013326171875
-0.28074974609375003,0.09198104248046875,0.9223286865234375
-0.11225058593750001,0.0074248779296875,0.97664310546875
-0.299471875,0.05374695068359375,1.0152284619140626
-0.2552195703125,0.08707923583984375,1.0545511181640626
-0.25108611328125,0.04394333740234375,0.9945840673828125
-0.28585578125,0.09933375244140626,1.000728232421875
-0.24962724609375,0.0182088525390625,0.9717277734375
-0.310170234375,0.0691876416015625,0.971236240234375
-0.2795340234375,0.14418528320312501,0.9768888720703125
-0.244034921875,0.02678701416015625,0.84294607421875
-0.1944334375,0.06355056396484375,0.8299204443359375
-0.23212083984375,0.0289928271484375,0.8603955029296875
-0.1929745703125,-0.0004180126953125,0.947642646484375
-0.22361078125,0.04712951171875,1.0083469970703125
-0.23892888671875,0.00570924560546875,0.9965502001953125
-0.2921775390625,0.063795654296875,0.98647376953125
-0.212912421875,0.00963069091796875,0.9439561474609375
-0.32111173828125,0.03561026611328125,0.96288017578125
-0.22336763671875,0.02433611083984375,1.0019570654296874
-0.29193439453125003,0.04100225341796875,1.00416896484375
-0.2591098828125,-0.0038492773437499997,1.019406494140625
-0.2785614453125,0.04492369873046875,1.04349162109375
-0.23017568359375,0.05497240234375,1.0031858984375
-0.240144609375,0.038306259765625,0.979100771484375
-0.2513292578125,0.057913486328125,0.945676513671875
-0.22579908203125,0.07139345458984375,0.967303974609375
-0.2095083984375,0.03806116943359375,0.9439561474609375
-0.26470220703125,0.04100225341796875,0.952557978515625
-0.20197091796875,0.04198261474609375,0.9896687353515625
-0.29339326171875,0.08413815185546875,0.95698177734375
-0.21510072265625,0.02090484619140625,0.9803296044921875
-0.31308796875,0.0544822216796875,0.97271083984375
-0.2688356640625,0.1005592041015625,1.029237158203125
-0.27272597656249997,0.0059543359375,0.932896650390625
-0.2406308984375,0.04712951171875,0.92748978515625
-0.23819945312500002,0.09418685546875,0.9665666748046875
-0.26129818359375,-0.0023787353515625003,0.965829375
-0.19029998046875,0.0672269189453125,0.9739396728515625
-0.22093619140625,0.04394333740234375,0.927981318359375
-0.206104375,0.11305881103515625,0.970253173828125
-0.23819945312500002,0.0137972265625,0.9773804052734375
-0.29922873046875,0.00423870361328125,0.979100771484375
-0.292663828125,0.093206494140625,0.9717277734375
-0.2785614453125,0.0407571630859375,0.9459222802734375
-0.2566784375,0.073599267578125,0.9532952783203125
-0.26907880859375,0.033404453125,0.9473968798828125
-0.247925234375,0.1270289599609375,1.001219765625
-0.22482650390625,0.0035034326171875,0.985490703125
-0.3213548828125,0.018699033203125,0.9709904736328125
-0.1521262890625,0.05325677001953125,0.98450763671875
-0.24573693359375,0.01257177490234375,0.909303056640625
-0.1949197265625,0.0995788427734375,1.037101689453125
-0.25157240234375,0.03512008544921875,1.0245675927734375
-0.26421591796875,0.044188427734375,1.073475146484375
-0.2309051171875,0.08413815185546875,1.028254091796875
-0.31624884765625,0.05129604736328125,0.9400238818359374
-0.26616107421875,0.0299731884765625,0.9410069482421874
-0.2464663671875,0.06281529296875,0.96484630859375
-0.29144810546875,0.03364954345703125,0.9714820068359376
-0.26859251953125,0.073599267578125,0.9936010009765625
-0.25084296875,0.04884514404296875,0.978117705078125
-0.20586123046875,0.0883046875,0.9881941357421875
-0.26081189453125,0.0397768017578125,0.994829833984375
-0.2056180859375,0.1044806494140625,0.98942296875
-0.23139140625,0.03413972412109375,0.948625712890625
-0.25254498046875,0.03462990478515625,0.9749227392578125
-0.22944625,0.0652661962890625,0.9768888720703125
-0.26859251953125,-0.0033590966796874996,0.964354775390625
-0.28561263671875,0.0584036669921875,1.0245675927734375
-0.27783201171875,0.08805959716796875,1.0078554638671875
-0.282938046875,-0.0043394580078125,0.9559987109375
-0.22701480468750002,0.09737302978515625,1.02186416015625
-0.29679728515625,0.05864875732421875,1.0034316650390624
-0.27029453125,0.04198261474609375,0.95894791015625
-0.1696326953125,0.0956573974609375,0.970253173828125
-0.2279873828125,0.0682072802734375,0.9247863525390625
-0.1744955859375,-0.0006631030273437505,0.92945591796875
-0.22336763671875,0.0907555908203125,0.991880634765625
-0.3417790234375,0.02139502685546875,1.0122792626953125
-0.1832487890625,0.05497240234375,1.0437373876953124
-0.29728357421875,0.02727719482421875,0.9282270849609375
-0.282938046875,0.04345315673828125,1.0142453955078126
-0.21266927734375,0.09639266845703125,1.0053977978515625
-0.31576255859375,0.04443351806640625,0.9572275439453125
-0.2309051171875,0.13609730224609376,1.055779951171875
-0.21801845703125,0.06404074462890624,0.9604225097656249
-0.21704587890625,0.0652661962890625,1.0267794921875
-0.216802734375,0.08266760986328126,1.0137538623046876
-0.2153438671875,0.01649322021484375,0.9901602685546875
-0.27296912109375,0.00963069091796875,0.9739396728515625
-0.20975154296875,0.08707923583984375,0.97074470703125
-0.2581373046875,0.01992448486328125,0.954524111328125
-0.2488978125,0.0451687890625,1.011541962890625
-0.30846822265625,0.09418685546875,0.9992536328125
-0.24306234375,0.04247279541015625,1.006626630859375
-0.2955815625,0.06011929931640625,0.973202373046875
-0.24087404296875,0.0544822216796875,0.957473310546875
-0.18738224609375,0.030708459472656248,0.969270107421875
-0.23941517578125,0.01992448486328125,0.9434646142578125
-0.2221519140625,0.0760501708984375,0.9739396728515625
-0.2338228515625,0.00791505859375,0.9129895556640625
-0.251815546875,0.08119706787109375,0.95796484375
-0.2099946875,0.065756376953125,0.994829833984375
-0.23357970703125,0.0133070458984375,0.9616513427734374
-0.2367405859375,0.08609887451171874,1.02186416015625
-0.24525064453125,0.06404074462890624,0.9955671337890625
-0.2912049609375,0.06649164794921875,0.9341254833984375
-0.255705859375,0.108892275390625,0.9464138134765625
-0.240144609375,0.08756941650390625,0.9048792578125
-0.18981369140625,0.11403917236328125,0.922574453125
-0.24038775390625,0.0711483642578125,0.9601767431640625
-0.17960162109375,0.11698025634765626,0.983033037109375
-0.177899609375,0.0878145068359375,0.9795923046875
-0.20415921875,0.08168724853515624,1.0228472265625
-0.1900568359375,0.05178622802734375,0.99040603515625
-0.22434021484375,0.06281529296875,0.9559987109375
-0.18300564453125,0.05031568603515625,1.0029401318359374
-0.20877896484375,0.08609887451171874,0.985982236328125
-0.240144609375,0.0750698095703125,0.952557978515625
-0.24184662109375,0.08658905517578125,0.986965302734375
-0.16647181640625,0.093206494140625,0.9734481396484375
-0.23990146484375,0.04394333740234375,0.953541044921875
-0.18227621093750002,0.05080586669921875,0.9847534033203125
-0.20026890625,0.0451687890625,0.925032119140625
-0.2566784375,0.04002189208984375,0.9363373828125
-0.23528171875,0.057668395996093746,0.936828916015625
-0.24233291015625,0.07433453857421875,0.9002096923828125
-0.2255559375,0.04247279541015625,0.9287186181640625
-0.183735078125,0.083402880859375,0.88816712890625
-0.2299325390625,0.07727562255859374,0.9282270849609375
-0.19346085937500002,0.063795654296875,0.98450763671875
-0.2668905078125,0.114774443359375,0.9913891015625
-0.30652306640625,0.04933532470703125,0.986965302734375
-0.27491427734375,0.11379408203125,0.977134638671875
-0.15674603515625,0.1427147412109375,0.9992536328125
-0.2878009375,0.0878145068359375,0.9407611816406249
-0.23260712890625002,0.10987263671875,0.9591936767578125
-0.21655958984375,0.0799716162109375,0.9402696484374999
-0.2396583203125,0.0505607763671875,0.9002096923828125
-0.18251935546875,0.0809519775390625,0.875878798828125
-0.22725794921875,0.0329142724609375,0.8778449316406249
-0.17571130859375,0.1172253466796875,0.93142205078125
-0.27807515625,0.06355056396484375,0.96288017578125
-0.2279873828125,0.0701680029296875,1.063644482421875
-0.24427806640625,0.15276344482421875,1.0688055810546875
-0.23747001953125,0.08168724853515624,0.9972875
-0.16744439453124998,0.12433296630859375,1.0299744580078125
-0.214857578125,0.06355056396484375,0.95501564453125
-0.234309140625,0.126538779296875,0.9773804052734375
-0.20148462890625,0.069677822265625,0.9827872705078124
-0.23163455078125,0.07923634521484375,0.978117705078125
-0.17814275390625,0.05619785400390625,1.0004824658203124
-0.24281919921875,0.09247122314453125,0.986965302734375
-0.19759431640625,0.01575794921875,0.9223286865234375
-0.2396583203125,0.057668395996093746,0.947642646484375
-0.160393203125,0.07825598388671876,0.9773804052734375
-0.28196546875,0.055462583007812497,0.9356000830078125
-0.22093619140625,0.1191860693359375,0.9985163330078125
-0.20391607421875,0.12433296630859375,0.954524111328125
-0.251815546875,0.061834931640625,0.93732044921875
-0.26154132812499997,0.1485969091796875,1.0088385302734375
-0.1793584765625,0.07139345458984375,0.988931435546875
-0.2435486328125,0.06649164794921875,0.9444476806640625
-0.1783858984375,0.09345158447265625,0.9105318896484375
-0.19905318359375002,0.0451687890625,0.9159387548828125
-0.2488978125,0.036345537109375,0.9680412744140625
-0.19078626953125,0.12188206298828125,1.0346440234375
-0.18470765625,0.056933125,1.024321826171875
-0.280992890625,0.09149086181640625,1.0186691943359376
-0.20415921875,0.1250682373046875,1.085271943359375
-0.18081734375,0.05521749267578125,1.016948828125
-0.2649453515625,0.114774443359375,0.9877026025390625
-0.2386857421875,0.097127939453125,0.9778719384765625
-0.269321953125,0.0603643896484375,0.93338818359375
-0.237226875,0.08070688720703124,0.9124980224609375
-0.2309051171875,0.12874459228515625,0.9945840673828125
-0.15869119140625,0.0642858349609375,0.96877857421875
-0.22774423828125,0.048109873046875,0.984999169921875
-0.25108611328125,0.09296140380859375,1.028745625
-0.17571130859375,0.1035002880859375,1.023338759765625
-0.284883203125,0.07482471923828125,0.9955671337890625
-0.19029998046875,0.15374380615234376,1.0255506591796875
-0.18592337890625,0.077520712890625,0.9252778857421875
-0.2488978125,0.08854977783203125,0.97860923828125
-0.174009296875,0.1299700439453125,1.028745625
-0.252788125,0.1162449853515625,0.9815584374999999
-0.1696326953125,0.0829127001953125,1.031203291015625
-0.2328502734375,0.0731090869140625,1.0098215966796875
-0.1676875390625,0.0917359521484375,1.0314490576171875
-0.21607330078125,0.05472731201171875,0.98057537109375
-0.199296328125,0.13903838623046874,0.9795923046875
-0.20683380859375,0.0922261328125,0.99237216796875
-0.23309341796875,0.127519140625,1.0284998583984375
-0.16112263671875,0.09786321044921875,0.9945840673828125
-0.2289599609375,0.0608545703125,0.8891501953125
-0.12659611328125,0.1172253466796875,0.9410069482421874
-0.24573693359375,0.05668803466796875,0.94321884765625
-0.2095083984375,0.08707923583984375,1.04939001953125
-0.212912421875,0.14001874755859375,1.0110504296875
-0.2678630859375,0.11796061767578125,0.9523122119140625
-0.23795630859375,0.08634396484375,0.9282270849609375
-0.15917748046875,0.1079119140625,0.9449392138671875
-0.2824517578125,0.14737145751953126,0.9822957373046874
-0.16744439453124998,0.07531489990234375,0.954524111328125
-0.21510072265625,0.14345001220703124,0.9385492822265625
-0.19662173828125,0.0956573974609375,0.9048792578125
-0.183735078125,0.1495772705078125,0.9228202197265625
-0.2289599609375,0.1358522119140625,0.97271083984375
-0.23212083984375,0.13168567626953126,0.9901602685546875
-0.1550440234375,0.13658748291015624,0.97860923828125
-0.23601115234375,0.02874773681640625,0.970253173828125
-0.23406599609375,0.1309504052734375,1.0260421923828125
-0.1900568359375,0.10815700439453126,0.997779033203125
-0.22044990234375,0.056933125,0.9815584374999999
-0.240144609375,0.13560712158203125,0.9911433349609375
-0.16015005859375,0.14908708984375,0.9501003125
-0.2182616015625,0.11501953369140624,0.953541044921875
-0.18227621093750002,0.1211467919921875,0.975168505859375
-0.20732009765625,0.0897752294921875,0.9886856689453125
-0.18932740234375,0.10595119140625,1.0398051220703124
-0.13413359375,0.1182057080078125,1.0167030615234376
-0.18397822265625,0.110852998046875,0.970253173828125
-0.245980078125,0.146146005859375,0.9818042041015624
-0.1851939453125,0.14001874755859375,1.0093300634765625
-0.18981369140625,0.13119549560546875,0.9931094677734374
-0.25254498046875,0.053992041015625,0.92552365234375
-0.25789416015625,0.16256705810546876,0.948625712890625
-0.15236943359375,0.091245771484375,0.9257694189453125
-0.2357680078125,0.06698182861328125,0.8692431005859375
-0.21972046875,0.1652630517578125,0.9611598095703124
-0.17376615234375,0.062080021972656246,0.954032578125
-0.22701480468750002,0.19099753662109376,0.987948369140625
-0.1783858984375,0.16011615478515626,0.9685328076171875
-0.17279357421875,0.15276344482421875,0.972219306640625
-0.19808060546875,0.11992134033203125,0.98254150390625
-0.2523018359375,0.14516564453125,1.0560257177734376
-0.1433730859375,0.11060790771484375,0.9852449365234375
-0.22385392578125,0.14394019287109375,0.9532952783203125
-0.2450075,0.1000690234375,0.934862783203125
-0.19832375,0.153988896484375,1.011541962890625
-0.212912421875,0.1270289599609375,1.06315294921875
-0.27151025390625,0.15962597412109375,1.0865007763671874
-0.20634751953125,0.15276344482421875,1.0756870458984376
-0.16987583984375,0.13217585693359374,0.98647376953125
-0.16525609375,0.146146005859375,0.9478884130859375
-0.16185207031249998,0.1191860693359375,0.98057537109375
-0.25497642578125,0.12237224365234375,1.0053977978515625
-0.144831953125,0.12727405029296876,1.0167030615234376
-0.22093619140625,0.12555841796875,0.97369390625
-0.21072412109375,0.12286242431640625,1.006626630859375
-0.19564916015625,0.11354899169921875,1.040542421875
-0.27734572265625,0.0789912548828125,0.975168505859375
-0.17182099609375,0.2054578662109375,1.0385762890625
-0.28804408203125,0.11845079833984375,0.9931094677734374
-0.20586123046875,0.1280093212890625,0.9936010009765625
-0.13948277343749999,0.16673359375,0.9191337207031249
-0.23941517578125,0.16624341308593749,0.9397781152343749
-0.1686601171875,0.09051050048828126,0.9803296044921875
-0.21655958984375,0.15766525146484375,1.0031858984375
-0.19808060546875,0.17678229736328124,1.0240760595703124
-0.2357680078125,0.05889384765625,0.9960586669921875
-0.20342978515625,0.11011772705078125,1.01989802734375
-0.1881116796875,0.18952699462890624,1.02579642578125
-0.18932740234375,0.12090170166015625,0.9306847509765624
-0.22968939453125,0.1446754638671875,0.9528037451171875
-0.23357970703125,0.18707609130859376,1.0444746875
-0.20099833984375,0.16403760009765625,1.052830751953125
-0.20804953125,0.12286242431640625,0.9754142724609375
-0.2309051171875,0.15717507080078125,0.9931094677734374
-0.14556138671875,0.15570452880859376,0.9665666748046875
-0.19175884765625,0.1260485986328125,0.9336339501953125
-0.16015005859375,0.143204921875,0.9872110693359375
-0.21972046875,0.1584005224609375,1.0393135888671874
-0.21315556640625,0.11796061767578125,1.020389560546875
-0.209022109375,0.1157548046875,0.9980247998046875
-0.24427806640625,0.167713955078125,1.0314490576171875
-0.1944334375,0.07972652587890625,0.9827872705078124
-0.23114826171875,0.1711452197265625,1.00810123046875
-0.25084296875,0.1064413720703125,0.9636174755859375
-0.2095083984375,0.12972495361328126,0.926015185546875
-0.13607875,0.126538779296875,0.9331424169921875
-0.185680234375,0.17090012939453125,0.9395323486328125
-0.2202067578125,0.10717664306640624,1.0078554638671875
-0.1861665234375,0.1799684716796875,1.04742388671875
-0.224583359375,0.12237224365234375,0.9756600390625
-0.13437673828125,0.1436951025390625,1.01399962890625
-0.26664736328125,0.1407540185546875,0.980083837890625
-0.2172890234375,0.0917359521484375,0.9365831494140625
-0.1696326953125,0.19982078857421876,0.967303974609375
-0.29047552734375,0.122617333984375,0.941744248046875
-0.18592337890625,0.17237067138671874,1.01203349609375
-0.2338228515625,0.15766525146484375,1.016948828125
-0.21169669921875,0.1584005224609375,1.035135556640625
-0.1599069140625,0.1731059423828125,1.0228472265625
-0.1958923046875,0.13756784423828125,0.9582106103515625
-0.2357680078125,0.16256705810546876,0.986965302734375
-0.13413359375,0.1652630517578125,1.0149826953125
-0.20829267578125,0.10815700439453126,0.959439443359375
-0.210967265625,0.1172253466796875,0.9520664453125
-0.21193984375,0.19589934326171876,0.9857364697265625
-0.20026890625,0.1152646240234375,0.9478884130859375
-0.27102396484375,0.1515379931640625,0.9990078662109375
-0.17036212890625,0.224574912109375,1.032677890625
-0.1842213671875,0.10325519775390625,1.016457294921875
-0.22725794921875,0.17433139404296874,0.990897568359375
-0.24379177734375002,0.187321181640625,0.972219306640625
-0.06921400390625,0.179478291015625,0.9936010009765625
-0.29169125,0.136342392578125,0.968287041015625
-0.2411171875,0.130460224609375,1.0688055810546875
-0.096203046875,0.16158669677734375,1.0594664501953126
-0.36755234375,0.09737302978515625,0.905370791015625
-0.10106593750000001,0.17040994873046875,0.9901602685546875
-0.1968648828125,0.08756941650390625,0.8928366943359375
-0.2484115234375,0.157910341796875,0.9090572900390625
-0.22434021484375,0.18119392333984374,0.997779033203125
-0.21801845703125,0.09296140380859375,0.9953213671875
-0.230418828125,0.16550814208984374,0.9547698779296875
-0.15358515625,0.14884199951171875,0.9886856689453125
-0.190543125,0.1348718505859375,0.9759058056640625
-0.209022109375,0.1584005224609375,0.9616513427734374
-0.17911533203125,0.1652630517578125,0.99433830078125
-0.21072412109375,0.159871064453125,0.942727314453125
-0.17960162109375,0.1348718505859375,0.9606682763671874
-0.23747001953125,0.13315621826171875,0.965829375
-0.21072412109375,0.16697868408203126,1.016457294921875
-0.1764407421875,0.10864718505859375,1.010558896484375
-0.27637314453125,0.20668331787109376,1.0663479150390625
-0.168173828125,0.14443037353515625,1.0132623291015626
-0.22093619140625,0.174576484375,0.9803296044921875
-0.220693046875,0.1956542529296875,1.023338759765625
-0.1579617578125,0.12678386962890625,0.9759058056640625
-0.20440236328125,0.16991976806640624,0.9614055761718749
-0.21558701171875,0.1280093212890625,0.9442019140625
-0.2095083984375,0.1280093212890625,0.95304951171875
-0.16720125,0.1603612451171875,0.9631259423828125
-0.2085358203125,0.0858537841796875,0.9724650732421874
-0.1555303125,0.12139188232421876,1.007609697265625
-0.1735230078125,0.17261576171875,0.929947451171875
-0.21023783203125002,0.14688127685546876,0.9714820068359376
-0.16598552734375,0.12433296630859375,1.036118623046875
-0.2785614453125,0.1701648583984375,1.0127707958984375
-0.17692703125,0.1505576318359375,1.0722463134765625
-0.2022140625,0.12923477294921876,1.001711298828125
-0.21583015625000002,0.15031254150390624,0.9100403564453124
-0.12951384765625001,0.15521434814453125,0.927981318359375
-0.1944334375,0.1074217333984375,0.9186421875
-0.1492085546875,0.09737302978515625,0.9768888720703125
-0.24476435546875,0.127519140625,1.02186416015625
-0.24719580078125,0.14786163818359374,0.9596852099609375
-0.17522501953125,0.1652630517578125,0.9188879541015624
-0.18300564453125,0.15815543212890626,0.921099853515625
-0.26032560546875,0.1544790771484375,0.926015185546875
-0.13972591796875,0.1231075146484375,0.950591845703125
-0.18251935546875,0.15472416748046874,0.9336339501953125
-0.2279873828125,0.16060633544921876,0.986965302734375
-0.21801845703125,0.1780077490234375,1.0476696533203125
-0.21169669921875,0.17923320068359375,0.9537868115234375
-0.2202067578125,0.13266603759765624,0.9675497412109375
-0.20780638671875,0.1799684716796875,1.048898486328125
-0.25497642578125,0.14148928955078124,0.959439443359375
-0.1579617578125,0.1780077490234375,1.0108046630859375
-0.1968648828125,0.12874459228515625,0.9808211376953125
-0.21072412109375,0.208889130859375,0.9945840673828125
-0.19127255859375,0.127519140625,0.9913891015625
-0.24233291015625,0.14982236083984374,0.98942296875
-0.12416466796875,0.18707609130859376,1.013508095703125
-0.2532744140625,0.11967625,1.016457294921875
-0.20634751953125,0.18438009765625,1.0948568408203125
-0.2488978125,0.1549692578125,1.0879753759765625
-0.23552486328125,0.12727405029296876,1.12312
-0.2474389453125,0.12482314697265626,0.9793465380859375
-0.10617197265625,0.03512008544921875,0.855234404296875
-0.22725794921875,0.15619470947265626,0.8967689599609375
-0.22701480468750002,0.10178465576171875,0.8242678125
-0.2299325390625,0.0936966748046875,0.906353857421875
-0.18543708984375,0.17727247802734375,0.9120064892578125
-0.19248828125,0.09541230712890625,0.9520664453125
-0.168173828125,0.23217271240234374,1.0211268603515624
-0.2464663671875,0.15031254150390624,0.9793465380859375
-0.112736875,0.16060633544921876,1.0334151904296875
-0.27540056640625,0.1691844970703125,0.97271083984375
-0.20245720703125,0.1515379931640625,0.9852449365234375
-0.2406308984375,0.1133039013671875,0.97467697265625
-0.18835482421875,0.1740863037109375,0.9724650732421874
-0.21753216796875,0.13021513427734374,0.9532952783203125
-0.21315556640625,0.16305723876953124,0.938303515625
-0.16185207031249998,0.1642826904296875,0.9360916162109375
-0.1443456640625,0.1848702783203125,1.0184234277343749
-0.1492085546875,0.153988896484375,1.0599579833984376
-0.2785614453125,0.165753232421875,1.034152490234375
-0.09595990234375,0.24001560302734376,1.12410306640625
-0.25935302734375,0.15619470947265626,1.02776255859375
-0.27418484375,0.167713955078125,1.0464408203125
-0.168173828125,0.183399736328125,1.0452119873046875
-0.27248283203125,0.0927163134765625,0.929947451171875
-0.14604767578125,0.11698025634765626,0.8805483642578125
-0.14021220703125,0.0887948681640625,0.8340984765625
-0.22142248046875002,0.14394019287109375,0.92552365234375
-0.16501294921875,0.1534987158203125,0.9808211376953125
-0.207076953125,0.120656611328125,1.0363643896484376
-0.26761994140625,0.17923320068359375,1.1066536376953124
-0.1939471484375,0.15619470947265626,1.0609410498046874
-0.27151025390625,0.21501638916015625,1.056763017578125
-0.22677166015625,0.1201664306640625,1.0309575244140625
-0.19248828125,0.10472573974609375,0.9306847509765624
-0.19832375,0.09443194580078125,0.872929599609375
-0.23139140625,0.0868341455078125,0.879811064453125
-0.16112263671875,0.1172253466796875,0.8554801708984375
-0.197351171875,0.08217742919921875,0.851302138671875
-0.22044990234375,0.1809488330078125,0.9818042041015624
-0.2143712890625,0.1706550390625,1.0437373876953124
-0.2095083984375,0.13340130859375,0.98647376953125
-0.144831953125,0.155949619140625,1.0545511181640626
-0.18106048828125,0.195164072265625,1.0747039794921875
-0.23917203125,0.09933375244140626,1.0688055810546875
-0.263486484375,0.159871064453125,1.06315294921875
-0.2970404296875,0.16599832275390625,0.9940925341796875
-0.17425244140625,0.044188427734375,0.913235322265625
-0.1268392578125,0.08756941650390625,0.8176321142578125
-0.13802390625,0.0848734228515625,0.8471241064453126
-0.199296328125,0.13732275390625,0.9808211376953125
-0.22361078125,0.13340130859375,1.0147369287109376
-0.28366748046875,0.14418528320312501,1.0334151904296875
-0.098148203125,0.18217428466796876,1.006626630859375
-0.288773515625,0.165753232421875,0.9196252539062499
-0.16549923828125,0.1000690234375,1.035135556640625
-0.20586123046875,0.1956542529296875,1.1007552392578126
-0.366579765625,0.1191860693359375,1.0235845263671874
-0.16744439453124998,0.1387932958984375,0.986965302734375
-0.21801845703125,0.08634396484375,0.8805483642578125
-0.23819945312500002,0.0887948681640625,0.8962774267578125
-0.1287844140625,0.12947986328125,0.8734211328125
-0.22336763671875,0.12139188232421876,0.92552365234375
-0.21972046875,0.1084020947265625,1.0211268603515624
-0.19175884765625,0.15717507080078125,1.062661416015625
-0.2182616015625,0.17972338134765625,0.9926179345703126
-0.15480087890625,0.17335103271484376,0.957473310546875
-0.1365650390625,0.16599832275390625,0.9847534033203125
-0.26616107421875,0.05815857666015625,0.962388642578125
-0.16355408203125,0.097127939453125,1.009575830078125
-0.29971501953125,0.07065818359375,0.9469053466796875
-0.19832375,0.0289928271484375,0.9773804052734375
-0.20051205078125,0.10129447509765625,0.977134638671875
-0.24938410156250002,0.0525214990234375,0.9166760546875
-0.10665826171875001,0.177517568359375,1.0324321240234375
-0.2445212109375,0.14197947021484375,1.1051790380859374
-0.25059982421875,0.0897752294921875,1.09952640625
-0.0937716015625,0.13560712158203125,1.0476696533203125
-0.349073359375,0.13462676025390624,1.051847685546875
-0.21704587890625,0.05864875732421875,1.0501273193359375
-0.21364185546875,0.14001874755859375,0.965337841796875
-0.24938410156250002,0.12947986328125,0.9238032861328125
-0.17717017578125,0.04884514404296875,0.9218371533203125
-0.22044990234375,0.04786478271484375,0.8898874951171875
-0.18543708984375,0.04492369873046875,0.8564632373046875
-0.1866528125,0.126538779296875,0.9166760546875
-0.21947732421875,0.13854820556640626,0.956490244140625
-0.1900568359375,0.05668803466796875,0.9818042041015624
-0.257651015625,0.18045865234375,1.0570087841796876
-0.2075632421875,0.11845079833984375,0.9940925341796875
-0.144831953125,0.10570610107421875,0.9599309765625
-0.20634751953125,0.11649007568359375,0.976151572265625
-0.245980078125,0.1044806494140625,1.0363643896484376
-0.14191421875,0.1740863037109375,1.0393135888671874
-0.28196546875,0.11599989501953126,0.9591936767578125
-0.1978374609375,0.04443351806640625,0.9985163330078125
-0.1569891796875,0.14590091552734374,1.0771616455078126
-0.28853037109375,0.07580508056640625,1.009084296875
-0.21607330078125,0.14541073486328124,1.011541962890625
-0.27442798828125,0.17678229736328124,0.9793465380859375
-0.2182616015625,0.09639266845703125,0.859166669921875
-0.18543708984375,0.0530116796875,0.7994453857421875
-0.12076064453125,0.08021670654296875,0.873912666015625
-0.18859796875,-0.02909358154296875,0.938303515625
-0.16404037109375,0.0966377587890625,1.1268064990234374
-0.34810078125,0.15619470947265626,1.1002637060546876
-0.17036212890625,0.05815857666015625,1.0265337255859375
-0.20294349609375,0.12531332763671876,1.0543053515625
-0.3116291015625,0.10766682373046875,1.0511103857421875
-0.16914640625,0.04124734375,1.014491162109375
-0.2488978125,0.1348718505859375,0.983033037109375
-0.28974609375,0.05178622802734375,0.9911433349609375
-0.16525609375,0.01649322021484375,1.0889584423828125
-0.2425760546875,0.10913736572265625,1.08478041015625
-0.2805066015625,0.0584036669921875,0.957473310546875
-0.18689595703125,0.067717099609375,0.965829375
-0.27248283203125,0.077520712890625,0.8717007666015625
-0.18008791015625,0.0495804150390625,0.8569547705078124
-0.24379177734375002,0.03364954345703125,0.875387265625
-0.2756437109375,0.05374695068359375,0.9714820068359376
-0.18349193359375,0.12874459228515625,1.0324321240234375
-0.20926525390625,0.15864561279296874,1.03169482421875
-0.3057936328125,0.057913486328125,1.0176861279296876
-0.21412814453125,0.05325677001953125,1.0034316650390624
-0.2454937890625,0.17727247802734375,0.9434646142578125
-0.18884111328125,0.06624655761718751,0.8431918408203125
-0.24306234375,0.13217585693359374,0.9341254833984375
-0.1501811328125,0.097127939453125,1.0179318945312499
-0.24695265625,0.0819323388671875,1.0093300634765625
-0.3077387890625,0.13609730224609376,1.0619241162109374
-0.16841697265625,0.1446754638671875,1.1218911669921874
-0.26810623046875,0.01796376220703125,1.0543053515625
-0.3038484765625,0.0378160791015625,1.077407412109375
-0.20245720703125,0.071638544921875,1.0339067236328126
-0.30992708984375,0.02972809814453125,0.8997181591796874
-0.1988100390625,0.0819323388671875,0.8653108349609375
-0.234309140625,0.0191892138671875,0.8289373779296875
-0.20804953125,0.1000690234375,1.0230929931640624
-0.33132380859375,0.08021670654296875,1.0879753759765625
-0.12805498046875,0.06845237060546874,1.0919076416015625
-0.33570041015625,0.1358522119140625,1.1022298388671874
-0.24281919921875,0.01306195556640625,1.0840431103515624
-0.2722396875,0.04198261474609375,1.023338759765625
-0.304334765625,0.04492369873046875,1.00220283203125
-0.26372962890625,0.0020328906249999995,0.945676513671875
-0.25497642578125,0.010856142578125,0.8687515673828125
-0.2027003515625,0.049090234375,0.9542783447265625
-0.220693046875,0.0907555908203125,1.035135556640625
-0.33764556640625,0.0672269189453125,1.119679267578125
-0.2649453515625,0.03217900146484375,1.08478041015625
-0.19273142578125,0.08462833251953125,1.0174403613281249
-0.29096181640625,-0.015368522949218751,0.9036504248046875
-0.10763083984374999,-0.01389798095703125,0.9626344091796875
-0.2717533984375,0.10178465576171875,1.0137538623046876
-0.3544225390625,-0.01561361328125,1.056271484375
-0.25594900390624997,0.0829127001953125,1.0103131298828125
-0.212912421875,0.052031318359375,0.8812856640625
-0.2017277734375,0.0294830078125,0.9129895556640625
-0.25862359375,-0.028358310546875,0.98942296875
-0.26081189453125,0.11403917236328125,0.9813126708984374
-0.20026890625,0.11379408203125,0.8785822314453124
-0.279047734375,0.0809519775390625,0.8844806298828125
-0.16647181640625,0.07139345458984375,1.0270252587890625
-0.16695810546875,0.033404453125,1.0992806396484376
-0.263486484375,0.1329111279296875,1.121645400390625
-0.24865466796875,-0.010221625976562499,0.9931094677734374
-0.27807515625,0.06404074462890624,0.9768888720703125
-0.2980130078125,0.03855135009765625,0.95108337890625
-0.20537494140625,0.02531647216796875,0.9926179345703126
-0.2824517578125,0.02041466552734375,0.9434646142578125
-0.2600824609375,0.0348749951171875,1.025304892578125
-0.32840607421875,0.04639424072265625,0.9921264013671875
-0.20415921875,-0.0327699365234375,0.9493630126953125
-0.304334765625,0.06943273193359376,1.009084296875
-0.19613544921875,0.026541923828125,0.9916348681640625
-0.25983931640625,0.04541387939453125,0.9139726220703125
-0.206104375,0.01208159423828125,0.8933282275390625
-0.30457791015625,0.0005623486328125002,0.927981318359375
-0.164283515625,0.0211499365234375,0.9992536328125
-0.29290697265625,0.0309535498046875,1.082322744140625
-0.32840607421875,0.01110123291015625,1.0545511181640626
-0.2722396875,0.03413972412109375,0.98942296875
-0.2416034765625,0.0289928271484375,0.8898874951171875
-0.25838044921875,-0.01169216796875,0.9056165576171875
-0.23406599609375,0.059874208984374996,1.0226014599609374
-0.26154132812499997,0.02531647216796875,1.0319405908203125
-0.27588685546875,-0.01046671630859375,0.9808211376953125
-0.26616107421875,0.0530116796875,0.976151572265625
-0.25838044921875,0.00423870361328125,0.911269189453125
-0.2377131640625,-0.014633251953124999,0.8667854345703125
-0.2722396875,0.06281529296875,0.902913125
-0.29582470703125,-0.061690595703125004,0.89799779296875
-0.2386857421875,-0.049926259765625,0.87047193359375
-0.24379177734375002,-0.01978014892578125,0.8736668994140625
-0.2484115234375,-0.011201987304687501,0.9164302880859375
-0.2523018359375,0.0270321044921875,0.9874568359375
-0.27345541015625,0.03413972412109375,1.0373474560546876
-0.2022140625,0.09688284912109375,1.032186357421875
-0.310170234375,0.04051207275390625,0.984016103515625
-0.24233291015625,0.01747358154296875,1.009575830078125
-0.21510072265625,0.07237381591796875,1.020389560546875
-0.2873146484375,0.0211499365234375,0.9749227392578125
-0.214857578125,-0.051886982421875,0.9717277734375
-0.30020130859375,0.00472888427734375,1.0343982568359376
-0.24768208984375,0.01110123291015625,1.0398051220703124
-0.2056180859375,-0.09012107421875,0.869980400390625
-0.19273142578125,-0.0018885546875000003,0.848352939453125
-0.224583359375,-0.0670825830078125,0.7837163232421875
-0.18689595703125,-0.05899460205078125,0.769707626953125
-0.189570546875,-0.00703545166015625,0.78592822265625
-0.19710802734375,0.09002031982421875,0.9449392138671875
-0.29825615234375,0.057913486328125,1.110831669921875
-0.21218298828125,-0.00507472900390625,1.2430541015625
-0.31576255859375,0.16599832275390625,1.2614865966796875
-0.2571647265625,0.0584036669921875,1.122628466796875
-0.22142248046875002,0.010856142578125,1.012525029296875
-0.2406308984375,0.03462990478515625,0.922082919921875
-0.22774423828125,-0.060710234375,0.9611598095703124
-0.20415921875,-0.11389483642578124,0.908319990234375
-0.1589343359375,-0.0778665576171875,0.828691611328125
-0.209022109375,0.02286556884765625,0.8441749072265625
-0.2182616015625,-0.05899460205078125,1.0309575244140625
-0.2299325390625,-0.006790361328125,1.13589986328125
-0.35369310546875,0.08609887451171874,1.0751955126953125
-0.2484115234375,-0.01438816162109375,1.0073639306640625
-0.1647698046875,0.02090484619140625,0.9090572900390625
-0.345183046875,0.00619942626953125,0.949608779296875
-0.22336763671875,-0.0803174609375,1.00416896484375
-0.23017568359375,0.0329142724609375,1.004660498046875
-0.34688505859375,0.05276658935546875,1.0031858984375
-0.2017277734375,0.05423713134765625,1.072000546875
-0.25011353515625,0.08070688720703124,1.103458671875
-0.3126016796875,0.0574233056640625,1.1282810986328125
-0.1813036328125,0.063795654296875,1.117713134765625
-0.3500459375,0.021885207519531248,1.0633987158203124
-0.27248283203125,0.01551285888671875,1.0820769775390624
-0.376305546875,-0.02468195556640625,1.13786599609375
-0.33618669921875,-0.05409279541015625,0.945676513671875
-0.2211793359375,-0.0180645166015625,0.7724110595703125
-0.2999581640625,-0.050661530761718754,0.709740576171875
-0.26227076171875,-0.083258544921875,0.7242408056640625
-0.2022140625,0.012816865234374999,0.892590927734375
-0.28318119140625,0.057913486328125,0.993846767578125
-0.38724705078125,0.0701680029296875,0.9901602685546875
-0.11468203125,0.0799716162109375,0.9402696484374999
-0.33472783203125,0.0358553564453125,0.9046334912109375
-0.30166017578125,0.0731090869140625,0.9449392138671875
-0.1881116796875,-0.00948635498046875,0.95796484375
-0.26251390625,0.02335574951171875,1.015474228515625
-0.31333111328125,0.0037485229492187503,0.985490703125
-0.31624884765625,-0.0308092138671875,0.92650671875
-0.14993798828125,-0.05703387939453125,0.9154472216796875
-0.32208431640625,0.04149243408203125,1.00810123046875
-0.27783201171875,0.08119706787109375,1.13983212890625
-0.2566784375,0.0672269189453125,1.1803836181640626
-0.26056875,0.12825441162109374,1.06708521484375
-0.22093619140625,0.04590406005859375,0.9375662158203125
-0.1540714453125,0.1162449853515625,1.0235845263671874
-0.26227076171875,0.05276658935546875,1.0963314404296876
-0.20294349609375,-0.032279755859375,1.233714970703125
-0.35028908203125,0.1319307666015625,1.2211808740234376
-0.218747890625,-0.09722869384765626,1.0496357861328125
-0.16598552734375,0.0142874072265625,0.922082919921875
-0.1939471484375,0.03119864013671875,0.941744248046875
-0.144831953125,0.108892275390625,1.12017080078125
-0.3330258203125,0.1329111279296875,1.2477236669921874
-0.3203823046875,0.07433453857421875,1.4241840869140625
-0.27734572265625,0.07384435791015626,1.2437914013671876
-0.24914095703125,0.0633054736328125,1.00220283203125
-0.11443888671875,-0.018554697265625,0.9149556884765625
-0.15966376953125,0.0064445166015625,0.91372685546875
-0.27248283203125,0.05497240234375,1.0319405908203125
-0.2377131640625,0.028257556152343752,1.123611533203125
-0.28658521484375,0.0368357177734375,1.0560257177734376
-0.22336763671875,0.10619628173828125,1.1081282373046875
-0.2542469921875,0.12874459228515625,1.1351625634765625
-0.26810623046875,0.07433453857421875,1.14179826171875
-0.294608984375,0.17261576171875,1.0845346435546874
-0.212912421875,-0.071494208984375,0.9700074072265625
-0.23309341796875,0.05472731201171875,1.071509013671875
-0.1978374609375,0.1064413720703125,1.0009739990234374
-0.20732009765625,0.0373258984375,0.950591845703125
-0.24136033203125,0.08266760986328126,0.9641090087890625
-0.27199654296875,0.081442158203125,0.9759058056640625
-0.22288134765625,-0.008751083984375,0.969270107421875
-0.21753216796875,0.04688442138671875,0.99630443359375
-0.19564916015625,0.04247279541015625,1.02776255859375
-0.36341888671875,0.026296833496093748,0.902421591796875
-0.22531279296875,0.0613447509765625,0.8407341748046875
-0.17862904296875,0.0397768017578125,0.8023945849609375
-0.2450075,0.0515411376953125,0.8559717041015625
-0.28074974609375003,0.026296833496093748,0.89504859375
-0.21947732421875,0.026296833496093748,0.8893959619140624
-0.26275705078125,0.1309504052734375,0.8535140380859375
-0.15066742187499998,-0.00850599365234375,0.83311541015625
-0.20586123046875,0.00791505859375,0.864082001953125
-0.24865466796875,0.12335260498046875,0.989914501953125
-0.23260712890625002,0.1392834765625,1.0385762890625
-0.29582470703125,0.0897752294921875,0.924049052734375
-0.21072412109375,0.1191860693359375,0.9080742236328125
-0.23990146484375,0.04639424072265625,0.93928658203125
-0.2800203125,0.0765403515625,0.9931094677734374
-0.2085358203125,0.024581201171875,0.9547698779296875
-0.286828359375,0.004973974609375,0.965337841796875
-0.209022109375,0.1025199267578125,0.9999909326171875
-0.24865466796875,0.03536517578125,0.88030259765625
-0.20804953125,0.07923634521484375,0.8712092333984375
-0.16720125,0.055952763671875,0.912252255859375
-0.22871681640625,0.05227640869140625,1.0346440234375
-0.2600824609375,0.0770305322265625,1.0643817822265624
-0.30919765625,0.0633054736328125,1.0039231982421875
-0.18397822265625,0.05962911865234375,0.9149556884765625
-0.23941517578125,0.010611052246093749,0.78199595703125
-0.247925234375,0.089285048828125,0.8717007666015625
-0.24719580078125,0.02752228515625,0.93535431640625
-0.226528515625,0.1035002880859375,0.9867195361328125
-0.26761994140625,0.046149150390625,0.9503460791015625
-0.19856689453125,0.04688442138671875,0.9284728515625
-0.1958923046875,0.02482629150390625,0.9405154150390624
-0.25643529296875,0.0348749951171875,0.95108337890625
-0.23066197265625,0.09492212646484376,0.94125271484375
-0.2610550390625,0.010611052246093749,1.019406494140625
-0.28609892578125,0.07065818359375,1.046932353515625
-0.26810623046875,0.08609887451171874,0.9498545458984375
-0.185680234375,0.0731090869140625,0.9277355517578125
-0.26081189453125,0.07335417724609375,0.9827872705078124
-0.21996361328125,0.103010107421875,1.08674654296875
-0.28609892578125,0.02874773681640625,0.9965502001953125
-0.32281375,0.11060790771484375,0.93928658203125
-0.20488865234375,0.04394333740234375,0.883251796875
-0.22968939453125,0.0711483642578125,0.872929599609375
-0.174981875,0.0883046875,1.0142453955078126
-0.31430369140625003,0.0878145068359375,1.0506188525390625
-0.234309140625,0.11158826904296874,1.0732293798828125
-0.2795340234375,0.13413657958984376,0.9842618701171875
-0.183735078125,0.0358553564453125,0.840488408203125
-0.19637859375,0.12972495361328126,0.8712092333984375
-0.29436583984375,0.08413815185546875,0.984016103515625
-0.2279873828125,0.06698182861328125,1.0845346435546874
-0.24476435546875,0.11256863037109376,1.0722463134765625
-0.3067662109375,0.06624655761718751,0.974185439453125
-0.1521262890625,0.0608545703125,0.9818042041015624
-0.3164919921875,0.022620478515625,1.0255506591796875
-0.23795630859375,0.073599267578125,1.1774344189453125
-0.22823052734375,0.11354899169921875,1.1159927685546875
-0.27053767578125,0.01012087158203125,1.0171945947265626
-0.17279357421875,0.08119706787109375,1.0597122167968749
-0.1890842578125,0.0976181201171875,0.9677955078125
-0.2172890234375,0.050070595703125,0.94125271484375
-0.08137123046875,0.1231075146484375,1.0673309814453125
-0.2746711328125,0.05178622802734375,1.12312
-0.27685943359375,0.0008074389648437498,1.065610615234375
-0.16647181640625,0.1544790771484375,1.0083469970703125
-0.24306234375,0.05889384765625,0.9874568359375
-0.27807515625,0.06943273193359376,1.053813818359375
-0.203186640625,0.08021670654296875,1.093136474609375
-0.33813185546875,0.1025199267578125,1.11525546875
-0.25108611328125,0.10668646240234375,0.9552614111328125
-0.17279357421875,0.050070595703125,0.822793212890625
-0.18835482421875,0.08658905517578125,0.875387265625
-0.2357680078125,0.07825598388671876,0.9400238818359374
-0.18227621093750002,0.0623251123046875,0.936828916015625
-0.3446967578125,0.1289896826171875,1.057746083984375
-0.23917203125,0.07335417724609375,1.0307117578125
-0.18300564453125,0.040266982421875,0.9881941357421875
-0.3291355078125,0.1584005224609375,1.0579918505859376
-0.3067662109375,0.040266982421875,1.0324321240234375
-0.21072412109375,0.0956573974609375,0.9906518017578125
-0.28269490234375,0.087324326171875,1.0130165625
-0.18057419921875,0.0535018603515625,1.0904330419921875
-0.27588685546875,0.13952856689453125,1.058729150390625
-0.2386857421875,0.0652661962890625,1.046932353515625
-0.23917203125,0.07237381591796875,1.041033955078125
-0.22920310546875,0.069677822265625,1.0068723974609375
-0.2488978125,-0.0006631030273437505,1.03169482421875
-0.2192341796875,0.02531647216796875,0.952557978515625
-0.21753216796875,0.0829127001953125,0.96288017578125
-0.30603677734375,0.04345315673828125,0.9788550048828125
-0.24379177734375002,0.044188427734375,1.04939001953125
-0.26640421875,0.1652630517578125,1.0825685107421874
-0.21996361328125,0.02335574951171875,1.030220224609375
-0.2707808203125,0.08707923583984375,0.938303515625
-0.20586123046875,0.028502646484374998,0.8938197607421875
-0.20099833984375,0.0672269189453125,0.8530225048828125
-0.22385392578125,0.079481435546875,0.9105318896484375
-0.22482650390625,0.0486000537109375,0.90193005859375
-0.15577345703125,0.0358553564453125,0.922082919921875
-0.21121041015625,0.142224560546875,1.03759322265625
-0.23212083984375,0.0152677685546875,1.0009739990234374
-0.1560166015625,0.04247279541015625,0.9709904736328125
-0.2099946875,0.1466361865234375,0.99827056640625
-0.24938410156250002,0.02776737548828125,0.9695158740234375
-0.2333365625,0.08609887451171874,0.995812900390625
-0.1997826171875,0.1706550390625,1.0742124462890625
-0.2299325390625,0.021885207519531248,1.0402966552734374
-0.26518849609375,0.13217585693359374,1.09264494140625
-0.195406015625,0.09492212646484376,1.076424345703125
-0.28074974609375003,0.04492369873046875,0.9621428759765625
-0.22434021484375,0.099088662109375,0.94715111328125
-0.23528171875,0.03806116943359375,0.9419900146484375
-0.30311904296875003,0.08119706787109375,1.0014655322265624
-0.201241484375,0.08854977783203125,1.0464408203125
-0.25497642578125,0.0368357177734375,1.0599579833984376
-0.2143712890625,0.04320806640625,1.0781447119140626
-0.24914095703125,0.0436982470703125,1.0560257177734376
-0.27540056640625,0.05497240234375,0.993846767578125
-0.24233291015625,0.03610044677734375,0.9336339501953125
-0.2450075,0.1035002880859375,0.938303515625
-0.23649744140625,0.12384278564453124,1.0009739990234374
-0.209022109375,0.0010525292968750002,0.9577190771484375
-0.23357970703125,0.11452935302734375,1.0147369287109376
-0.1997826171875,0.05374695068359375,1.001711298828125
-0.1025248046875,0.028257556152343752,1.028745625
-0.29679728515625,0.064776015625,1.0592206835937499
-0.24306234375,0.11060790771484375,1.1037044384765624
-0.20002576171875,0.050070595703125,0.9985163330078125
-0.28804408203125,0.0407571630859375,0.9867195361328125
-0.19346085937500002,0.128499501953125,1.05135615234375
-0.21023783203125002,0.004973974609375,0.9704989404296875
-0.27588685546875,0.05080586669921875,0.98057537109375
-0.1788721875,0.12335260498046875,1.0130165625
-0.17425244140625,0.06306038330078124,0.9847534033203125
-0.23503857421875,0.05864875732421875,0.9803296044921875
-0.22239505859375,0.08511851318359374,1.0442289208984374
-0.22628537109375,0.0407571630859375,1.02972869140625
-0.255705859375,0.14001874755859375,1.061678349609375
-0.1725504296875,0.0883046875,1.0584833837890626
-0.30117388671875,0.034384814453125,0.9793465380859375
-0.20245720703125,0.10766682373046875,1.0245675927734375
-0.26761994140625,0.11649007568359375,0.9670582080078125
-0.24573693359375,0.06306038330078124,0.955507177734375
-0.25011353515625,0.112813720703125,1.032186357421875
-0.22361078125,0.04002189208984375,1.0407881884765624
-0.209022109375,0.13732275390625,1.12312
-0.26810623046875,0.0015427099609375003,1.0358728564453126
-0.221665625,0.0838930615234375,1.1211538671875
-0.240144609375,0.09835339111328124,1.05528841796875
-0.2299325390625,-0.0121823486328125,1.0174403613281249
-0.2279873828125,0.13511694091796875,1.0914161083984375
-0.21412814453125,0.1211467919921875,1.1371286962890625
-0.26956509765625,0.12531332763671876,1.13786599609375
-0.19710802734375,0.055952763671875,1.0889584423828125
-0.2357680078125,-0.0038492773437499997,1.00220283203125
-0.18203306640625,0.073599267578125,0.9763973388671875
-0.15528716796875,0.0505607763671875,0.93338818359375
-0.17619759765625,-0.04698517578125,0.9105318896484375
-0.23795630859375,0.130460224609375,1.0801108447265624
-0.2338228515625,0.06673673828125,1.2115959765625
-0.26664736328125,0.1191860693359375,1.20962984375
-0.26664736328125,0.05521749267578125,1.0673309814453125
-0.20294349609375,0.0672269189453125,1.0122792626953125
-0.20342978515625,0.108892275390625,0.9837703369140625
-0.20829267578125,0.03928662109375,0.9198710205078124
-0.1851939453125,-0.00507472900390625,0.953541044921875
-0.20464550781250002,0.0887948681640625,0.9124980224609375
-0.20537494140625,0.0008074389648437498,0.852285205078125
-0.20829267578125,0.10374537841796876,0.9626344091796875
-0.15358515625,0.06624655761718751,1.009084296875
-0.21461443359375,0.02286556884765625,0.986965302734375
-0.2425760546875,0.06502110595703126,1.056271484375
-0.2406308984375,0.13511694091796875,1.1120605029296875
-0.27977716796875,0.079481435546875,0.9891772021484375
-0.2411171875,0.1417343798828125,0.9616513427734374
-0.1579617578125,0.11967625,0.9999909326171875
-0.24962724609375,0.07065818359375,1.0110504296875
-0.1861665234375,0.024581201171875,1.009575830078125
-0.11978806640625,0.0584036669921875,0.9238032861328125
-0.1321884375,0.01551285888671875,0.88226873046875
-0.16695810546875,0.01894412353515625,0.95698177734375
-0.10811712890625,-0.00997653564453125,0.96288017578125
-0.2133987109375,0.0701680029296875,1.064627548828125
-0.29144810546875,0.14246965087890626,1.1494170263671875
-0.33229638671875,0.0956573974609375,1.0486527197265625
-0.1633109375,0.06306038330078124,0.9075826904296875
-0.09061072265625,0.177517568359375,0.9547698779296875
-0.31965287109375,0.0289928271484375,0.9606682763671874
-0.2095083984375,0.0593840283203125,0.9931094677734374
-0.1385101953125,0.155949619140625,0.930438984375
-0.214857578125,0.06943273193359376,0.9272440185546875
-0.25157240234375,0.14246965087890626,1.0422627880859374
-0.19127255859375,0.10987263671875,1.033169423828125
-0.1939471484375,0.03610044677734375,0.972219306640625
-0.19759431640625,0.11550971435546875,0.9994993994140625
-0.25935302734375,0.02972809814453125,1.0395593554687501
-0.2542469921875,0.04320806640625,1.0530765185546875
-0.23212083984375,0.10619628173828125,0.9245405859375
-0.27515742187500003,0.044188427734375,0.8328696435546875
-0.18470765625,0.02433611083984375,0.8613785693359375
-0.237226875,0.0760501708984375,0.8785822314453124
-0.15358515625,0.08854977783203125,0.9213456201171875
-0.26154132812499997,0.05889384765625,0.91176072265625
-0.1521262890625,0.06673673828125,0.952557978515625
-0.213885,0.08364797119140625,0.9297016845703125
-0.2085358203125,0.06600146728515625,0.96288017578125
-0.195406015625,0.0868341455078125,0.9685328076171875
-0.19370400390625,0.057913486328125,0.9095488232421876
-0.24184662109375,0.08242251953125,0.9002096923828125
-0.230418828125,0.075559990234375,0.8515479052734375
-0.22336763671875,0.06943273193359376,0.851302138671875
-0.2333365625,0.09810830078125,0.93338818359375
-0.23795630859375,0.0843832421875,0.9754142724609375
-0.2542469921875,0.09394176513671874,1.0334151904296875
-0.1783858984375,0.10668646240234375,1.0348897900390626
-0.24427806640625,0.07139345458984375,0.9351085498046875
-0.1317021484375,0.1025199267578125,0.965829375
-0.21461443359375,0.14541073486328124,1.0142453955078126
-0.20464550781250002,0.1074217333984375,0.9763973388671875
-0.20780638671875,-0.00213364501953125,0.9159387548828125
-0.21947732421875,0.1471263671875,0.964354775390625
-0.1988100390625,0.09394176513671874,1.0181776611328126
-0.21169669921875,0.04002189208984375,1.0759328125
-0.244034921875,0.11943115966796874,1.073475146484375
-0.22239505859375,0.07825598388671876,1.0471781201171875
-0.23917203125,0.0133070458984375,0.9582106103515625
-0.20537494140625,0.0603643896484375,0.9444476806640625
-0.17692703125,0.07580508056640625,0.9115149560546875
-0.20440236328125,0.0387964404296875,0.910286123046875
-0.25108611328125,0.0897752294921875,0.9680412744140625
-0.20197091796875,0.04247279541015625,0.9685328076171875
-0.23649744140625,0.08119706787109375,0.99237216796875
-0.1608794921875,0.12041152099609376,0.97860923828125
-0.2377131640625,0.1505576318359375,0.9756600390625
-0.21655958984375,0.1113431787109375,0.988931435546875
-0.16258150390625,0.16844922607421875,0.987948369140625
-0.2912049609375,0.05668803466796875,0.97860923828125
-0.22871681640625,0.1574201611328125,1.0673309814453125
-0.14993798828125,0.07188363525390624,0.98843990234375
-0.3096839453125,0.07580508056640625,0.985982236328125
-0.098148203125,0.08266760986328126,1.02186416015625
-0.2600824609375,0.08315779052734375,0.9877026025390625
-0.18835482421875,0.1079119140625,1.060695283203125
-0.20683380859375,0.13119549560546875,1.075441279296875
-0.2406308984375,0.08266760986328126,1.0560257177734376
-0.26518849609375,0.10521592041015625,1.066593681640625
-0.18057419921875,0.1000690234375,1.0742124462890625
-0.23357970703125,0.044188427734375,1.07298361328125
-0.18446451171875,0.065756376953125,1.040050888671875
-0.20780638671875,0.06011929931640625,1.02383029296875
-0.21364185546875,0.062080021972656246,0.999745166015625
-0.21558701171875,0.0623251123046875,0.987948369140625
-0.25886673828125,0.057668395996093746,1.0550426513671876
-0.2464663671875,0.07825598388671876,1.1041959716796874
-0.20245720703125,0.1378129345703125,1.0919076416015625
-0.20245720703125,0.0956573974609375,1.009575830078125
-0.2464663671875,0.06109966064453125,0.9940925341796875
-0.20732009765625,0.04933532470703125,1.0031858984375
-0.23747001953125,0.02580665283203125,0.958456376953125
-0.2163164453125,0.087324326171875,1.0184234277343749
-0.3009307421875,0.05815857666015625,1.00023669921875
-0.20586123046875,0.0368357177734375,0.99630443359375
-0.310170234375,0.1476165478515625,1.074458212890625
-0.177899609375,0.0809519775390625,1.03366095703125
-0.23503857421875,0.09688284912109375,1.032186357421875
-0.17522501953125,0.140263837890625,1.0978060400390626
-0.1920019921875,0.10472573974609375,0.98057537109375
-0.22579908203125,0.10962754638671875,0.9717277734375
-0.20002576171875,0.12555841796875,1.0255506591796875
-0.20877896484375,0.048109873046875,0.9783634716796875
-0.20975154296875,0.05080586669921875,0.976151572265625
-0.2231244921875,0.04933532470703125,0.9916348681640625
-0.25157240234375,0.040266982421875,0.999745166015625
-0.197351171875,0.09786321044921875,1.007609697265625
-0.22871681640625,0.08953013916015624,0.9729566064453125
-0.21996361328125,0.12727405029296876,0.984016103515625
-0.2231244921875,0.08609887451171874,0.9965502001953125
-0.25740787109375,0.1235976953125,0.9763973388671875
-0.1881116796875,0.11747043701171875,0.9953213671875
-0.16209521484375,0.0711483642578125,1.06315294921875
-0.21510072265625,0.112813720703125,1.1346710302734375
-0.2172890234375,0.04443351806640625,1.1695698876953124
-0.28391062499999997,0.08266760986328126,1.0373474560546876
-0.20683380859375,0.1035002880859375,0.978117705078125
-0.22968939453125,0.1417343798828125,1.0053977978515625
-0.23357970703125,0.05497240234375,1.0324321240234375
-0.22968939453125,0.093206494140625,1.07494974609375
-0.2192341796875,0.14197947021484375,1.06020375
-0.22774423828125,0.05864875732421875,0.9965502001953125
-0.15723232421875,0.080461796875,0.9375662158203125
-0.2182616015625,0.01551285888671875,0.9478884130859375
-0.24330548828125,0.1456558251953125,1.091661875
-0.24379177734375002,0.04149243408203125,1.0621698828125
-0.27345541015625,0.0765403515625,1.0147369287109376
-0.22385392578125,0.065756376953125,0.9759058056640625
-0.2007551953125,0.06992291259765625,1.000728232421875
-0.2085358203125,0.03217900146484375,0.99630443359375
-0.21996361328125,0.07727562255859374,1.009084296875
-0.2386857421875,0.0789912548828125,1.0147369287109376
-0.23212083984375,0.03806116943359375,0.969761640625
-0.26713365234374997,0.06060947998046875,0.954524111328125
-0.15236943359375,0.06404074462890624,0.925032119140625
-0.22361078125,0.0672269189453125,0.9262609521484375
-0.206104375,0.07531489990234375,0.954032578125
-0.224583359375,0.04541387939453125,1.036118623046875
-0.25886673828125,0.081442158203125,1.106899404296875
-0.1706052734375,0.0682072802734375,1.0127707958984375
-0.2172890234375,0.024091020507812498,1.0058893310546875
-0.26518849609375,0.12923477294921876,0.99237216796875
-0.1827625,0.04590406005859375,0.9198710205078124
-0.22239505859375,0.15815543212890626,1.0004824658203124
-0.19127255859375,0.04712951171875,0.947642646484375
-0.187625390625,0.06624655761718751,1.0211268603515624
-0.242089765625,0.1392834765625,1.07494974609375
-0.16258150390625,0.04786478271484375,1.0226014599609374
-0.30652306640625,0.10399046875,1.031203291015625
-0.15382830078125,0.0946770361328125,1.0692971142578125
-0.27929087890625,0.00276816162109375,0.968287041015625
-0.2805066015625,0.14295983154296876,1.0063808642578125
-0.129270703125,0.07041309326171875,1.0363643896484376
-0.28220861328125,0.09100068115234375,0.9818042041015624
-0.2007551953125,0.0780108935546875,0.9793465380859375
-0.2022140625,0.064776015625,0.9562444775390625
-0.28853037109375,0.044188427734375,0.888658662109375
-0.160393203125,0.04296297607421875,0.9520664453125
-0.2800203125,0.0897752294921875,0.9847534033203125
-0.19029998046875,0.04100225341796875,1.0127707958984375
-0.2416034765625,0.07065818359375,1.0093300634765625
-0.2746711328125,0.05497240234375,1.016948828125
-0.1599069140625,0.08805959716796875,1.043000087890625
-0.20780638671875,0.00987578125,0.9557529443359375
-0.2377131640625,0.09394176513671874,0.9695158740234375
-0.207076953125,0.0789912548828125,1.0270252587890625
-0.31089966796875,0.03904153076171875,1.056271484375
-0.125380390625,0.085363603515625,1.0663479150390625
-0.21655958984375,0.1270289599609375,1.0422627880859374
-0.244034921875,0.00570924560546875,1.024813359375
-0.222638203125,0.1314405859375,1.0412797216796874
-0.21899103515625,0.02139502685546875,1.0068723974609375
-0.26372962890625,-0.00507472900390625,1.0245675927734375
-0.22239505859375,0.07139345458984375,1.01989802734375
-0.222638203125,0.1191860693359375,1.0240760595703124
-0.19248828125,0.062080021972656246,0.98647376953125
-0.267376796875,0.1113431787109375,0.991880634765625
-0.2099946875,0.1162449853515625,1.0289913916015625
-0.31041337890625,0.046149150390625,0.98254150390625
-0.218747890625,0.11305881103515625,1.0171945947265626
-0.1866528125,0.02776737548828125,0.9940925341796875
-0.252788125,0.12555841796875,1.04939001953125
-0.22190876953125,0.0338946337890625,0.983033037109375
-0.21218298828125,0.08119706787109375,0.9975332666015625
-0.28950294921874997,0.081442158203125,0.9677955078125
-0.17327986328125,0.0250713818359375,1.02776255859375
-0.2133987109375,0.09884357177734375,1.097068740234375
-0.26713365234374997,0.02360083984375,1.07101748046875
-0.21218298828125,0.0456589697265625,1.0417712548828124
-0.2411171875,0.110852998046875,0.9756600390625
-0.16209521484375,0.05619785400390625,1.0211268603515624
-0.2513292578125,0.0829127001953125,1.02383029296875
-0.24330548828125,0.075559990234375,1.09854333984375
-0.2075632421875,0.03119864013671875,1.040050888671875
-0.2377131640625,0.05913893798828125,1.0078554638671875
-0.13826705078125,0.0348749951171875,0.9960586669921875
-0.21899103515625,0.0672269189453125,1.0063808642578125
-0.28658521484375,0.0731090869140625,1.08478041015625
-0.205131796875,0.033404453125,1.030220224609375
-0.251815546875,0.050070595703125,0.9960586669921875
-0.27199654296875,0.04051207275390625,1.0550426513671876
-0.16890326171875,0.011346323242187501,0.9626344091796875
-0.21704587890625,0.0059543359375,0.878827998046875
-0.19346085937500002,0.02433611083984375,0.907336923828125
-0.282938046875,0.0603643896484375,0.9385492822265625
-0.1710915625,-0.02737794921875,1.0014655322265624
-0.2328502734375,0.0446786083984375,1.0471781201171875
-0.26324333984375,0.04884514404296875,1.06905134765625
-0.212912421875,-0.016593974609375,0.9992536328125
-0.24330548828125,0.0535018603515625,0.9616513427734374
-0.14896541015625,0.08070688720703124,0.9896687353515625
-0.2824517578125,-0.02149578125,0.9284728515625
-0.263486484375,0.08021670654296875,1.000728232421875
-0.1297569921875,0.06355056396484375,1.0019570654296874
-0.3320532421875,0.01012087158203125,0.921099853515625
-0.14702025390625,0.083402880859375,1.0181776611328126
-0.20197091796875,0.0280124658203125,0.9872110693359375
-0.27418484375,-0.00311400634765625,1.0189149609375
-0.15723232421875,0.02237538818359375,1.0078554638671875
-0.31916658203125,0.0201695751953125,1.0127707958984375
-0.212912421875,0.0780108935546875,1.048406953125
-0.20804953125,-0.04281864013671875,0.9272440185546875
-0.28707150390625,0.09418685546875,0.98843990234375
-0.13802390625,-0.00213364501953125,0.989914501953125
-0.25862359375,0.02286556884765625,0.9439561474609375
-0.209022109375,0.046149150390625,0.9611598095703124
-0.2445212109375,-0.01561361328125,0.9247863525390625
-0.27272597656249997,0.0074248779296875,0.9709904736328125
-0.2377131640625,0.083402880859375,1.004660498046875
-0.23455228515625,0.02139502685546875,1.00220283203125
-0.30020130859375,0.00276816162109375,1.0226014599609374
-0.13826705078125,0.0064445166015625,1.023338759765625
-0.30214646484375,0.02482629150390625,0.9690243408203125
-0.25692158203125,0.0495804150390625,0.993355234375
-0.20537494140625,0.01159141357421875,0.94321884765625
-0.2445212109375,0.0486000537109375,0.9813126708984374
-0.26178447265625,0.03168882080078125,1.00810123046875
-0.1803310546875,-0.00752563232421875,0.9677955078125
-0.263486484375,0.06624655761718751,1.01399962890625
-0.15066742187499998,-0.037916833496093746,1.0147369287109376
-0.23503857421875,0.01551285888671875,0.981066904296875
-0.22531279296875,-0.046249904785156254,1.001711298828125
-0.21655958984375,0.034384814453125,1.040542421875
-0.2474389453125,-0.0347306591796875,0.97271083984375
-0.31235853515625,0.038306259765625,0.965337841796875
-0.21121041015625,0.10962754638671875,0.9955671337890625
-0.24281919921875,0.021885207519531248,0.9739396728515625
-0.2182616015625,0.02580665283203125,1.0130165625
-0.19953947265625,0.03144373046875,1.0083469970703125
-0.16793068359375,0.0059543359375,0.9414984814453125
-0.22482650390625,0.0162481298828125,0.9483799462890625
-0.2834243359375,0.02580665283203125,1.0108046630859375
-0.17133470703125,0.069677822265625,1.00023669921875
-0.28804408203125,0.0451687890625,1.0388220556640624
-0.2722396875,0.03266918212890625,1.1194335009765626
-0.16501294921875,0.04712951171875,1.099034873046875
-0.26154132812499997,0.05472731201171875,1.0289913916015625
-0.2450075,0.02433611083984375,0.94911724609375
-0.17279357421875,-0.00262382568359375,0.871946533203125
-0.23819945312500002,0.0064445166015625,0.831640810546875
-0.1550440234375,-0.01928996826171875,0.914218388671875
-0.20245720703125,0.05080586669921875,1.0073639306640625
-0.26372962890625,-0.00997653564453125,1.0496357861328125
-0.14361623046875,0.0691876416015625,1.1366371630859375
-0.3349709765625,0.04198261474609375,1.0739666796875
-0.20391607421875,-0.0332601171875,0.9874568359375
-0.22920310546875,0.030708459472656248,0.9921264013671875
-0.24695265625,0.026541923828125,0.9577190771484375
-0.2328502734375,0.01894412353515625,0.9596852099609375
-0.286828359375,0.04786478271484375,0.967303974609375
-0.20804953125,-0.00311400634765625,0.9970417333984375
-0.1861665234375,0.03364954345703125,0.9798380712890625
-0.21169669921875,-0.0288484912109375,0.968287041015625
-0.16549923828125,0.04247279541015625,0.990897568359375
-0.20537494140625,0.09639266845703125,0.9626344091796875
-0.21193984375,-0.00777072265625,0.924049052734375
-0.22725794921875,0.0672269189453125,1.028254091796875
-0.30627992187499997,0.0378160791015625,1.0058893310546875
-0.18835482421875,0.02090484619140625,0.979100771484375
-0.263486484375,0.0829127001953125,0.9827872705078124
-0.20804953125,0.05570767333984375,1.032677890625
-0.24087404296875,0.01404231689453125,0.9955671337890625
-0.253760703125,0.048109873046875,0.97860923828125
-0.19127255859375,-0.0308092138671875,0.8943112939453125
-0.19808060546875,0.03168882080078125,0.9191337207031249
-0.23139140625,0.0451687890625,0.9945840673828125
-0.19029998046875,0.032424091796875,1.016457294921875
-0.26032560546875,0.0451687890625,0.9813126708984374
-0.21218298828125,0.01600303955078125,0.9360916162109375
-0.20464550781250002,0.0319339111328125,0.958456376953125
-0.24525064453125,0.0191892138671875,0.99433830078125
-0.23552486328125,-0.03448556884765625,0.99040603515625
-0.304334765625,0.055952763671875,0.9881941357421875
-0.2255559375,-0.030319033203124998,0.9351085498046875
-0.210967265625,0.04639424072265625,0.9009469921875
-0.20026890625,0.0985984814453125,0.986965302734375
-0.19953947265625,0.0162481298828125,0.981066904296875
-0.21583015625000002,0.0691876416015625,1.025304892578125
-0.265431640625,0.069677822265625,1.0511103857421875
-0.25789416015625,0.03855135009765625,1.0132623291015626
-0.22239505859375,0.004973974609375,1.0240760595703124
-0.16890326171875,-0.02076051025390625,0.948625712890625
-0.220693046875,-0.02125069091796875,0.887675595703125
-0.2503566796875,0.0289928271484375,0.929947451171875
-0.19856689453125,-0.0190448779296875,0.96877857421875
-0.24695265625,0.011346323242187501,1.00220283203125
-0.2484115234375,0.052031318359375,1.0324321240234375
-0.2357680078125,0.0544822216796875,1.0393135888671874
-0.2104809765625,0.06698182861328125,0.9793465380859375
-0.26081189453125,0.00399361328125,0.9365831494140625
-0.24695265625,-0.014633251953124999,0.9756600390625
-0.17668388671875,-0.0121823486328125,0.991880634765625
-0.18106048828125,0.0012976196289062499,0.9562444775390625
-0.25594900390624997,-0.037916833496093746,0.9483799462890625
-0.2668905078125,0.04002189208984375,0.9680412744140625
-0.25789416015625,0.01992448486328125,0.9518206787109375
-0.19808060546875,0.05815857666015625,0.9695158740234375
-0.2454937890625,0.0495804150390625,1.0668394482421875
-0.2581373046875,-0.04134809814453125,1.04939001953125
-0.2133987109375,-0.0151234326171875,1.03661015625
-0.20440236328125,0.021885207519531248,0.9975332666015625
-0.30652306640625,-0.023456503906250002,0.9557529443359375
-0.22044990234375,-0.0180645166015625,0.96288017578125
-0.25084296875,0.00766996826171875,0.9803296044921875
-0.2989855859375,0.0152677685546875,0.9936010009765625
-0.1920019921875,0.01747358154296875,1.041033955078125
-0.26859251953125,0.04247279541015625,1.02972869140625
-0.21072412109375,0.015022678222656249,1.032677890625
-0.18300564453125,-0.013407800292968751,1.0127707958984375
-0.26129818359375,-0.01585870361328125,1.0756870458984376
-0.19346085937500002,0.0593840283203125,1.07691587890625
-0.23212083984375,0.01012087158203125,1.0004824658203124
-0.28634207031250003,-0.01953505859375,1.07101748046875
-0.24427806640625,-0.00458454833984375,1.110831669921875
-0.27807515625,-0.04870080810546875,1.101984072265625
-0.23649744140625,-0.06683749267578125,1.0385762890625
-0.24938410156250002,-0.03644629150390625,0.9768888720703125
-0.25400384765625,-0.0543378857421875,0.950591845703125
-0.2221519140625,0.015022678222656249,1.0346440234375
-0.25838044921875,-0.01928996826171875,1.0673309814453125
-0.249870390625,-0.01634888427734375,1.0975602734375
-0.16720125,0.02923791748046875,1.0240760595703124
-0.22920310546875,-0.06536695068359374,0.9402696484374999
-0.18300564453125,-0.01879978759765625,0.989914501953125
-0.24476435546875,-0.00801581298828125,0.9867195361328125
-0.23698373046875,-0.0935523388671875,0.9520664453125
-0.2022140625,-0.02321141357421875,0.950591845703125
-0.3330258203125,-0.036201201171875,0.9166760546875
-0.14993798828125,-0.03129939453125,0.9400238818359374
-0.230418828125,-0.01193725830078125,0.9414984814453125
-0.255705859375,-0.028113220214843748,0.9822957373046874
-0.16841697265625,-0.05409279541015625,0.937811982421875
-0.2338228515625,-0.02027032958984375,0.9481341796875
-0.18057419921875,-0.07173929931640625,0.9242948193359375
-0.19419029296875,-0.046740085449218746,0.9442019140625
-0.20342978515625,-0.01879978759765625,0.9813126708984374
-0.17717017578125,-0.044044091796875,0.932896650390625
-0.251815546875,0.0515411376953125,0.94125271484375
-0.24379177734375002,0.00987578125,1.0044147314453125
-0.1832487890625,0.0451687890625,1.0343982568359376
-0.29193439453125003,0.04394333740234375,1.01399962890625
-0.15091056640625,0.010856142578125,0.97369390625
-0.2309051171875,0.04492369873046875,0.987948369140625
-0.21583015625000002,-0.035711020507812496,1.0339067236328126
-0.26275705078125,-0.00262382568359375,1.053813818359375
-0.2309051171875,0.02580665283203125,1.0346440234375
-0.24281919921875,0.02433611083984375,0.918150654296875
-0.2153438671875,0.0819323388671875,0.9414984814453125
-0.2250696484375,0.0054641552734375,1.000728232421875
-0.2240970703125,-0.09404251953125001,1.0520934521484375
-0.27296912109375,-0.057278969726562504,1.102967138671875
-0.15747546875,-0.0567887890625,1.1164843017578125
-0.2163164453125,-0.03889719482421875,1.056271484375
-0.29436583984375,-0.06095532470703125,1.0373474560546876
-0.30141703125,0.0201695751953125,1.062661416015625
-0.2659179296875,-0.022476142578125,1.012525029296875
-0.23163455078125,-0.06340622802734375,0.9891772021484375
-0.152612578125,-0.01585870361328125,0.932896650390625
-0.218747890625,-0.0690433056640625,0.8643277685546875
-0.203186640625,-0.07173929931640625,0.866048134765625
-0.2017277734375,-0.0013983740234375002,0.8156659814453124
-0.20537494140625,-0.051886982421875,0.7837163232421875
-0.27613,-0.0710040283203125,0.8618701025390625
-0.20099833984375,-0.01928996826171875,0.920116787109375
-0.32159802734375,0.036345537109375,0.9191337207031249
-0.12951384765625001,-0.029338671875,1.02972869140625
-0.273212265625,0.07825598388671876,1.08478041015625
-0.25862359375,0.1378129345703125,1.0063808642578125
-0.27880458984375,0.07629526123046874,1.03661015625
-0.32864921874999997,0.138303115234375,1.11230626953125
-0.33667298828125003,0.03806116943359375,1.079865078125
-0.23528171875,0.0074248779296875,1.0427543212890624
-0.2192341796875,0.02286556884765625,0.867522734375
-0.10519939453125,-0.0690433056640625,0.7529954980468749
-0.041495527343750005,-0.07958218994140626,0.8970147265625
-0.170118984375,0.05178622802734375,1.0766701123046876
-0.30603677734375,0.1142842626953125,1.2251131396484376
-0.368524921875,0.03561026611328125,1.420497587890625
-0.3699837890625,0.11403917236328125,1.363479736328125
-0.30409162109375,0.09492212646484376,1.094119541015625
-0.17765646484375,-0.0425735498046875,0.9149556884765625
-0.2036729296875,-0.15997181884765624,0.83704767578125
-0.25303126953125,-0.0180645166015625,0.8721922998046875
-0.1676875390625,-0.11561046875,0.8751414990234375
-0.21412814453125,-0.17639287109375001,0.98450763671875
-0.26324333984375,-0.057278969726562504,1.1656376220703124
-0.2411171875,-0.0425735498046875,1.0948568408203125
-0.21753216796875,-0.0371815625,0.93732044921875
-0.20804953125,-0.03742665283203125,0.907336923828125
-0.24573693359375,-0.07909200927734375,0.8928366943359375
-0.226528515625,-0.010221625976562499,0.9400238818359374
-0.29582470703125,-0.01683906494140625,0.9931094677734374
-0.29485212890625,-0.03301502685546875,0.97664310546875
-0.2659179296875,0.0025230712890624996,0.8741584326171875
-0.25084296875,-0.0366913818359375,0.9636174755859375
-0.3145468359375,0.030708459472656248,0.9832788037109375
-0.1890842578125,-0.01438816162109375,0.936828916015625
-0.061190234375,0.0037485229492187503,1.0179318945312499
-0.1599069140625,0.06404074462890624,1.2374014697265625
-0.38627447265625,0.00619942626953125,1.3089195507812499
-0.190543125,-0.0837487255859375,1.197341513671875
-0.24768208984375,0.104970830078125,1.15359505859375
-0.27880458984375,-0.06193568603515625,1.1469593603515624
-0.3719289453125,0.00766996826171875,1.140323662109375
-0.2182616015625,0.02360083984375,0.9896687353515625
-0.19273142578125,-0.08595453857421875,0.8572005371093749
-0.20634751953125,-0.085219267578125,0.799199619140625
-0.09936392578125,-0.0768861962890625,0.9223286865234375
-0.28269490234375,-0.05409279541015625,1.020389560546875
-0.29533841796875,0.13732275390625,1.0363643896484376
-0.20732009765625,0.0407571630859375,0.985982236328125
-0.23260712890625002,0.040266982421875,0.974185439453125
-0.19078626953125,0.04002189208984375,0.8810398974609375
-0.1735230078125,-0.09379742919921875,0.8756330322265625
-0.13413359375,-0.0837487255859375,0.9921264013671875
-0.335457265625,-0.0464949951171875,1.0255506591796875
-0.2639727734375,-0.01144707763671875,1.0756870458984376
-0.28172232421875,-0.0317895751953125,1.006626630859375
-0.2484115234375,0.06060947998046875,1.040542421875
-0.166228671875,-0.00801581298828125,1.030220224609375
-0.18738224609375,-0.02860340087890625,0.95108337890625
-0.1788721875,0.07188363525390624,0.889641728515625
-0.11735662109375,-0.112669384765625,0.9650920751953125
-0.20829267578125,-0.030319033203124998,1.1292641650390625
-0.1949197265625,0.06992291259765625,1.2015195458984376
-0.26810623046875,-0.0190448779296875,1.1828412841796876
-0.29047552734375,0.05472731201171875,1.0638902490234374
-0.28415376953125,0.03757098876953125,0.944693447265625
-0.1988100390625,0.02041466552734375,0.9252778857421875
-0.234309140625,0.0358553564453125,0.91077765625
-0.1706052734375,0.022620478515625,0.90389619140625
-0.158448046875,-0.0229663232421875,0.928964384765625
-0.27345541015625,-0.01389798095703125,0.954032578125
-0.2338228515625,-0.0161037939453125,1.064627548828125
-0.17862904296875,-0.020515419921875,1.11230626953125
-0.2450075,0.04982550537109375,1.1086197705078125
-0.2367405859375,7.216796875000007e-05,0.995812900390625
-0.232363984375,-0.0268877685546875,0.911269189453125
-0.24136033203125,0.0358553564453125,0.8997181591796874
-0.24427806640625,0.0025230712890624996,0.9218371533203125
-0.22239505859375,-0.032279755859375,0.979100771484375
-0.28634207031250003,-0.02321141357421875,0.92355751953125
-0.2931501171875,-0.044534272460937496,0.875387265625
-0.2095083984375,-0.02468195556640625,0.8928366943359375
-0.21266927734375,0.02752228515625,0.828200078125
-0.207076953125,-0.0602200537109375,0.7615973291015625
-0.14896541015625,0.00325834228515625,0.75053783203125
-0.12854126953125,-0.0009081933593750001,0.767741494140625
-0.21947732421875,0.0172284912109375,0.9449392138671875
-0.2425760546875,0.021640117187500002,1.118696201171875
-0.3349709765625,0.0584036669921875,1.169815654296875
-0.31089966796875,0.0878145068359375,1.088221142578125
-0.2795340234375,0.0740894482421875,0.9631259423828125
-0.170118984375,-0.0327699365234375,0.8368019091796874
-0.08672041015625,0.0182088525390625,0.7947758203124999
-0.1958923046875,0.011346323242187501,0.9341254833984375
-0.24306234375,-0.068553125,1.03661015625
-0.22385392578125,-0.03522083984375,1.1336879638671875
-0.27199654296875,0.07090327392578125,1.1690783544921874
-0.27613,0.0191892138671875,1.1248403662109374
-0.2736985546875,0.0137972265625,1.064627548828125
-0.3096839453125,0.02237538818359375,1.069542880859375
-0.23357970703125,-0.09330724853515625,0.9827872705078124
-0.18349193359375,-0.0827683642578125,0.90193005859375
-0.22871681640625,-0.012427438964843749,0.7851909228515626
-0.11200744140625,-0.0043394580078125,0.804606484375
-0.29193439453125003,0.02874773681640625,0.993846767578125
-0.32889236328125,-0.04330882080078125,1.13196759765625
-0.2843969140625,0.00178780029296875,1.1759598193359375
-0.30919765625,-0.0028689160156250004,1.0280083251953125
-0.20197091796875,-0.06144550537109375,0.9164302880859375
-0.160393203125,0.04247279541015625,0.8923451611328125
-0.2007551953125,-0.11364974609375,0.9609140429687499
-0.22336763671875,-0.057769150390625,1.106899404296875
-0.30749564453125,-0.08105273193359375,1.041033955078125
-0.24427806640625,-0.14869766357421876,0.8159117480468749
-0.086477265625,0.030463369140625002,0.8365561425781249
-0.32986494140625,0.013552136230468751,0.9439561474609375
-0.23309341796875,-0.05654369873046875,1.0346440234375
-0.16890326171875,0.07090327392578125,1.10247560546875
-0.31381740234375,0.05105095703125,1.182595517578125
-0.18446451171875,0.02482629150390625,1.164900322265625
-0.3072525,0.11109808837890625,1.2093840771484374
-0.32451576171875,0.0701680029296875,1.2049602783203124
-0.25157240234375,-0.046740085449218746,1.0810939111328124
-0.28269490234375,0.0123266845703125,1.0589749169921876
-0.20804953125,-0.0332601171875,1.06905134765625
-0.34032015625,-0.07443529296875,0.9277355517578125
-0.10276794921875,-0.1023755908203125,0.8102591162109375
-0.183735078125,-0.08423890625,0.9110234228515625
-0.27394169921875,-0.07811164794921875,1.0599579833984376
-0.18592337890625,-0.07026875732421875,1.13000146484375
-0.2902323828125,-0.0082609033203125,1.1617053564453126
-0.38773333984375,0.00791505859375,1.224867373046875
-0.28974609375,-0.10065995849609374,1.17817171875
-0.32986494140625,0.01012087158203125,1.0840431103515624
-0.2571647265625,-0.02958376220703125,0.99237216796875
-0.30360533203125,-0.15163874755859374,0.7802755908203125
-0.12562353515625,-0.095022880859375,0.7075286767578125
-0.13875333984375,-0.092081796875,0.746114033203125
-0.21947732421875,-0.08987598388671875,0.8589209033203125
-0.25157240234375,0.04443351806640625,1.111814736328125
-0.29825615234375,0.013552136230468751,1.1604765234375
-0.22482650390625,-0.0092412646484375,1.1454847607421874
-0.314060546875,0.012816865234374999,1.112797802734375
-0.20586123046875,-0.0455146337890625,0.9016842919921875
-0.21704587890625,-0.11193411376953125,0.7237492724609375
-0.2416034765625,-0.08840544189453126,0.6190527001953126
-0.214857578125,-0.1509034765625,0.5374581884765625
0.012725703124999998,-0.10016977783203125,0.6244595654296875
-0.214857578125,0.0103659619140625,0.9402696484374999
-0.3301080859375,0.1133039013671875,1.135408330078125
-0.22871681640625,0.08511851318359374,1.219952041015625
-0.22871681640625,0.08903995849609375,1.2949108544921875
-0.2902323828125,0.089285048828125,1.2187232080078125
-0.14191421875,0.040266982421875,1.1685868212890624
-0.199296328125,0.14148928955078124,1.2885209228515624
-0.39843169921875,-0.0332601171875,1.2079094775390624
-0.23260712890625002,-0.06683749267578125,1.0771616455078126
-0.28391062499999997,-0.13105115966796876,0.9041419580078125
-0.21461443359375,-0.08546435791015625,0.8254966455078125
-0.1676875390625,-0.0327699365234375,0.8078014501953125
-0.14264365234375,-0.08963089355468751,0.8871840625
-0.27637314453125,-0.1033559521484375,1.0840431103515624
-0.399647421875,-0.05605351806640625,1.1459762939453124
-0.18300564453125,-0.0435539111328125,1.1774344189453125
-0.26567478515625,0.01012087158203125,1.1395863623046876
-0.1744955859375,0.07188363525390624,1.1499085595703125
-0.31770771484375,0.06257020263671875,1.091170341796875
-0.28269490234375,-0.09379742919921875,1.01989802734375
-0.3038484765625,-0.05556333740234375,0.9306847509765624
-0.25692158203125,-0.13056097900390626,0.7866655224609375
-0.1200312109375,-0.17516741943359376,0.8058353173828126
-0.15723232421875,-0.136198056640625,1.0147369287109376
-0.36244630859375,-0.024436865234375,1.2487067333984374
-0.33813185546875,-0.04723026611328125,1.268613828125
-0.27272597656249997,0.00423870361328125,1.0919076416015625
-0.280992890625,-0.0013983740234375002,0.8984893261718749
-0.13680818359375,-0.059484782714843754,0.7807671240234375
-0.2182616015625,-0.06095532470703125,0.762826162109375
-0.28658521484375,-0.11683592041015625,0.789368955078125
-0.38092529296875,-0.023456503906250002,0.7620888623046875
-0.20634751953125,-0.0651218603515625,0.7876485888671875
-0.17911533203125,0.0142874072265625,0.8471241064453126
-0.2892598046875,0.01012087158203125,1.000728232421875
-0.22434021484375,0.0789912548828125,1.14573052734375
-0.16258150390625,0.02923791748046875,1.1327048974609375
-0.3067662109375,0.01208159423828125,1.16932412109375
-0.177899609375,0.02237538818359375,1.1223827001953124
-0.234309140625,-0.06340622802734375,1.0653648486328124
-0.29509527343749997,0.01183650390625,1.120662333984375
-0.26713365234374997,-0.02860340087890625,1.0589749169921876
-0.2766162890625,-0.059484782714843754,0.9665666748046875
-0.19759431640625,-0.07664110595703125,0.9798380712890625
-0.271267109375,-0.0935523388671875,0.958456376953125
-0.24379177734375002,-0.110708662109375,0.981066904296875
-0.14969484375,-0.13595296630859374,0.99630443359375
-0.30871136718750003,-0.09183670654296874,0.99040603515625
-0.160393203125,-0.09379742919921875,0.933879716796875
-0.24038775390625,-0.07860182861328124,0.8697346337890625
-0.224583359375,-0.06046514404296875,0.904387724609375
-0.271267109375,-0.04526954345703125,0.993355234375
-0.242089765625,-0.05850442138671875,1.0457035205078125
-0.2581373046875,-0.06193568603515625,0.99237216796875
-0.20051205078125,-0.0415931884765625,0.9552614111328125
-0.22288134765625,-0.03129939453125,1.0181776611328126
-0.195406015625,-0.069533486328125,1.1164843017578125
-0.26713365234374997,-0.00458454833984375,1.1041959716796874
-0.30798193359375,-0.09232688720703125,1.0717547802734375
-0.16549923828125,0.06109966064453125,1.1054248046875
-0.26640421875,-0.0268877685546875,1.0407881884765624
-0.3301080859375,0.0250713818359375,1.06806828125
-0.19856689453125,-0.02419177490234375,1.083305810546875
-0.27272597656249997,-0.08203309326171875,1.03562708984375
-0.2523018359375,-0.0592396923828125,0.901438525390625
-0.11249373046875,-0.07370002197265625,0.8210728466796875
-0.1317021484375,-0.14281549560546875,0.8141913818359375
-0.14750654296875,-0.1406096826171875,0.9324051171875
-0.2333365625,-0.083258544921875,1.1027213720703124
-0.3033621875,-0.091101435546875,1.1071451708984374
-0.3067662109375,-0.059484782714843754,1.1132893359375
-0.31697828125,0.0133070458984375,1.110831669921875
-0.34396732421875,-0.05458297607421875,0.9759058056640625
-0.19248828125,-0.0023787353515625003,0.953541044921875
-0.2474389453125,-0.0268877685546875,0.913235322265625
-0.242089765625,-0.05874951171875,0.8972604931640625
-0.226528515625,-0.055073156738281254,0.920116787109375
-0.24184662109375,-0.07419020263671874,0.9513291455078126
-0.1744955859375,-0.013652890625,0.9095488232421876
-0.24038775390625,-0.07811164794921875,0.8815314306640625
-0.18932740234375,-0.1278649853515625,0.8967689599609375
-0.2775888671875,-0.06242586669921875,0.920116787109375
-0.25084296875,-0.0621807763671875,0.9660751416015625
-0.26032560546875,-0.06634731201171876,0.9631259423828125
-0.30944080078125,-0.040122646484374996,1.004660498046875
-0.2912049609375,-0.03154448486328125,0.977626171875
-0.25303126953125,-0.0567887890625,0.8402426416015625
-0.1657423828125,0.07433453857421875,0.8653108349609375
