ax,ay,az
-0.39818855468750003,-0.0016434643554687498,0.94715111328125
-0.41496552734375003,0.07580508056640625,1.1386032958984376
-0.3301080859375,0.11599989501953126,1.158510390625
-0.603888828125,0.0486000537109375,1.1371286962890625
-0.44608802734374997,0.065756376953125,1.011541962890625
-0.28998923828125,0.030708459472656248,0.6925369140625
-0.04854671875,-0.02762303955078125,0.75250396484375
-0.12756869140625,-0.09134652587890625,1.1518746923828125
-0.39818855468750003,0.0623251123046875,1.42098912109375
-0.52875716796875,0.04712951171875,1.379208798828125
-0.5671740039062501,0.0765403515625,1.1041959716796874
-0.32597462890625,-0.0857094482421875,0.638959794921875
-0.24427806640625,-0.177373232421875,0.529347890625
-0.1696326953125,-0.20261753662109375,0.5217291259765625
-0.280992890625,-0.2268814794921875,0.694994580078125
-0.3767918359375,-0.16389326416015626,0.868997333984375
-0.22239505859375,-0.15016820556640625,0.9419900146484375
-0.0743200390625,-0.15457983154296875,1.056271484375
-0.3874901953125,-0.20384298828125,1.159001923828125
-0.30117388671875,-0.3082514697265625,1.1710444873046875
-0.32402947265625,-0.18595139404296876,1.2548508984375
-0.50371328125,-0.2254109375,1.09264494140625
-0.30798193359375,-0.09379742919921875,0.9233117529296875
-0.32548833984375003,-0.2058037109375,0.6544430908203125
-0.244034921875,-0.02737794921875,0.6008659716796875
-0.10860341796875,0.0250713818359375,0.59619640625
-0.1482359765625,-0.028113220214843748,0.948625712890625
-0.3787369921875,0.04712951171875,1.3833868310546875
-0.5265688671875,0.04590406005859375,1.606788671875
-0.5071173046875,-0.02174087158203125,1.5514911865234375
-0.46456701171875,0.062080021972656246,1.31481794921875
-0.384086171875,-0.06536695068359374,0.9301932177734376
-0.32062544921875,-0.1562954638671875,0.81738634765625
-0.37995271484375,-0.1043363134765625,0.7242408056640625
-0.31965287109375,-0.13154134033203124,0.612417001953125
-0.3553951171875,-0.13644314697265625,0.6399428613281251
-0.46505330078125,-0.06732767333984375,0.59914560546875
-0.210967265625,-0.04919098876953125,0.605535537109375
-0.1910294140625,-0.0308092138671875,0.754961630859375
-0.399647421875,0.0103659619140625,1.013508095703125
-0.48742259765625,-0.0592396923828125,1.1762055859375
-0.32257060546875,-0.1033559521484375,1.1587561572265626
-0.2989855859375,-0.091101435546875,1.2506728662109374
-0.46019041015625,-0.157766005859375,1.260749296875
-0.60704970703125,-0.0729647509765625,1.1764513525390625
-0.3690112109375,-0.09036616455078125,1.0221099267578124
-0.1239215234375,-0.12541408203125,1.0388220556640624
-0.49179919921875,-0.2082546142578125,1.243545634765625
-0.46942990234375,-0.255802138671875,1.3099026171875
-0.42055785156250003,-0.2180582275390625,0.8382765087890625
-0.2853694921875,-0.24134180908203126,0.552941484375
-0.28901666015625,-0.2131564208984375,0.4194902197265625
-0.15382830078125,-0.20948006591796875,0.3624723681640625
-0.174981875,-0.26094903564453126,0.44775337890625
-0.33472783203125,-0.3004085791015625,0.5743231787109375
-0.35223423828125,-0.2886442431640625,0.686146982421875
-0.43782111328125,-0.16046199951171874,0.9196252539062499
-0.430769921875,-0.1053166748046875,0.9955671337890625
-0.2892598046875,-0.0121823486328125,1.0346440234375
-0.34810078125,0.0731090869140625,1.311377216796875
-0.595135625,0.04786478271484375,1.4396673828125
-0.3694975,-0.1273748046875,1.065610615234375
-0.21947732421875,-0.17810850341796874,0.6925369140625
-0.09134015625,-0.18791211669921876,0.5118984619140625
-0.067025703125,-0.124433720703125,0.636010595703125
-0.24938410156250002,-0.13448242431640625,0.7478343994140625
-0.54918130859375,-0.0415931884765625,0.840488408203125
-0.49714837890625,0.0035034326171875,0.83704767578125
-0.21753216796875,-0.16291290283203125,0.8368019091796874
-0.46991619140625,0.01796376220703125,1.0609410498046874
-0.39259623046875003,-0.13325697265625,1.1228742333984374
-0.28464005859375,-0.17712814208984376,1.08379734375
-0.34980279296875,-0.12712971435546874,1.1946380810546875
-0.3670660546875,-0.21291133056640624,1.3020380859375
-0.391866796875,-0.2058037109375,1.260749296875
-0.27199654296875,0.01698340087890625,1.0978060400390626
-0.24476435546875,-0.0788469189453125,0.8525309716796875
-0.26324333984375,-0.10507158447265624,0.7792925244140625
-0.30895451171875,-0.08203309326171875,0.837539208984375
-0.32402947265625,-0.09330724853515625,0.98647376953125
-0.3797095703125,-0.10654212646484375,1.05233921875
-0.28804408203125,-0.1935491943359375,1.0031858984375
-0.465782734375,-0.2643803002929688,0.9026673583984375
-0.4049966015625,-0.3258979736328125,0.8387680419921875
-0.22434021484375,-0.37222004638671874,0.8515479052734375
-0.34153587890625,-0.4192773901367188,0.9835245703125
-0.44900576171875,-0.38937636962890626,1.1371286962890625
-0.162338359375,-0.25604722900390625,1.0668394482421875
-0.18592337890625,-0.104826494140625,0.998762099609375
-0.2892598046875,-0.18840229736328126,0.8559717041015625
-0.24330548828125,-0.2239403955078125,0.773148359375
-0.2279873828125,-0.055808427734375,0.7552073974609375
-0.40378087890625003,-0.15261910888671876,0.6367478955078125
-0.4691867578125,-0.14232531494140624,0.61979
-0.255705859375,-0.1768830517578125,0.5384412548828125
-0.053409609375,-0.170510703125,0.44013461425781253
-0.09134015625,-0.198941181640625,0.37205726562499997
-0.0801555078125,-0.1866866650390625,0.5391785546875
-0.04441326171875,-0.22810693115234376,0.601603271484375
-0.103983671875,-0.314623818359375,0.7193254736328125
-0.31041337890625,-0.23153819580078125,0.718588173828125
-0.33229638671875,-0.3815334790039063,0.9056165576171875
-0.018396796875,-0.0612004150390625,1.443108115234375
-0.16525609375,0.3309441162109375,1.6964934814453125
-0.40062,0.544172705078125,1.937098984375
-0.48766574218750003,0.5012818969726562,1.7520367333984375
-0.43538966796875,0.4005497705078125,1.3570898046875
-0.517329375,0.3213855932617187,0.9606682763671874
-0.66929470703125,0.16991976806640624,0.9088115234375
-0.24573693359375,0.12335260498046875,0.4750334716796875
-0.1842213671875,-0.030319033203124998,0.506245830078125
-0.286828359375,-0.09012107421875,0.5138645947265625
-0.18081734375,-0.3180550830078125,0.9891772021484375
-0.2177753125,-0.3783473046875,1.6316110986328125
-0.53605150390625,-0.34109357421875,2.0567873193359376
-0.741994921875,-0.0759058349609375,2.129718558349609
-0.76947025390625,-0.059729873046875,1.695756181640625
-0.75634044921875,-0.081297822265625,1.302529619140625
-0.6461959765625,-0.18938265869140625,0.924049052734375
-0.2955815625,-0.23889090576171876,0.5035423974609375
-0.1900568359375,-0.238155634765625,0.25310623046875
-0.13729447265625,-0.2121760595703125,0.133663662109375
-0.142886796875,-0.22026404052734375,0.1538165234375
-0.1511537109375,-0.23521455078125,0.225088837890625
-0.14993798828125,-0.249919970703125,0.328310810546875
-0.30166017578125,-0.46486419189453126,0.8734211328125
-0.4545980859375,-0.56461595703125,1.219952041015625
-0.67367130859375,-0.7109348852539062,1.588601943359375
-0.559150234375,-0.2999183984375,1.567466015625
-0.44997833984375,-0.09134652587890625,1.2332234375
-0.30409162109375,-0.046004814453125,0.667468720703125
-0.1900568359375,-0.060710234375,0.5074746630859375
-0.0927990234375,-0.0680629443359375,0.3909812939453125
-0.053409609375,-0.05899460205078125,0.445295712890625
-0.18446451171875,-0.0268877685546875,0.4841268359375
-0.3651208984375,-0.023456503906250002,0.5217291259765625
-0.31916658203125,-0.02517213623046875,0.4824064697265625
-0.20026890625,0.0378160791015625,0.5902980078125
-0.40645546875,0.01894412353515625,0.5254156249999999
-0.36828177734375,-0.08448399658203125,0.42366825195312496
-0.1268392578125,-0.09526797119140624,0.33052270996093747
-0.13680818359375,-0.02027032958984375,0.46594010742187497
0.0039725,-0.076396015625,0.7424275341796875
0.1007440234375,-0.1195319140625,1.4669474755859375
0.13599998046875,0.17825283935546876,2.129718558349609
-0.6987151953125,-0.193059013671875,2.129718558349609
-0.47186134765625,0.055462583007812497,1.944963515625
-0.48547744140625,-0.0317895751953125,1.2241300732421876
-0.4477900390625,0.1642826904296875,1.189968515625
-0.4857205859375,0.3083958056640625,1.3750307666015624
-0.3729015234375,0.2750635205078125,1.1666206884765624
-0.19321771484375,0.10987263671875,0.7114609423828124
-0.47283392578125,-0.0641414990234375,0.5861199755859375
-0.4312562109375,-0.21046042724609376,0.365667333984375
-0.0607039453125,-0.17810850341796874,0.4922371337890625
0.146941484375,-0.11585555908203125,1.00613509765625
0.08469648437499999,0.18119392333984374,1.9491415478515626
-0.73008083984375,0.03266918212890625,2.000015234375
-0.7016329296875,-0.1876670263671875,1.58712734375
-0.57009173828125,-0.30016348876953125,1.0575003173828126
-0.30603677734375,-0.30114385009765626,0.597671005859375
-0.01474962890625,-0.293055869140625,0.56965361328125
-0.12829812499999999,-0.30555547607421873,0.560314482421875
-0.33424154296874997,-0.2808013525390625,0.55982294921875
-0.35952857421875,-0.3572695361328125,0.7257154052734375
-0.28220861328125,-0.42221847412109376,0.7222746728515625
-0.09912078125,-0.18448085205078124,0.6642737548828125
-0.0363894921875,-0.04870080810546875,0.6800028173828125
-0.1258666796875,-0.14134495361328125,0.8741584326171875
-0.38043900390625,-0.06659240234375,1.268122294921875
-0.60097109375,-0.09624833251953124,1.457362578125
-0.549424453125,-0.1023755908203125,1.4251671533203125
-0.41593810546875,-0.0043394580078125,1.0481611865234375
-0.27880458984375,-0.0759058349609375,0.8574463037109374
-0.21121041015625,-0.13105115966796876,0.9139726220703125
-0.411318359375,-0.13938423095703126,0.8073099169921875
-0.27831830078124997,-0.17026561279296876,0.7502920654296875
-0.28561263671875,-0.10409122314453124,0.6497735253906249
-0.2377131640625,-0.048945898437499996,0.5662128808593749
-0.1608794921875,-0.0680629443359375,0.584399609375
-0.29825615234375,-0.12467881103515625,0.7335799365234374
-0.2834243359375,-0.055073156738281254,0.9611598095703124
-0.448276328125,-0.03399538818359375,1.0776531787109376
-0.4536255078125,-0.06267095703125,1.2142994091796875
-0.43368765625,-0.00311400634765625,1.2084010107421874
-0.3787369921875,-0.10065995849609374,1.0216183935546874
-0.3485870703125,0.04296297607421875,0.86850580078125
-0.37849384765625,0.049090234375,0.79575888671875
-0.3349709765625,0.08413815185546875,0.748080166015625
-0.234309140625,0.034384814453125,0.721537373046875
-0.292663828125,0.0858537841796875,0.8195982470703125
-0.2610550390625,-0.01634888427734375,0.7365291357421875
-0.3505322265625,0.01747358154296875,0.6910623144531249
-0.43782111328125,-0.0018885546875000003,0.6709094531249999
-0.3359435546875,-0.17712814208984376,0.5767808447265625
-0.24695265625,-0.124433720703125,0.495432099609375
-0.18008791015625,-0.057769150390625,0.44431264648437496
-0.11346630859375,-0.110708662109375,0.5571195166015624
-0.17376615234375,-0.20702916259765625,0.770690693359375
-0.2488978125,-0.0876701708984375,1.03366095703125
-0.2707808203125,-0.1337471533203125,1.166866455078125
-0.2873146484375,-0.12124754638671875,1.258291630859375
-0.2785614453125,-0.0435539111328125,1.19684998046875
-0.36633662109375,0.024091020507812498,1.1213996337890624
-0.4040240234375,-0.06977857666015624,1.13589986328125
-0.3826273046875,-0.0759058349609375,0.9857364697265625
-0.26421591796875,0.0054641552734375,0.7969877197265625
-0.20829267578125,-0.107767578125,0.6492819921874999
-0.14410251953125,-0.01830960693359375,0.5477803857421875
-0.111764296875,0.05031568603515625,0.5615433154296875
-0.19564916015625,0.12727405029296876,0.8289373779296875
-0.2333365625,0.06943273193359376,1.072492080078125
-0.38092529296875,0.15521434814453125,1.275003759765625
-0.34834392578125,0.17040994873046875,1.3288266455078124
-0.36293259765625,0.0922261328125,1.4290994189453126
-0.40475345703125,0.05227640869140625,1.4708797412109376
-0.44803318359375,0.00276816162109375,1.2904870556640624
-0.31089966796875,0.0731090869140625,1.0661021484375
-0.1851939453125,-0.023456503906250002,0.82131861328125
-0.18835482421875,-0.03399538818359375,0.8721922998046875
-0.20537494140625,-0.0749254736328125,0.9813126708984374
-0.23139140625,-0.0592396923828125,1.057746083984375
-0.20464550781250002,0.00227798095703125,1.0471781201171875
-0.24136033203125,0.0848734228515625,1.0919076416015625
-0.44706060546875,-0.0063001806640625,1.015474228515625
-0.4049966015625,0.07433453857421875,0.95501564453125
-0.26421591796875,-0.10899302978515625,0.8653108349609375
-0.3485870703125,-0.01978014892578125,0.8989808593749999
-0.298499296875,0.017718671875,1.048406953125
-0.20099833984375,-0.09722869384765626,1.0717547802734375
-0.21072412109375,0.11011772705078125,1.020389560546875
-0.22044990234375,-0.02615249755859375,0.9773804052734375
-0.27929087890625,0.010856142578125,1.106899404296875
-0.28366748046875,-0.05213207275390625,1.077407412109375
-0.28998923828125,0.008895419921875,1.0196522607421874
-0.32281375,-0.06438658935546875,0.9144641552734375
-0.36244630859375,0.05815857666015625,0.97467697265625
-0.3612305859375,0.16477287109375,0.7586481298828125
-0.3213548828125,0.11403917236328125,0.6138916015625
-0.29533841796875,0.11501953369140624,0.5873488085937499
-0.18057419921875,0.10472573974609375,0.5423735205078125
-0.13097271484375,0.12433296630859375,0.62470533203125
-0.177899609375,0.1603612451171875,0.7571735302734375
-0.24427806640625,0.16795904541015624,0.89013326171875
-0.3126016796875,0.15962597412109375,1.0899415087890625
-0.3578265625,0.12776423095703124,1.2123332763671875
-0.298499296875,0.2329079833984375,1.1427813281249999
-0.21218298828125,0.21942801513671875,1.0179318945312499
-0.26275705078125,0.055462583007812497,1.0759328125
-0.329621796875,0.26697553955078124,1.2241300732421876
-0.29047552734375,0.1868310009765625,1.127543798828125
-0.327676640625,0.11967625,1.0265337255859375
-0.245980078125,0.18609572998046875,1.0294829248046875
-0.35101851562499997,0.1000690234375,1.0329236572265625
-0.22093619140625,-0.05899460205078125,1.0314490576171875
-0.2853694921875,-0.045024453125,0.9572275439453125
-0.33181009765625,-0.04870080810546875,0.8343442431640625
-0.3408064453125,-0.0945327001953125,0.659604189453125
-0.15869119140625,-0.04281864013671875,0.5824334765625
-0.28512634765625,-0.01732924560546875,0.6210188330078125
-0.29363640625,0.06845237060546874,0.7689703271484375
-0.29971501953125,0.026541923828125,0.8783364648437499
-0.30944080078125,0.13732275390625,0.9945840673828125
-0.19273142578125,0.12629368896484375,1.0334151904296875
-0.37338781249999997,0.03806116943359375,1.0840431103515624
-0.19613544921875,0.04149243408203125,1.037101689453125
-0.24670951171875,-0.02076051025390625,0.905370791015625
-0.27783201171875,0.07776580322265625,0.8658023681640625
-0.32111173828125,0.0280124658203125,0.8264797119140626
-0.4351465234375,-0.0190448779296875,0.8702261669921875
-0.27540056640625,0.163792509765625,0.8844806298828125
-0.214857578125,0.06894255126953125,0.802148818359375
-0.230418828125,0.11109808837890625,0.9166760546875
-0.312115390625,0.03708080810546875,1.035135556640625
-0.25011353515625,0.11967625,1.18308705078125
-0.27977716796875,0.1280093212890625,1.1685868212890624
-0.43052677734375,0.16305723876953124,1.052830751953125
-0.17717017578125,0.1505576318359375,0.9582106103515625
-0.32986494140625,0.081442158203125,0.899472392578125
-0.321841171875,0.13805802490234376,0.9282270849609375
-0.23066197265625,0.1182057080078125,0.930930517578125
-0.33083751953125,0.02752228515625,0.7493089990234375
-0.33132380859375,0.069677822265625,0.7144101416015625
-0.0782103515625,0.01208159423828125,0.797233486328125
-0.23649744140625,0.1084020947265625,0.88816712890625
-0.423961875,-0.00360418701171875,0.968287041015625
-0.1492085546875,0.1211467919921875,1.1410609619140626
-0.384086171875,0.13413657958984376,1.065610615234375
-0.3767918359375,0.07433453857421875,1.0346440234375
-0.051464453125000004,0.12629368896484375,1.0978060400390626
-0.3777644140625,0.0010525292968750002,0.9046334912109375
-0.300444453125,0.1417343798828125,0.9813126708984374
-0.19662173828125,0.0103659619140625,0.8773533984374999
-0.19224513671875,0.19884042724609374,0.921099853515625
-0.31697828125,0.00987578125,0.831640810546875
-0.2722396875,0.0936966748046875,1.020389560546875
-0.201241484375,0.0652661962890625,0.9874568359375
-0.36366203125,0.046149150390625,0.9803296044921875
-0.26178447265625,0.177517568359375,0.991880634765625
-0.3223274609375,0.1456558251953125,0.9196252539062499
-0.2464663671875,0.222614189453125,0.99827056640625
-0.39016478515624997,0.19982078857421876,1.02776255859375
-0.3349709765625,0.19295825927734375,1.06905134765625
-0.30311904296875003,0.159871064453125,0.992863701171875
-0.2474389453125,0.1191860693359375,1.0122792626953125
-0.209022109375,0.02752228515625,0.9614055761718749
-0.37508982421875,0.04541387939453125,0.9926179345703126
-0.105928828125,0.12776423095703124,1.07298361328125
-0.4186126953125,0.014777587890624999,0.942727314453125
-0.29971501953125,0.1466361865234375,1.0545511181640626
-0.2649453515625,0.0123266845703125,0.98942296875
-0.38773333984375,0.03512008544921875,0.8564632373046875
-0.18689595703125,0.09737302978515625,0.906845390625
-0.26251390625,0.03119864013671875,0.891607861328125
-0.19370400390625,0.07261890625,0.8102591162109375
-0.23406599609375,-0.03154448486328125,0.84884447265625
-0.24525064453125,0.04541387939453125,0.938795048828125
-0.27248283203125,0.07678544189453125,0.9287186181640625
-0.290718671875,0.02090484619140625,0.872929599609375
-0.28609892578125,0.20766367919921874,0.8461410400390625
-0.13680818359375,0.09100068115234375,0.7790467578125
-0.16720125,0.04639424072265625,0.8967689599609375
-0.2552195703125,0.15374380615234376,0.9714820068359376
-0.2425760546875,0.22678072509765626,0.9488714794921875
-0.25838044921875,0.18168410400390625,1.0432458544921874
-0.450221484375,0.0922261328125,1.03661015625
-0.37654869140625,0.09541230712890625,1.0250591259765625
-0.226528515625,0.0593840283203125,0.908319990234375
-0.34396732421875,0.05717821533203125,0.7286646044921875
-0.29752671875000003,0.050070595703125,0.6453497265625
-0.09425789062500001,0.0299731884765625,0.633061396484375
-0.2736985546875,0.08903995849609375,0.80067421875
-0.34153587890625,0.190262265625,0.9469053466796875
-0.19078626953125,0.18854663330078125,0.854251337890625
-0.31527626953125,0.11109808837890625,0.8097675830078125
-0.1788721875,0.20325205322265624,0.9793465380859375
-0.327676640625,0.18045865234375,1.105916337890625
-0.37508982421875,0.14246965087890626,1.1644087890625
-0.35174794921875,0.08953013916015624,1.129509931640625
-0.32257060546875,0.09492212646484376,1.044966220703125
-0.2717533984375,0.09100068115234375,1.0582376171875
-0.356853984375,0.00865032958984375,1.0702801806640625
-0.237226875,0.00963069091796875,1.06315294921875
-0.24379177734375002,0.06796218994140625,0.964354775390625
-0.2902323828125,-0.035711020507812496,0.8741584326171875
-0.1735230078125,-0.114630107421875,0.78002982421875
-0.23601115234375,-0.01830960693359375,0.773148359375
-0.33813185546875,0.06281529296875,0.92748978515625
-0.24136033203125,-0.09232688720703125,1.1290183984375
-0.43368765625,-0.0170841552734375,1.24010490234375
-0.31965287109375,0.01747358154296875,1.217985908203125
-0.244034921875,-0.09526797119140624,1.122628466796875
-0.38287044921875,0.03021827880859375,1.022355693359375
-0.32840607421875,0.019434304199218752,0.908319990234375
-0.34396732421875,0.040266982421875,0.8643277685546875
-0.39989056640625,0.15423398681640624,0.840488408203125
-0.40815748046875,0.1417343798828125,0.78986048828125
-0.31187224609374997,0.03512008544921875,0.6392055615234375
-0.1866528125,-0.00311400634765625,0.5713739794921875
-0.1433730859375,0.0760501708984375,0.5453227197265624
-0.29169125,0.096147578125,0.64240052734375
-0.4011062890625,0.056933125,0.8628531689453125
-0.43004048828125,0.12188206298828125,1.13098453125
-0.3573402734375,0.14001874755859375,1.2108586767578124
-0.298499296875,-0.0298288525390625,1.215036708984375
-0.33642984375,-0.03546593017578125,1.2516559326171874
-0.321841171875,-0.0259074072265625,1.2993346533203125
-0.41496552734375003,-0.00507472900390625,1.1644087890625
-0.31722142578125,0.0255615625,1.09461107421875
-0.494960078125,-0.024436865234375,0.8731753662109375
-0.23917203125,0.03757098876953125,0.678282451171875
-0.18859796875,-0.0857094482421875,0.552449951171875
-0.0927990234375,-0.19281392333984376,0.64436666015625
-0.105928828125,-0.1759026904296875,0.8220559130859375
-0.376305546875,-0.05090662109375,1.0280083251953125
-0.37654869140625,-0.037916833496093746,1.134425263671875
-0.3656071875,-0.06242586669921875,1.3288266455078124
-0.4944737890625,0.05105095703125,1.3902682958984376
-0.415208671875,0.1074217333984375,1.221918173828125
-0.3116291015625,0.0843832421875,0.977626171875
-0.31041337890625,0.0044837939453125,0.87931953125
-0.32402947265625,0.053992041015625,0.8304119775390625
-0.2318776953125,-0.04281864013671875,0.89504859375
-0.2445212109375,-0.0097314453125,0.9287186181640625
-0.21850474609375,-0.1464918505859375,0.7930554541015625
-0.1783858984375,-0.19918627197265626,0.7694618603515625
-0.25789416015625,-0.1337471533203125,0.9626344091796875
-0.0986344921875,-0.16732452880859375,1.151137392578125
-0.34737134765625,-0.1249239013671875,1.2747579931640625
-0.4837754296875,0.11550971435546875,1.2929447216796874
-0.35466568359375,0.04345315673828125,1.182595517578125
-0.43174250000000003,0.01453249755859375,1.1209081005859376
-0.522192265625,0.11649007568359375,1.099034873046875
-0.4302836328125,-0.00458454833984375,0.9609140429687499
-0.21558701171875,-0.11536537841796875,0.703842177734375
-0.13000013671875,-0.08252327392578125,0.6505108251953124
-0.0714023046875,-0.13448242431640625,0.64829892578125
-0.15674603515625,-0.1759026904296875,0.828200078125
-0.32743349609375,-0.1298257080078125,1.1120605029296875
-0.4808576953125,-0.10997339111328125,1.31186875
-0.3816547265625,-0.071494208984375,1.269105361328125
-0.27880458984375,-0.05703387939453125,1.1093570703125
-0.30506419921875,-0.03129939453125,1.088221142578125
-0.27637314453125,-0.089140712890625,0.991880634765625
-0.405482890625,-0.048455717773437504,1.0412797216796874
-0.493014921875,0.04982550537109375,1.12410306640625
-0.34834392578125,-0.067572763671875,1.028254091796875
-0.259596171875,-0.1327667919921875,0.8756330322265625
-0.1579617578125,-0.1337471533203125,0.8181236474609375
-0.27029453125,-0.2611941259765625,0.7989538525390625
-0.22701480468750002,-0.1464918505859375,0.9582106103515625
-0.3349709765625,-0.08619962890625,1.0034316650390624
-0.37508982421875,-0.0866898095703125,0.9660751416015625
-0.41447923828125,-0.08252327392578125,0.9646005419921875
-0.3077387890625,-0.0592396923828125,0.9041419580078125
-0.30311904296875003,0.00399361328125,0.8623616357421875
-0.35466568359375,0.0182088525390625,0.872929599609375
-0.31576255859375,0.0682072802734375,0.8984893261718749
-0.42955419921875,-0.0097314453125,0.9316678173828125
-0.33983386718749997,-0.1062970361328125,0.907336923828125
-0.3427516015625,-0.0974737841796875,0.763809228515625
-0.16306779296875,-0.1504132958984375,0.8323781103515625
-0.13632189453125,-0.222469853515625,0.8810398974609375
-0.31965287109375,-0.2866835205078125,0.89799779296875
-0.38578818359375,-0.1111988427734375,1.065610615234375
-0.5372672265625,-0.07468038330078125,0.9891772021484375
-0.28634207031250003,0.093206494140625,0.967303974609375
-0.28074974609375003,-0.0817880029296875,0.884726396484375
-0.35344996093750003,-0.114630107421875,0.850319072265625
-0.089395,-0.09036616455078125,0.7529954980468749
-0.1774133203125,-0.1435507666015625,0.8122252490234375
-0.42031470703125,-0.1033559521484375,1.0378389892578126
-0.41982841796875,-0.16977543212890625,1.0850261767578124
-0.2960678515625,-0.1430605859375,1.0476696533203125
-0.36001486328125,-0.068553125,1.0044147314453125
-0.2104809765625,-0.1808044970703125,0.949608779296875
-0.28269490234375,-0.10286577148437501,0.8884128955078126
-0.3019033203125,0.07678544189453125,0.9360916162109375
-0.34931650390625,-0.0464949951171875,0.920116787109375
-0.366579765625,-0.0317895751953125,0.8731753662109375
-0.19710802734375,-0.07419020263671874,0.80853875
-0.3408064453125,-0.1474722119140625,0.72497810546875
-0.31308796875,-0.14502130859375,0.6618160888671875
-0.17619759765625,-0.2004117236328125,0.5413904541015625
-0.12246265625,-0.251880693359375,0.5411446875
-0.20002576171875,-0.2837424365234375,0.5286105908203125
-0.0451426953125,-0.198941181640625,0.584399609375
-0.21315556640625,-0.2214894921875,0.6396970947265626
-0.2630001953125,-0.327368515625,0.7419360009765625
0.02901638671875,-0.11438501708984375,1.072000546875
0.076915859375,0.2711420751953125,1.7227905078124999
-0.3495596484375,0.6390226635742188,2.129718558349609
-0.77238798828125,0.6007885717773438,2.129718558349609
-0.76314849609375,0.47236123779296874,1.921861455078125
-0.683640234375,0.2547210229492187,1.1125520361328125
-0.51173705078125,0.02874773681640625,0.58046734375
-0.03225603515625,-0.170510703125,0.439397314453125
0.0020273437500000005,-0.1670794384765625,0.2454874658203125
0.0012979101562499984,-0.15065838623046876,0.1270279638671875
0.007376523437500001,-0.181294677734375,0.416786787109375
-0.00502384765625,-0.2259011181640625,0.8495817724609375
-0.2960678515625,-0.4866772314453125,1.667247255859375
-0.94891091796875,-0.5435381884765625,2.0425328564453125
-1.0371723828125,0.040266982421875,1.801927353515625
-0.43927998046875,0.00399361328125,1.300563486328125
-0.22142248046875002,-0.18153976806640626,0.831640810546875
-0.20634751953125,-0.23055783447265624,0.43423621582031247
-0.0626491015625,-0.2268814794921875,0.2361483349609375
-0.04392697265625,-0.21095060791015624,0.3870490283203125
-0.10860341796875,-0.28006608154296875,0.5300851904296875
-0.16501294921875,-0.3102121923828125,0.58931494140625
-0.42663646484375,-0.13840386962890625,0.959439443359375
-0.46602587890625,0.02727719482421875,1.28335982421875
-0.53751037109375,-0.18521612304687501,1.465718642578125
-0.599998515625,-0.00605509033203125,1.4821850048828125
-0.63719962890625,0.03266918212890625,1.1381117626953126
-0.5168430859375,-0.11487519775390626,0.8026403515625
-0.13413359375,-0.0906112548828125,0.726452705078125
-0.22944625,-0.0612004150390625,0.5566279833984376
-0.07018658203125,-0.09526797119140624,0.610450869140625
-0.07067287109375,-0.07051384765625,0.6917996142578124
-0.18786853515625002,-0.01879978759765625,0.529347890625
-0.14410251953125,-0.10850284912109374,0.42342248535156246
-0.16404037109375,-0.07860182861328124,0.3845913623046875
-0.1754681640625,-0.2513905126953125,0.38090486328125
0.12092501953125,-0.17026561279296876,0.870963466796875
0.33610792968750003,-0.20310771728515625,2.129718558349609
-0.0018629687499999992,0.4878019287109375,2.129718558349609
-0.94258916015625,0.240260693359375,2.129718558349609
-0.8674575,0.095167216796875,1.8650893701171876
-0.73932033203125,0.28658276611328126,2.007879765625
-0.25838044921875,0.5525057763671875,1.91842072265625
-0.07650833984375,-0.12909043701171874,1.0211268603515624
-0.39162365234375,-0.08350363525390625,0.582925009765625
-0.29169125,-0.20506843994140625,0.12923986328124998
-0.195406015625,-0.1562954638671875,0.016678759765624995
-0.15674603515625,-0.14109986328125,-0.0425509912109375
-0.19516287109375,-0.1680597998046875,0.042730019531249996
-0.146777109375,-0.17712814208984376,0.09262063964843749
-0.183735078125,-0.15457983154296875,0.3523959375
-0.38384302734375,-0.302859482421875,0.8970147265625
-0.54869501953125,-0.36192625244140625,0.5590856494140625
-0.5975670703125,-0.3861901953125,1.1843158837890626
-0.86867322265625,-0.5040786450195313,1.3524202392578124
-0.63136416015625,-0.5317738525390625,1.564025283203125
-0.14167107421875,-0.20849970458984374,1.48193923828125
-0.24379177734375002,-0.36143607177734377,0.8692431005859375
-0.2722396875,-0.35016191650390627,0.6401886279296874
-0.2464663671875,-0.2768799072265625,0.5667044140624999
-0.1161408984375,-0.181294677734375,0.4922371337890625
0.0076196679687500005,-0.134237333984375,0.62470533203125
0.0900456640625,-0.17810850341796874,1.06511908203125
-0.3067662109375,-0.15359947021484374,1.2155282421875
-0.6637023828125,-0.10850284912109374,1.234698037109375
-0.56595828125,0.0309535498046875,1.00810123046875
-0.23114826171875,0.03168882080078125,0.834590009765625
-0.3126016796875,0.07139345458984375,0.923065986328125
-0.456056953125,0.0711483642578125,0.974185439453125
-0.23139140625,-0.01879978759765625,1.1204165673828126
-0.253760703125,-0.03448556884765625,1.138357529296875
-0.18495080078125,-0.037916833496093746,1.1096028369140625
-0.17036212890625,-0.06928839599609375,0.9292101513671875
-0.2124261328125,-0.05654369873046875,0.90586232421875
-0.3267040625,-0.1621776318359375,0.9559987109375
-0.31430369140625003,-0.0710040283203125,1.0491442529296875
-0.4079143359375,-0.03914228515625,1.1272980322265624
-0.5742251953125,-0.06340622802734375,1.111814736328125
-0.41788326171875,-0.10605194580078126,0.9768888720703125
-0.4244481640625,-0.060710234375,0.9048792578125
-0.3417790234375,-0.144040947265625,0.9179048876953125
-0.30846822265625,-0.069533486328125,0.93928658203125
-0.2454937890625,-0.06683749267578125,1.08478041015625
-0.24184662109375,-0.076396015625,1.213562109375
-0.32402947265625,-0.1141399267578125,1.2128248095703125
-0.2532744140625,-0.1788437744140625,1.0491442529296875
-0.18227621093750002,-0.1680597998046875,0.845403740234375
-0.13583560546875,-0.26805665527343747,0.7456225
-0.09134015625,-0.19428446533203125,0.8970147265625
-0.296554140625,-0.14428603759765624,1.1607222900390626
-0.51659994140625,-0.0254172265625,1.201273779296875
-0.31965287109375,-0.05017135009765625,1.009575830078125
-0.4536255078125,-0.03889719482421875,0.9469053466796875
-0.393811953125,-0.03301502685546875,0.9245405859375
-0.2406308984375,-0.100905048828125,0.9061080908203125
-0.2902323828125,-0.05654369873046875,0.9134810888671875
-0.2921775390625,-0.10286577148437501,0.851793671875
-0.19248828125,-0.03644629150390625,0.9048792578125
-0.15771861328125,-0.01830960693359375,1.0447204541015624
-0.22774423828125,-0.014633251953124999,1.0648733154296874
-0.21899103515625,0.01404231689453125,1.0820769775390624
-0.247925234375,0.00399361328125,1.0722463134765625
-0.2999581640625,-0.01438816162109375,1.0393135888671874
-0.3690112109375,0.0280124658203125,1.0130165625
-0.3670660546875,-0.01438816162109375,0.9228202197265625
-0.39308251953125,0.0201695751953125,0.9051250244140625
-0.3485870703125,0.106931552734375,0.9896687353515625
-0.32062544921875,0.03119864013671875,0.9375662158203125
-0.28585578125,0.0309535498046875,0.9913891015625
-0.2202067578125,-0.01487834228515625,1.00515203125
-0.212912421875,0.03021827880859375,1.015474228515625
-0.205131796875,0.04492369873046875,1.0034316650390624
-0.25400384765625,0.00619942626953125,1.0039231982421875
-0.1550440234375,0.06011929931640625,1.0919076416015625
-0.30457791015625,-0.0190448779296875,1.045949287109375
-0.25108611328125,0.03512008544921875,1.0835515771484374
-0.3729015234375,0.07237381591796875,1.019406494140625
-0.3505322265625,0.0858537841796875,1.1014925390624999
-0.321841171875,0.06649164794921875,1.0098215966796875
-0.2892598046875,-0.01634888427734375,0.895540126953125
-0.2133987109375,-0.0999246875,0.7699533935546875
-0.16306779296875,-0.0038492773437499997,0.806081083984375
-0.2561921484375,-0.0690433056640625,0.8284458447265625
-0.2488978125,-0.11683592041015625,0.9075826904296875
-0.22968939453125,-0.01953505859375,1.08478041015625
-0.3865176171875,-0.0945327001953125,1.042017021484375
-0.1005796484375,-0.08742508056640624,0.9857364697265625
-0.18592337890625,0.07188363525390624,0.8903790283203125
-0.33642984375,0.0574233056640625,0.83311541015625
-0.20464550781250002,0.10962754638671875,0.883743330078125
-0.2717533984375,0.111833359375,1.0486527197265625
-0.38092529296875,-0.1033559521484375,1.10247560546875
-0.18786853515625002,-0.01561361328125,1.02186416015625
-0.14702025390625,-0.02615249755859375,0.8431918408203125
-0.31089966796875,-0.25506686767578124,0.810996416015625
-0.345183046875,-0.22565602783203126,0.6627991552734375
-0.24719580078125,-0.04723026611328125,0.65026505859375
-0.31478998046875,-0.0415931884765625,0.53426322265625
-0.13948277343749999,0.0623251123046875,0.6392055615234375
-0.14021220703125,0.12825441162109374,0.8490902392578125
-0.1258666796875,0.19442880126953124,1.0216183935546874
-0.25497642578125,0.2682009912109375,1.1447474609375
-0.27102396484375,0.23952542236328125,1.1238572998046874
-0.138996484375,0.1628121484375,1.0432458544921874
-0.3505322265625,0.08634396484375,0.946659580078125
-0.296554140625,-0.038161923828125,0.83311541015625
-0.34737134765625,-0.04821062744140625,0.938303515625
-0.4507077734375,0.0358553564453125,1.11427240234375
-0.26056875,-0.1043363134765625,0.7905977880859375
-0.382141015625,0.01257177490234375,0.9852449365234375
-0.48645001953125,-0.15703073486328126,1.061678349609375
-0.389921640625,-0.1543347412109375,1.025304892578125
-0.35977171875,-0.1131595654296875,1.001711298828125
-0.36341888671875,0.0003172583007812497,0.9520664453125
-0.201241484375,-0.00605509033203125,0.851302138671875
-0.15625974609374998,-0.08007237060546875,0.778555224609375
-0.34396732421875,-0.0239466845703125,0.8427003076171875
-0.27296912109375,0.0633054736328125,0.8441749072265625
-0.2333365625,0.0466393310546875,0.741690234375
-0.18884111328125,0.09810830078125,0.7271900048828125
-0.051464453125000004,0.01796376220703125,0.769707626953125
0.05624857421875,-0.15457983154296875,0.9473968798828125
0.0598957421875,0.0936966748046875,1.3342335107421874
-0.29874244140625,0.12139188232421876,1.7031291796875
-0.6223678125,0.2319276220703125,1.734095771484375
-0.506631015625,-0.03350520751953125,1.4232010205078125
-0.387976484375,0.04320806640625,1.150154326171875
-0.19346085937500002,-0.15948163818359376,0.9768888720703125
-0.09450103515625,-0.02713285888671875,0.9088115234375
-0.28707150390625,0.14688127685546876,0.8105048828125
-0.4186126953125,0.0652661962890625,0.6750874853515625
-0.40961634765625,0.03659062744140625,0.4411176806640625
-0.1278118359375,-0.16242272216796874,0.326344677734375
0.01369828125,-0.0999246875,0.7345630029296875
0.06646064453125,0.08168724853515624,1.242562568359375
-0.41545181640625,0.1525183544921875,1.51143123046875
-0.62261095703125,0.32040523193359377,1.706569912109375
-0.5703348828125,0.3760407373046875,1.5686948486328125
-0.36196001953125,-0.09575815185546875,1.259274697265625
-0.3267040625,0.16060633544921876,1.1371286962890625
-0.1813036328125,0.1574201611328125,0.8313950439453125
-0.36633662109375,0.093206494140625,0.6559176904296875
-0.3816547265625,0.1005592041015625,0.5467973193359374
-0.207076953125,0.13340130859375,0.4932202001953125
-0.08744984375,0.1280093212890625,0.965829375
-0.185680234375,0.0495804150390625,1.351682939453125
-0.18592337890625,0.081442158203125,1.4131245898437501
-0.37922328125,0.20006587890625,1.224867373046875
-0.346155625,0.2231043701171875,1.0346440234375
-0.24938410156250002,0.1976149755859375,0.9218371533203125
-0.374360390625,0.244182138671875,1.0673309814453125
-0.43684853515625,0.2868278564453125,1.1931634814453125
-0.22628537109375,0.25668174560546875,1.003677431640625
-0.24038775390625,0.2083989501953125,0.9537868115234375
-0.361716875,0.19222298828125,1.0555341845703126
-0.2722396875,0.09443194580078125,1.0668394482421875
-0.18008791015625,0.06747200927734374,1.1388490625
-0.189570546875,0.03315936279296875,1.143272861328125
-0.2450075,-0.02517213623046875,1.1056705712890624
-0.26032560546875,0.03512008544921875,0.979100771484375
-0.25838044921875,0.04296297607421875,0.8655566015625
-0.35855599609375,0.0211499365234375,0.79969115234375
-0.08307324218750001,-0.13203152099609375,0.854251337890625
-0.33035123046875,0.044188427734375,1.026287958984375
-0.4186126953125,0.09198104248046875,1.167849521484375
-0.35028908203125,0.1191860693359375,1.1096028369140625
-0.38773333984375,0.12482314697265626,0.9532952783203125
-0.2192341796875,0.0633054736328125,1.0174403613281249
-0.2800203125,0.0231106591796875,1.0732293798828125
-0.3096839453125,0.15521434814453125,1.020389560546875
-0.1521262890625,0.10031411376953125,0.8785822314453124
-0.11735662109375,0.13609730224609376,0.8181236474609375
-0.31478998046875,0.20129133056640625,0.9218371533203125
-0.06629626953125001,0.15815543212890626,1.048406953125
-0.2333365625,0.0378160791015625,0.9641090087890625
-0.31697828125,0.150067451171875,1.11820466796875
-0.424934453125,0.01453249755859375,1.1312302978515625
-0.30846822265625,0.04296297607421875,1.114763935546875
-0.31041337890625,0.0037485229492187503,0.9021758251953125
-0.19175884765625,0.021640117187500002,0.7827332568359375
-0.1725504296875,0.0985984814453125,0.846386806640625
-0.1988100390625,0.081442158203125,1.007609697265625
-0.226528515625,0.05472731201171875,1.0825685107421874
-0.24962724609375,0.01575794921875,1.0068723974609375
-0.09158330078125,0.0976181201171875,0.9557529443359375
-0.17717017578125,-0.0210056005859375,0.871455
-0.21947732421875,-0.06193568603515625,0.95304951171875
-0.28804408203125,-0.046740085449218746,0.894557060546875
-0.17376615234375,-0.03938737548828125,0.875387265625
-0.434660234375,0.023845930175781252,0.7537327978515624
-0.252788125,-0.0504164404296875,0.7242408056640625
-0.1540714453125,0.03953171142578125,0.6650110546875
-0.22968939453125,-0.01732924560546875,0.749063232421875
-0.4477900390625,0.04737460205078125,0.797233486328125
-0.2639727734375,0.099088662109375,0.73087650390625
-0.1754681640625,0.06281529296875,0.7409529345703125
-0.15188314453125001,0.1260485986328125,0.926998251953125
-0.27199654296875,0.0368357177734375,1.0425085546875
-0.2333365625,-0.013162709960937501,0.9464138134765625
-0.14021220703125,0.1172253466796875,0.777080625
-0.25449013671875,0.1270289599609375,0.7291561376953125
-0.1832487890625,0.1505576318359375,0.8898874951171875
-0.24184662109375,0.20619313720703125,1.15752732421875
-0.4672416015625,0.097127939453125,1.2300284716796874
-0.358799140625,0.09884357177734375,1.0245675927734375
-0.1219763671875,0.17139031005859376,0.95796484375
-0.38311359375,0.11894097900390625,0.9936010009765625
-0.2347954296875,0.10913736572265625,1.0850261767578124
-0.24670951171875,0.04712951171875,0.980083837890625
-0.3077387890625,-0.045024453125,0.903404658203125
-0.26251390625,-0.04919098876953125,0.7298934375
-0.1346198828125,-0.10409122314453124,0.663044921875
-0.08137123046875,-0.1053166748046875,0.8734211328125
-0.361716875,0.0495804150390625,1.1322133642578125
-0.39843169921875,0.0858537841796875,1.186527783203125
-0.48158712890625,0.1142842626953125,1.008592763671875
-0.4030514453125,0.01404231689453125,0.708757509765625
-0.15966376953125,0.0142874072265625,0.65026505859375
-0.29533841796875,0.07335417724609375,0.7114609423828124
-0.2795340234375,0.049090234375,0.7896147216796875
-0.36439146484375,0.04198261474609375,0.895540126953125
-0.3777644140625,0.08364797119140625,0.853268271484375
-0.187625390625,-0.110708662109375,0.7463597998046875
-0.1608794921875,0.0466393310546875,0.8215643798828125
-0.20537494140625,0.08634396484375,0.9503460791015625
-0.2878009375,0.163792509765625,1.150154326171875
-0.33472783203125,0.25374066162109377,1.2671392285156249
-0.3349709765625,0.306925263671875,1.3465218408203126
-0.40572603515625,0.2368294287109375,1.31088568359375
-0.31478998046875,0.07874616455078125,1.1803836181640626
-0.4278521875,0.07825598388671876,1.16932412109375
-0.3544225390625,0.103010107421875,1.0582376171875
-0.2279873828125,-0.14134495361328125,0.899472392578125
-0.29242068359375,0.030463369140625002,0.8812856640625
-0.33667298828125003,-0.09477779052734375,0.907336923828125
-0.2099946875,-0.0759058349609375,0.97369390625
-0.1910294140625,-0.020515419921875,1.0044147314453125
-0.12440781249999999,0.1231075146484375,1.1110774365234375
-0.37265837890625,0.1162449853515625,0.993846767578125
-0.18203306640625,0.024091020507812498,1.069542880859375
-0.2805066015625,0.0770305322265625,1.148188193359375
-0.465782734375,-0.016593974609375,1.111814736328125
-0.207076953125,0.06673673828125,1.0801108447265624
-0.2688356640625,0.077520712890625,0.8692431005859375
-0.29679728515625,0.0623251123046875,0.846386806640625
-0.127325546875,-0.01193725830078125,0.8952943603515625
-0.33715927734375,-0.0190448779296875,0.956490244140625
-0.2289599609375,-0.01953505859375,0.9911433349609375
-0.26616107421875,0.040266982421875,0.8643277685546875
-0.19808060546875,0.10570610107421875,0.7576650634765625
-0.08988128906250001,0.096147578125,0.8161575146484374
-0.1399690625,0.23315307373046876,1.0899415087890625
-0.3242726171875,0.17090012939453125,1.2791817919921875
-0.31284482421875,0.028502646484374998,1.2629611962890626
-0.2484115234375,0.2760438818359375,1.3165383154296875
-0.265431640625,0.06600146728515625,1.28925822265625
-0.32500205078125,0.021640117187500002,1.1735021533203125
-0.1900568359375,0.11599989501953126,1.1155012353515625
-0.310170234375,0.0054641552734375,1.077407412109375
-0.368524921875,0.09933375244140626,1.1213996337890624
-0.286828359375,0.10472573974609375,0.9972875
-0.12805498046875,0.08168724853515624,1.0506188525390625
-0.26810623046875,0.0059543359375,0.96484630859375
-0.2182616015625,0.11207844970703125,0.973202373046875
-0.15869119140625,-0.02664267822265625,0.956490244140625
-0.294608984375,-0.01144707763671875,0.925032119140625
-0.2717533984375,-0.02517213623046875,0.917167587890625
-0.2177753125,-0.0063001806640625,0.97664310546875
-0.26081189453125,0.0250713818359375,0.97664310546875
-0.21461443359375,0.0760501708984375,0.9002096923828125
-0.23552486328125,0.12776423095703124,0.8412257080078125
-0.31187224609374997,0.1054610107421875,0.971236240234375
-0.32597462890625,0.01453249755859375,1.0503730859375
-0.26810623046875,0.09590248779296875,1.009084296875
-0.29679728515625,0.120656611328125,0.98647376953125
-0.2192341796875,0.008405239257812499,0.871455
-0.21558701171875,0.1123235400390625,0.858183603515625
-0.345183046875,0.077520712890625,0.7748687255859374
-0.23552486328125,0.06060947998046875,0.706791376953125
-0.21193984375,0.1035002880859375,0.7534870312499999
-0.323786328125,0.03364954345703125,0.83704767578125
-0.17327986328125,0.04443351806640625,0.872929599609375
-0.3500459375,0.10962754638671875,0.8363103759765624
-0.27102396484375,0.0358553564453125,0.94223578125
-0.26129818359375,0.15864561279296874,0.97074470703125
-0.28974609375,0.15374380615234376,1.119679267578125
-0.38311359375,0.177517568359375,1.2280623388671874
-0.2450075,0.1770273876953125,1.2364184033203125
-0.3028758984375,0.12482314697265626,1.131476064453125
-0.282938046875,0.05668803466796875,0.9960586669921875
-0.27151025390625,0.00227798095703125,0.8510563720703125
-0.3106565234375,0.02874773681640625,0.88030259765625
-0.29485212890625,0.01306195556640625,0.830657744140625
-0.18543708984375,-0.0886505322265625,0.839996875
-0.30360533203125,0.0030132519531249997,0.9149556884765625
-0.4409819921875,-0.023456503906250002,0.9277355517578125
-0.32402947265625,-0.03154448486328125,0.81148794921875
-0.31527626953125,-0.06683749267578125,0.688113115234375
-0.26470220703125,0.00399361328125,0.67189251953125
-0.24281919921875,-0.05115171142578125,0.611433935546875
-0.1988100390625,-0.0999246875,0.6318325634765625
-0.2503566796875,0.05717821533203125,0.7802755908203125
-0.337402421875,0.1000690234375,0.839505341796875
-0.2639727734375,0.11158826904296874,0.9444476806640625
-0.2377131640625,0.11894097900390625,1.0260421923828125
-0.29971501953125,0.158890703125,1.0869923095703125
-0.2921775390625,0.08511851318359374,1.09657720703125
-0.35199109375,0.0819323388671875,1.0255506591796875
-0.2561921484375,-0.00507472900390625,0.9520664453125
-0.21412814453125,0.055462583007812497,0.8127167822265625
-0.17376615234375,-0.0016434643554687498,0.6927826806640625
-0.054868476562500004,-0.00311400634765625,0.850319072265625
-0.22142248046875002,0.06845237060546874,1.1046875048828124
-0.4555706640625,0.07433453857421875,1.2059433447265624
-0.269321953125,-0.014633251953124999,1.1179589013671876
-0.15917748046875,0.0608545703125,0.9972875
-0.20586123046875,0.0848734228515625,0.8717007666015625
-0.1871391015625,-0.0210056005859375,0.8800568310546875
-0.13534931640625,-0.04306373046875,0.984016103515625
-0.31138595703125,0.0368357177734375,1.0739666796875
-0.298499296875,0.11649007568359375,1.1474508935546874
-0.3388612890625,0.07727562255859374,1.1449932275390624
-0.3252451953125,0.11011772705078125,1.07494974609375
-0.2892598046875,0.2260454541015625,0.886692529296875
-0.16258150390625,0.0829127001953125,0.9120064892578125
-0.24427806640625,0.04149243408203125,0.8977520263671875
-0.13972591796875,-0.10409122314453124,0.891607861328125
-0.26470220703125,-0.07811164794921875,0.8495817724609375
-0.19248828125,0.01894412353515625,0.8525309716796875
-0.31722142578125,-0.01291761962890625,0.8365561425781249
-0.3583128515625,-0.0268877685546875,1.15359505859375
-0.4798851171875,0.12874459228515625,1.2403506689453125
-0.23017568359375,0.02752228515625,1.148188193359375
-0.2240970703125,0.0887948681640625,1.1872650830078124
-0.31527626953125,0.1574201611328125,1.2580458642578125
-0.257651015625,0.04247279541015625,1.2118417431640625
-0.273212265625,-0.00777072265625,1.1430270947265626
-0.09425789062500001,0.1456558251953125,1.074458212890625
-0.2357680078125,0.1015395654296875,0.840488408203125
-0.237226875,0.1005592041015625,1.0329236572265625
-0.3855450390625,0.009140510253906251,1.15359505859375
-0.23114826171875,-0.025662316894531252,1.2093840771484374
-0.30627992187499997,0.02531647216796875,1.1695698876953124
-0.38335673828125,0.00178780029296875,0.999745166015625
-0.370470078125,0.1191860693359375,0.89603166015625
-0.376305546875,0.11649007568359375,0.8490902392578125
-0.346155625,0.14050892822265626,0.7969877197265625
-0.17911533203125,0.15962597412109375,0.7704449267578125
-0.2065906640625,0.0603643896484375,0.686638515625
-0.27199654296875,0.09345158447265625,0.650756591796875
-0.18106048828125,0.08266760986328126,0.7104778759765625
-0.2099946875,0.06257020263671875,0.8515479052734375
-0.28853037109375,0.05031568603515625,0.902421591796875
-0.3408064453125,0.14197947021484375,1.003677431640625
-0.341292734375,-0.02664267822265625,1.0810939111328124
-0.33910443359375,-0.067572763671875,1.05528841796875
-0.26178447265625,0.01012087158203125,0.93535431640625
-0.1637972265625,0.11599989501953126,0.97074470703125
-0.37898013671874997,-0.01683906494140625,0.86850580078125
-0.1424005078125,0.12947986328125,0.8854636962890625
-0.41788326171875,0.07776580322265625,1.00416896484375
-0.31333111328125,-0.00507472900390625,1.0739666796875
-0.092312734375,-0.0955130615234375,1.150645859375
-0.3072525,0.064776015625,1.29319048828125
-0.17960162109375,0.093206494140625,1.252393232421875
-0.18349193359375,0.016738310546875,1.011541962890625
-0.16525609375,0.15619470947265626,0.9360916162109375
-0.32086859375,0.205948046875,0.9498545458984375
-0.3738741015625,0.10913736572265625,1.0850261767578124
-0.27491427734375,0.0956573974609375,1.1513831591796875
-0.22725794921875,0.0020328906249999995,1.1958669140625
-0.26154132812499997,-0.1396293212890625,1.1248403662109374
-0.2192341796875,-0.03301502685546875,1.028745625
-0.2707808203125,0.19295825927734375,0.9650920751953125
-0.30895451171875,0.108892275390625,1.2044687451171874
-0.442440859375,0.14786163818359374,1.3008092529296875
-0.36390517578125,0.1946738916015625,1.2629611962890626
-0.3301080859375,-0.02517213623046875,1.17129025390625
-0.12902755859375,0.0044837939453125,1.174730986328125
-0.009400449218749999,0.06551128662109375,0.9763973388671875
-0.125380390625,0.1941837109375,1.0174403613281249
-0.516356796875,0.18462518798828126,1.16539185546875
-0.6306347265625,0.108892275390625,1.1533492919921875
-0.6043751171875,-0.0043394580078125,1.0267794921875
-0.32111173828125,-0.13007079833984375,0.813945615234375
-0.06824142578125,-0.18301031005859375,0.6544430908203125
-0.06191966796875,-0.09012107421875,0.580958876953125
-0.1025248046875,-0.18521612304687501,0.66009572265625
-0.1997826171875,-0.16732452880859375,1.0044147314453125
-0.37144265625,0.055462583007812497,1.3494710400390626
-0.6566511914062501,0.21011458251953125,1.4595744775390624
-0.39259623046875003,-0.01683906494140625,1.305478818359375
-0.2192341796875,-0.01683906494140625,1.0914161083984375
-0.253760703125,-0.0043394580078125,0.549500751953125
-0.096203046875,-0.10409122314453124,0.4214563525390625
-0.0363894921875,-0.1141399267578125,0.5173053271484375
-0.0704297265625,0.08658905517578125,0.781504423828125
-0.22190876953125,0.2020266015625,1.1936550146484375
-0.5000661132812501,0.13119549560546875,1.5283891259765625
-0.54577728515625,0.12335260498046875,1.3116229833984374
-0.16647181640625,0.04712951171875,0.832623876953125
-0.2085358203125,-0.076396015625,0.633061396484375
-0.1939471484375,0.14394019287109375,0.74463943359375
-0.23552486328125,0.0691876416015625,0.7493089990234375
-0.1073876953125,-0.2592334033203125,0.824759345703125
-0.27734572265625,0.12727405029296876,1.1073909375
-0.4147223828125,0.11992134033203125,1.0393135888671874
-0.16209521484375,-0.16879507080078124,0.944693447265625
-0.047087851562500005,-0.00801581298828125,0.839996875
-0.26275705078125,0.19638952392578124,0.8417172412109375
-0.12343523437500001,-0.04723026611328125,0.9596852099609375
-0.1482359765625,-0.08423890625,1.166374921875
-0.43879369140625,0.0446786083984375,1.5183126953125
-0.58711185546875,-0.0582593310546875,1.3828952978515625
-0.16015005859375,-0.1352176953125,0.8987350927734374
-0.04781728515625,-0.05360261474609375,0.671400986328125
-0.010616171875,-0.18497103271484375,0.8864467626953125
-0.19662173828125,-0.10605194580078126,1.078390478515625
-0.41812640624999997,0.093206494140625,1.1484339599609374
-0.5460204296875,0.15668489013671874,1.1526119921875
-0.23601115234375,0.04541387939453125,0.94223578125
0.09126138671875,-0.012427438964843749,0.91765912109375
-0.05365275390625,0.09051050048828126,1.166866455078125
-0.38043900390625,0.024581201171875,1.188493916015625
-0.30603677734375,0.1858506396484375,0.9186421875
-0.3952708203125,0.10987263671875,0.786419755859375
-0.44803318359375,0.024091020507812498,0.7942842871093749
-0.30652306640625,-0.09085634521484375,0.6672229541015625
-0.17303671874999998,-0.16144236083984376,0.5163222607421875
-0.0821006640625,-0.124433720703125,0.3836082958984375
-0.0840458203125,-0.14918784423828124,0.445295712890625
-0.1637972265625,0.06502110595703126,0.5824334765625
-0.2309051171875,-0.13889405029296875,0.777572158203125
-0.26713365234374997,-0.210705517578125,1.0727378466796875
-0.3884627734375,0.1799684716796875,1.3531575390625
-0.4857205859375,0.3221208642578125,1.2329776708984375
-0.3942982421875,0.1157548046875,1.028745625
-0.27783201171875,0.16085142578125,0.7915808544921875
-0.05462533203125,0.02972809814453125,0.633061396484375
-0.09425789062500001,0.0201695751953125,0.714655908203125
-0.23114826171875,0.1309504052734375,0.9284728515625
-0.18543708984375,0.04933532470703125,0.9537868115234375
-0.25059982421875,0.1044806494140625,1.171781787109375
-0.3388612890625,-0.01585870361328125,1.2895039892578124
-0.34639876953125,0.03119864013671875,1.3460303076171876
-0.30871136718750003,0.08315779052734375,1.3081822509765626
-0.3072525,-0.00581,1.10247560546875
-0.35199109375,0.06404074462890624,0.997779033203125
-0.33667298828125003,-0.0759058349609375,0.9552614111328125
-0.24306234375,-0.0494360791015625,0.8117337158203125
0.01150998046875,0.01306195556640625,0.6657483544921875
-0.05632734375,-0.051886982421875,0.8132083154296875
-0.2133987109375,-0.008751083984375,0.9360916162109375
-0.044899550781250006,-0.06683749267578125,1.0648733154296874
-0.12829812499999999,-0.03252484619140625,0.9953213671875
-0.25692158203125,-0.15286419921875,1.0157199951171876
-0.111764296875,0.13119549560546875,1.2742664599609375
-0.29728357421875,0.11992134033203125,1.252393232421875
-0.43927998046875,-0.00850599365234375,1.2226554736328126
-0.38870591796875,0.05276658935546875,1.0230929931640624
-0.22774423828125,0.01551285888671875,0.831640810546875
-0.21412814453125,0.0152677685546875,0.728418837890625
-0.15966376953125,0.009140510253906251,0.7114609423828124
-0.08866556640625001,0.00865032958984375,0.9631259423828125
-0.27296912109375,0.0515411376953125,1.1720275537109375
-0.49763466796875,-0.1719812451171875,1.1017383056640626
-0.009400449218749999,-0.09232688720703125,0.8891501953125
-0.086477265625,0.05521749267578125,0.800182685546875
-0.10495625,-0.14673694091796874,0.8495817724609375
-0.2853694921875,-0.10164031982421876,1.195375380859375
-0.5508833203125,0.11501953369140624,1.357581337890625
-0.46894361328125,0.0593840283203125,1.130492998046875
-0.24136033203125,0.0584036669921875,0.8844806298828125
-0.10860341796875,0.10276501708984374,0.752012431640625
-0.195406015625,0.19835024658203124,0.9380577490234375
-0.19321771484375,-0.0018885546875000003,1.0727378466796875
-0.12367837890625,0.159871064453125,1.1958669140625
-0.16501294921875,0.016738310546875,1.3632339697265625
-0.2736985546875,0.1142842626953125,1.3209621142578125
-0.218747890625,0.07041309326171875,1.143272861328125
-0.411318359375,0.1397736572265625,1.0776531787109376
-0.2892598046875,-0.02909358154296875,0.9139726220703125
-0.074806328125,-0.00409436767578125,0.875878798828125
-0.12246265625,0.00963069091796875,0.9874568359375
-0.397702265625,-0.18987283935546875,1.0818312109375
-0.19078626953125,-0.19183356201171875,0.916184521484375
-0.28123603515625,-0.032279755859375,0.6795112841796875
-0.195406015625,-0.02272123291015625,0.619298466796875
-0.0013766796875,-0.1239435400390625,0.6303579638671875
-0.0636216796875,0.11403917236328125,0.9773804052734375
-0.2717533984375,0.16011615478515626,1.32268248046875
-0.40937320312500003,0.11894097900390625,1.54092322265625
-0.2474389453125,0.1201664306640625,1.2398591357421875
-0.0801555078125,0.0843832421875,1.013508095703125
-0.1827625,-0.03129939453125,0.9434646142578125
-0.32086859375,0.0466393310546875,1.0073639306640625
-0.2805066015625,0.05497240234375,0.9665666748046875
-0.2814791796875,-0.08007237060546875,0.89996392578125
-0.34883021484375,-0.04575972412109375,0.7955131201171874
-0.232363984375,-0.10703230712890625,0.80952181640625
0.01345513671875,-0.065612041015625,0.9985163330078125
-0.02885201171875,0.07678544189453125,1.28139369140625
-0.595135625,-0.01487834228515625,1.1290183984375
-0.31722142578125,0.11747043701171875,0.8245135791015625
-0.22677166015625,0.06624655761718751,0.584891142578125
-0.06410796875,0.026051743164062502,0.5241867919921875
-0.076751484375,0.13340130859375,0.7114609423828124
-0.15771861328125,-0.030319033203124998,0.7979707861328125
-0.17911533203125,0.16452778076171876,0.854251337890625
-0.1744955859375,0.09737302978515625,0.886692529296875
-0.2309051171875,-0.09796396484375,1.02579642578125
-0.23114826171875,-0.00605509033203125,1.3853529638671875
-0.37314466796875,0.18413500732421875,1.4182856884765624
-0.3281629296875,0.16844922607421875,1.1408151953125
-0.0752926171875,0.15227326416015624,1.064627548828125
-0.18981369140625,0.1133039013671875,0.921099853515625
-0.3339983984375,-0.0006631030273437505,0.8520394384765625
-0.2416034765625,-0.046740085449218746,0.77609755859375
-0.129270703125,-0.2131564208984375,0.5792385107421875
-0.04052294921875,-0.20972515625,0.5433565869140625
-0.1161408984375,-0.1788437744140625,0.7502920654296875
-0.2255559375,0.03168882080078125,0.9877026025390625
-0.330594375,0.12482314697265626,1.084288876953125
-0.2717533984375,0.244182138671875,1.16735798828125
-0.3106565234375,0.29050421142578126,1.2155282421875
-0.35101851562499997,0.2927100244140625,1.2430541015625
-0.1521262890625,0.0740894482421875,1.1329506640625
-0.2153438671875,0.1731059423828125,1.0958399072265625
-0.18884111328125,0.01698340087890625,1.03366095703125
-0.07845349609375,0.0044837939453125,1.0058893310546875
-0.1997826171875,-0.02419177490234375,1.0761785791015626
-0.3320532421875,0.046149150390625,1.229291171875
-0.3515048046875,-0.0254172265625,1.1093570703125
-0.232363984375,0.0564429443359375,0.99040603515625
-0.22920310546875,-0.05458297607421875,0.8397511083984375
-0.21266927734375,-0.173451787109375,0.7188339404296875
-0.164283515625,-0.118551552734375,0.6013575048828125
-0.11541146484375,-0.0955130615234375,0.48609296874999997
-0.05219388671875,0.04933532470703125,0.5644925146484375
-0.1647698046875,0.0020328906249999995,0.7704449267578125
-0.2513292578125,0.1123235400390625,0.9857364697265625
-0.23017568359375,0.1191860693359375,1.246494833984375
-0.27053767578125,0.0686974609375,1.1921804150390625
-0.008184726562500001,0.171635400390625,1.1504000927734375
-0.1307295703125,0.01551285888671875,1.00220283203125
-0.20026890625,0.12678386962890625,1.0167030615234376
-0.19224513671875,0.08217742919921875,0.934862783203125
-0.20829267578125,0.165753232421875,0.9134810888671875
-0.12805498046875,0.1142842626953125,1.0363643896484376
-0.3660934765625,0.1338914892578125,1.069542880859375
-0.24962724609375,0.0294830078125,0.951574912109375
-0.265431640625,-0.02860340087890625,0.8554801708984375
-0.3038484765625,-0.014633251953124999,1.0759328125
-0.29679728515625,-0.02027032958984375,1.0658563818359374
-0.2027003515625,-0.03840701416015625,1.005643564453125
-0.17692703125,0.11305881103515625,0.970253173828125
-0.098148203125,0.16109651611328124,0.8783364648437499
-0.15236943359375,0.13511694091796875,0.8898874951171875
-0.138996484375,0.148106728515625,1.1211538671875
-0.36876806640625,0.11796061767578125,1.2388760693359375
-0.2445212109375,-0.014633251953124999,1.3062161181640626
-0.2333365625,-0.02272123291015625,1.15752732421875
-0.31041337890625,0.04051207275390625,1.0444746875
-0.24865466796875,-0.0396324658203125,1.0614325830078124
-0.240144609375,0.030463369140625002,0.993355234375
-0.24136033203125,0.009140510253906251,1.087729609375
-0.3913805078125,-0.027868129882812502,1.1818582177734376
-0.2639727734375,-0.04526954345703125,1.0678225146484375
-0.39648654296875,-0.027868129882812502,0.7161305078125
-0.14653396484375,-0.14477621826171874,0.537212421875
0.012482558593749998,-0.0661022216796875,0.4408719140625
-0.006239570312500001,0.0123266845703125,0.5212375927734375
-0.08088494140625,0.15521434814453125,0.9616513427734374
-0.2668905078125,0.1672237744140625,1.41115845703125
-0.566930859375,0.153988896484375,1.6168651025390626
-0.52681201171875,0.15080272216796875,1.33054701171875
-0.07893978515625,-0.00801581298828125,0.9306847509765624
-0.19273142578125,0.02972809814453125,0.7940385205078125
-0.24573693359375,-0.0082609033203125,0.7335799365234374
-0.0932853125,-0.04085791748046875,0.832623876953125
-0.2022140625,0.12237224365234375,1.0786362451171876
-0.392839375,0.09982393310546875,1.161951123046875
-0.2075632421875,0.07261890625,1.1150097021484375
-0.133161015625,-0.0288484912109375,0.873912666015625
-0.0782103515625,0.03561026611328125,1.067576748046875
-0.3388612890625,-0.03987755615234375,1.2115959765625
-0.2231244921875,0.01453249755859375,1.2054518115234374
-0.29485212890625,-0.038161923828125,1.048406953125
-0.28026345703125,-0.018554697265625,0.9680412744140625
-0.21655958984375,0.011346323242187501,0.953541044921875
-0.31989601562500003,-0.0724745703125,1.0058893310546875
-0.325731484375,0.03462990478515625,1.05233921875
-0.24573693359375,-0.05850442138671875,0.94223578125
-0.13510617187500001,-0.1013952294921875,0.9641090087890625
-0.18227621093750002,-0.0151234326171875,1.1268064990234374
-0.24476435546875,0.05497240234375,1.14573052734375
-0.133161015625,-0.06634731201171876,0.93142205078125
-0.22774423828125,0.0137972265625,0.8930824609375
-0.185680234375,-0.0190448779296875,0.9542783447265625
-0.133161015625,-0.1180613720703125,0.9813126708984374
-0.23163455078125,0.1485969091796875,1.140323662109375
-0.42760904296875,0.0037485229492187503,1.0189149609375
-0.22239505859375,-0.044044091796875,0.782487490234375
-0.17668388671875,0.0387964404296875,0.7851909228515626
-0.18057419921875,-0.0739451123046875,0.8859552294921875
-0.2017277734375,0.05105095703125,0.9872110693359375
-0.1637972265625,0.09394176513671874,1.045949287109375
-0.21266927734375,0.0515411376953125,1.0388220556640624
-0.2542469921875,0.08560869384765625,1.0771616455078126
-0.11881548828124999,0.021885207519531248,1.0786362451171876
-0.14702025390625,-0.0190448779296875,1.056763017578125
-0.2435486328125,0.04394333740234375,1.1051790380859374
-0.26664736328125,0.06306038330078124,1.0560257177734376
-0.34493990234375,0.073599267578125,0.9916348681640625
-0.310170234375,0.03512008544921875,0.9405154150390624
-0.20464550781250002,-0.0229663232421875,0.9179048876953125
-0.20488865234375,-0.098944326171875,0.9223286865234375
-0.25205869140625,-0.08154291259765625,0.99040603515625
-0.143859375,-0.0239466845703125,0.913235322265625
-0.2095083984375,-0.01830960693359375,0.7846993896484376
-0.12076064453125,-0.037916833496093746,0.832623876953125
-0.197351171875,0.018699033203125,0.8898874951171875
-0.12465095703125,-0.030319033203124998,1.032186357421875
-0.25254498046875,-0.03350520751953125,1.0818312109375
-0.24865466796875,0.0037485229492187503,1.138357529296875
-0.28196546875,-0.0016434643554687498,1.06118681640625
-0.2756437109375,0.02360083984375,1.0083469970703125
-0.2853694921875,-0.012672529296875,0.94911724609375
-0.20391607421875,-0.01585870361328125,0.9257694189453125
-0.2464663671875,0.03168882080078125,0.895540126953125
-0.2104809765625,-0.029338671875,0.9026673583984375
-0.189570546875,0.0250713818359375,0.9183964208984375
-0.210967265625,0.10031411376953125,1.008592763671875
-0.2114535546875,-0.00605509033203125,1.01006736328125
-0.18106048828125,-0.008751083984375,0.9282270849609375
-0.117599765625,0.00521906494140625,0.8087845166015625
-0.16306779296875,0.0172284912109375,0.8830060302734375
-0.27199654296875,-0.0317895751953125,1.0014655322265624
-0.35126166015625,-0.03105430419921875,1.13000146484375
-0.2873146484375,0.00987578125,1.122628466796875
-0.35101851562499997,-0.02762303955078125,1.0545511181640626
-0.32208431640625,0.0074248779296875,0.9284728515625
-0.2065906640625,0.04345315673828125,0.83114927734375
-0.09887763671875,0.0211499365234375,0.840488408203125
-0.15431458984375,-0.01781942626953125,0.9351085498046875
-0.15431458984375,0.0069346972656249995,1.166866455078125
-0.2698082421875,-0.027868129882812502,1.235681103515625
-0.20026890625,0.019679394531249998,1.250427099609375
-0.21704587890625,-0.010221625976562499,1.11525546875
-0.37119951171875,-0.0592396923828125,1.0597122167968749
-0.3369161328125,-0.091101435546875,0.9346170166015625
-0.26810623046875,-0.14379585693359376,0.6972064794921875
-0.24962724609375,-0.05801424072265625,0.669434853515625
-0.16720125,-0.0170841552734375,0.6637822216796875
-0.11346630859375,-0.02272123291015625,0.7566819970703125
-0.156502890625,0.013552136230468751,0.94321884765625
-0.26956509765625,0.01796376220703125,1.0732293798828125
-0.16987583984375,0.0191892138671875,1.1661291552734374
-0.1978374609375,0.0103659619140625,1.1454847607421874
-0.13243158203125,0.00570924560546875,1.084288876953125
-0.19662173828125,-0.023456503906250002,1.0791277783203126
-0.21899103515625,-0.0513968017578125,1.1282810986328125
-0.279047734375,0.02531647216796875,1.0471781201171875
-0.27831830078124997,0.00521906494140625,1.0142453955078126
-0.34396732421875,-0.02419177490234375,1.0294829248046875
-0.27053767578125,-0.05482806640625,0.984016103515625
-0.12124693359375,-0.065612041015625,0.837539208984375
-0.113709453125,-0.11732610107421874,0.7581565966796875
-0.1433730859375,-0.13203152099609375,0.835573076171875
-0.22361078125,-0.05556333740234375,0.9154472216796875
-0.19419029296875,-0.0366913818359375,1.0319405908203125
-0.23017568359375,0.02874773681640625,1.0457035205078125
-0.17133470703125,-0.011201987304687501,0.9911433349609375
-0.206104375,0.013552136230468751,1.066593681640625
-0.24914095703125,0.104970830078125,1.1250861328125
-0.263486484375,0.01257177490234375,1.111814736328125
-0.26761994140625,0.064776015625,1.06905134765625
-0.23503857421875,0.14050892822265626,1.120662333984375
-0.11541146484375,0.0672269189453125,1.177680185546875
-0.29752671875000003,-0.00360418701171875,1.2187232080078125
-0.23990146484375,0.01747358154296875,1.2895039892578124
-0.25935302734375,-0.09085634521484375,1.2437914013671876
-0.30214646484375,-0.09722869384765626,1.12213693359375
-0.14580453125,-0.037916833496093746,0.8436833740234375
-0.1210037890625,-0.13791368896484374,0.781504423828125
-0.28269490234375,-0.0881603515625,0.9483799462890625
-0.24816837890625,-0.04428918212890625,1.095594140625
-0.33108066406250003,-0.013162709960937501,1.0171945947265626
-0.28974609375,0.05962911865234375,0.9818042041015624
-0.18640966796875,0.04296297607421875,0.8839890966796875
-0.21218298828125,-0.118551552734375,0.8205813134765625
-0.1842213671875,-0.063651318359375,0.9414984814453125
-0.13802390625,-0.046004814453125,1.0130165625
-0.24233291015625,-0.05899460205078125,0.965337841796875
-0.17692703125,0.04590406005859375,0.9916348681640625
-0.21266927734375,-0.04330882080078125,0.9714820068359376
-0.15431458984375,-0.04772044677734375,0.9459222802734375
-0.23017568359375,0.0436982470703125,0.991880634765625
-0.2192341796875,-0.07075893798828126,0.9813126708984374
-0.29047552734375,0.0152677685546875,0.962388642578125
-0.2143712890625,-0.0097314453125,0.9070911572265625
-0.1958923046875,-0.06267095703125,0.8380307421875
-0.13632189453125,0.091245771484375,0.8889044287109376
-0.19953947265625,0.062080021972656246,0.910286123046875
-0.12756869140625,0.05570767333984375,1.021372626953125
-0.22628537109375,0.1309504052734375,1.1336879638671875
-0.2566784375,0.0956573974609375,1.1644087890625
-0.181789921875,0.11845079833984375,1.2413337353515626
-0.20148462890625,0.0137972265625,1.1931634814453125
-0.26275705078125,-0.00997653564453125,1.1331964306640625
-0.20026890625,-0.03129939453125,1.0791277783203126
-0.280992890625,-0.0170841552734375,1.02579642578125
-0.24719580078125,-0.016593974609375,0.97074470703125
-0.2133987109375,-0.08252327392578125,0.93142205078125
-0.17814275390625,-0.104826494140625,0.9311762841796875
-0.21121041015625,-0.15850127685546875,0.8397511083984375
-0.11638404296875,-0.08693489990234375,0.828691611328125
-0.113709453125,-0.09404251953125001,0.824759345703125
-0.2114535546875,-0.0955130615234375,0.9203625537109374
-0.16185207031249998,-0.04575972412109375,1.001711298828125
-0.1715778515625,-0.05360261474609375,0.9626344091796875
-0.100093359375,-0.0680629443359375,0.9051250244140625
-0.1949197265625,-0.00581,0.9872110693359375
-0.2620276171875,0.0035034326171875,0.99630443359375
-0.1900568359375,-0.00409436767578125,1.0284998583984375
-0.26713365234374997,0.05668803466796875,1.0324321240234375
-0.20148462890625,0.179478291015625,0.92945591796875
-0.107873984375,0.11992134033203125,0.8687515673828125
-0.17376615234375,0.12727405029296876,0.9655836083984375
-0.1472633984375,0.10080429443359375,1.1194335009765626
-0.19078626953125,0.03708080810546875,1.1762055859375
-0.21169669921875,0.09296140380859375,1.22240970703125
-0.2722396875,0.055462583007812497,1.088221142578125
-0.2450075,0.00423870361328125,0.99630443359375
-0.30214646484375,0.0368357177734375,0.915201455078125
-0.27199654296875,0.0221302978515625,0.83508154296875
-0.234309140625,0.05889384765625,0.8682600341796876
-0.2566784375,-0.022476142578125,0.869980400390625
-0.18495080078125,-0.006790361328125,0.8734211328125
-0.0714023046875,-0.0641414990234375,0.9046334912109375
-0.1793584765625,-0.05874951171875,0.987948369140625
-0.19710802734375,-0.1170810107421875,1.0343982568359376
-0.199296328125,-0.05458297607421875,1.06315294921875
-0.31697828125,-0.10458140380859375,0.9641090087890625
-0.26324333984375,-0.16389326416015626,0.9009469921875
-0.20877896484375,-0.1464918505859375,0.75250396484375
-0.13607875,-0.1200220947265625,0.7055625439453125
-0.181789921875,0.00668960693359375,0.79575888671875
-0.15917748046875,-0.077376376953125,0.7743771923828124
-0.24379177734375002,0.0133070458984375,0.8589209033203125
-0.19248828125,-0.0072805419921875,0.890624794921875
-0.201241484375,0.01257177490234375,0.88816712890625
-0.10617197265625,0.050070595703125,0.8658023681640625
-0.17765646484375,0.0515411376953125,0.871455
-0.2085358203125,-0.00948635498046875,0.9287186181640625
-0.2240970703125,0.07972652587890625,1.0471781201171875
-0.32937865234375,0.16477287109375,1.074458212890625
-0.280992890625,0.1397736572265625,1.0688055810546875
-0.1929745703125,0.0721287255859375,1.005643564453125
-0.1910294140625,0.04345315673828125,0.8026403515625
-0.1433730859375,0.0280124658203125,0.7711822265625
-0.13048642578125,0.05374695068359375,0.9016842919921875
-0.24573693359375,0.0446786083984375,1.1150097021484375
-0.237226875,-0.067572763671875,1.2676307617187499
-0.2834243359375,0.01208159423828125,1.4239383203125
-0.2785614453125,-0.018554697265625,1.40329392578125
-0.257651015625,-0.03129939453125,1.18112091796875
-0.33764556640625,-0.04821062744140625,1.05528841796875
-0.28853037109375,-0.09771887451171875,0.95501564453125
-0.20099833984375,-0.17516741943359376,0.812471015625
-0.1307295703125,0.1015395654296875,0.8092760498046875
-0.1365650390625,-0.006790361328125,0.8387680419921875
-0.19662173828125,0.0255615625,1.0759328125
-0.2707808203125,-0.010711806640625,1.106899404296875
-0.2309051171875,-0.1376685986328125,1.1213996337890624
-0.2620276171875,-0.1513936572265625,1.1386032958984376
-0.1866528125,-0.03742665283203125,1.02776255859375
-0.13729447265625,-0.0960032421875,0.88423486328125
-0.29096181640625,-0.1435507666015625,0.8889044287109376
-0.23163455078125,0.02286556884765625,1.0147369287109376
-0.37533296875,0.0691876416015625,1.01399962890625
-0.16525609375,0.00619942626953125,1.0152284619140626
-0.1555303125,0.02874773681640625,1.01596576171875
-0.2017277734375,-0.08423890625,0.99040603515625
-0.053409609375,-0.0724745703125,1.0122792626953125
-0.15674603515625,0.1015395654296875,1.072000546875
-0.19346085937500002,0.06698182861328125,1.1744852197265625
-0.245980078125,0.0652661962890625,1.1872650830078124
-0.10082279296875,0.20913422119140626,1.273037626953125
-0.31697828125,-0.02027032958984375,1.2310115380859374
-0.2357680078125,0.110852998046875,1.0815854443359374
-0.0986344921875,0.16624341308593749,0.8773533984374999
0.047981660156249994,-0.0337502978515625,0.66402798828125
0.022451484375,-0.1587463671875,0.76233462890625
-0.1083602734375,-0.41878720947265624,1.16539185546875
-0.33375525390625,-0.47270708251953125,1.061678349609375
-0.33764556640625,-0.4141304931640625,0.7409529345703125
-0.40621232421875,-0.4330024487304687,0.8427003076171875
-0.2775888671875,-0.396974169921875,0.65223119140625
0.03728330078125,-0.02615249755859375,0.76823302734375
-0.1346198828125,0.19050735595703125,1.001219765625
0.03314984375,0.16158669677734375,1.188493916015625
0.10341861328125,0.0152677685546875,1.2605035302734375
-0.1667149609375,0.062080021972656246,1.3396403759765625
-0.286828359375,0.1593808837890625,1.2093840771484374
-0.41691068359375,0.11379408203125,1.2039772119140626
-0.50371328125,0.1706550390625,1.1307387646484375
-0.37995271484375,0.16550814208984374,1.0860092431640624
-0.33278267578125,0.199085517578125,1.287783623046875
-0.4589746875,0.05889384765625,1.2423168017578126
-0.20099833984375,-0.0935523388671875,1.08478041015625
-0.242089765625,-0.057278969726562504,0.86850580078125
-0.17911533203125,-0.05164189208984375,0.7498005322265625
-0.12951384765625001,-0.044534272460937496,0.6704179199218749
-0.057543066406249996,-0.1729616064453125,0.6726298193359375
-0.072861171875,0.07090327392578125,0.7709364599609375
-0.06143337890625,0.04247279541015625,1.0014655322265624
-0.2172890234375,-0.00850599365234375,1.301546552734375
-0.32548833984375003,-0.01438816162109375,1.4182856884765624
-0.3719289453125,0.055952763671875,1.46817630859375
-0.54042810546875,-0.16095218017578125,1.0658563818359374
-0.3048210546875,0.11649007568359375,0.866048134765625
-0.415208671875,-0.03056412353515625,0.675333251953125
-0.3111428125,-0.0724745703125,0.7104778759765625
-0.222638203125,-0.07320984130859375,0.5777639111328124
-0.003808124999999999,-0.059729873046875,0.493465966796875
0.07959044921875,-0.126394443359375,0.756927763671875
0.162502734375,-0.120512275390625,1.066593681640625
0.255870234375,-0.316584541015625,1.544363955078125
-0.06143337890625,-0.1974706396484375,1.5657456494140625
-0.34834392578125,-0.25702759033203126,1.388056396484375
0.001784199218750001,-0.12369844970703125,1.58811041015625
-0.14167107421875,-0.24085162841796875,1.6920696826171875
-0.49568951171875,-0.03914228515625,1.65102666015625
-0.43368765625,0.13315621826171875,1.0919076416015625
-0.3709563671875,0.0250713818359375,0.6593584228515625
-0.29874244140625,7.216796875000007e-05,0.26097076171875
-0.15917748046875,0.026296833496093748,0.0921291064453125
0.0764295703125,-0.1210024560546875,0.450702578125
0.123599609375,-0.1013952294921875,0.7355460693359375
0.03776958984375,0.0020328906249999995,1.251410166015625
-0.50590158203125,0.07923634521484375,1.487346103515625
-0.4356328125,0.152028173828125,1.513888896484375
0.0034862109374999978,-0.0837487255859375,1.275003759765625
0.037526445312500004,0.1044806494140625,1.3027753857421875
-0.15577345703125,0.2299668994140625,1.1680952880859374
-0.25473328125,-0.032279755859375,1.045949287109375
-0.34591248046875,0.02237538818359375,0.9980247998046875
-0.4020788671875,0.12433296630859375,1.193409248046875
-0.32013916015625,0.05962911865234375,1.2511643994140624
-0.1842213671875,-0.05605351806640625,1.0633987158203124
-0.0067258593750000005,0.07457962890625,0.9154472216796875
-0.0422249609375,-0.01830960693359375,0.8498275390625
-0.20877896484375,-0.0474753564453125,0.7153932080078125
-0.16720125,-0.1259042626953125,0.5969337060546875
-0.08720669921875,-0.16193254150390626,0.6426462939453125
-0.10471310546875,-0.006790361328125,0.80165728515625
-0.18203306640625,-0.05017135009765625,0.9002096923828125
-0.2007551953125,-0.03938737548828125,1.0034316650390624
-0.2717533984375,-0.03914228515625,0.9636174755859375
-0.27807515625,-0.03644629150390625,1.0516019189453125
-0.38141158203125003,0.0417375244140625,1.0894499755859375
-0.2202067578125,0.00276816162109375,1.0309575244140625
-0.2124261328125,0.15129290283203126,1.0378389892578126
-0.1083602734375,-0.0038492773437499997,0.9700074072265625
-0.13024328125,-0.0906112548828125,0.92355751953125
-0.0996070703125,-0.0190448779296875,0.84687833984375
-0.040766093749999996,-0.07026875732421875,0.8205813134765625
-0.09887763671875,-0.0788469189453125,0.8284458447265625
-0.0699434375,0.042227705078125,0.8564632373046875
-0.25011353515625,-0.10016977783203125,0.7620888623046875
-0.220693046875,-0.04085791748046875,0.83311541015625
-0.30652306640625,0.02972809814453125,0.8284458447265625
-0.21315556640625,-0.0016434643554687498,0.888658662109375
-0.1939471484375,-0.07271966064453125,0.927981318359375
-0.1248941015625,-0.026397587890625,0.899472392578125
-0.13802390625,-0.116590830078125,0.9105318896484375
-0.20148462890625,-0.123453359375,0.968287041015625
-0.2036729296875,-0.00605509033203125,1.04545775390625
-0.15188314453125001,-0.01732924560546875,0.9660751416015625
-0.133161015625,-0.0719843896484375,0.798216552734375
-0.06289224609374999,0.0035034326171875,0.78002982421875
-0.12221951171875,-0.01634888427734375,0.7925639208984375
-0.20026890625,0.00865032958984375,0.83311541015625
-0.1958923046875,0.0770305322265625,0.9621428759765625
-0.181789921875,0.05497240234375,0.9857364697265625
-0.06872771484375,-0.0190448779296875,1.031203291015625
-0.27613,-0.03987755615234375,1.121645400390625
-0.2172890234375,-0.0964934228515625,1.22634197265625
-0.25254498046875,-0.13007079833984375,1.16145958984375
-0.24962724609375,0.1387932958984375,1.154086591796875
-0.44171142578125,0.0012976196289062499,0.904387724609375
-0.10568568359375,-0.07958218994140626,0.8205813134765625
-0.08574783203125,-0.100905048828125,0.7456225
-0.16793068359375,-0.09967959716796874,0.655180390625
-0.07310431640625001,0.0003172583007812497,0.7987080859375
-0.1968648828125,-0.16879507080078124,1.056763017578125
-0.31770771484375,-0.03350520751953125,1.12017080078125
-0.25546271484375,0.0535018603515625,1.0648733154296874
-0.23066197265625,-0.0337502978515625,1.15556119140625
-0.38287044921875,-0.0200252392578125,1.162934189453125
-0.35393625,0.0270321044921875,1.076424345703125
-0.29436583984375,-0.07909200927734375,0.9685328076171875
-0.267376796875,-0.18644157470703124,0.9149556884765625
-0.08769298828125,-0.0582593310546875,0.7586481298828125
-0.06751199218750001,-0.2621744873046875,0.695977646484375
-0.12124693359375,-0.2957518627929687,0.7896147216796875
-0.14993798828125,-0.12663953369140624,1.02579642578125
-0.18640966796875,-0.05997496337890625,1.08379734375
-0.1706052734375,-0.1494329345703125,1.0511103857421875
-0.2007551953125,-0.01561361328125,1.0653648486328124
-0.19759431640625,-0.046249904785156254,1.096085673828125
-0.23406599609375,-0.04306373046875,1.1422897949218749
-0.277102578125,-0.07271966064453125,1.0506188525390625
-0.27345541015625,0.0152677685546875,0.956490244140625
-0.14896541015625,-0.00801581298828125,0.9508376123046876
-0.23941517578125,-0.05605351806640625,0.9164302880859375
0.052115117187500004,-0.0366913818359375,1.0818312109375
-0.1710915625,-0.00409436767578125,1.1722733203125
-0.20780638671875,0.016738310546875,1.31285181640625
-0.1657423828125,0.02531647216796875,1.3022838525390625
-0.244034921875,0.04933532470703125,1.1887396826171874
-0.1871391015625,-0.037916833496093746,0.9365831494140625
-0.0568136328125,-0.14771730224609375,0.86653966796875
-0.0694571484375,-0.07173929931640625,1.0476696533203125
-0.2785614453125,0.06453092529296875,1.226833505859375
-0.2902323828125,-0.0641414990234375,1.2015195458984376
-0.129270703125,0.03928662109375,1.2076637109375
-0.28658521484375,0.03561026611328125,1.1931634814453125
-0.16598552734375,-0.077376376953125,1.1263149658203124
-0.07650833984375,-0.12909043701171874,1.0393135888671874
-0.17376615234375,-0.13301188232421876,1.0284998583984375
-0.11395259765625,-0.142080224609375,1.181612451171875
-0.11395259765625,-0.2131564208984375,1.0457035205078125
-0.016937929687500002,-0.10065995849609374,1.1096028369140625
-0.154557734375,-0.193059013671875,1.154086591796875
-0.21947732421875,-0.10286577148437501,1.145238994140625
-0.17133470703125,-0.059729873046875,1.1845616503906249
-0.33253953125,-0.2293323828125,1.0914161083984375
-0.2202067578125,-0.1092381201171875,0.8874298291015625
-0.0466015625,-0.09183670654296874,0.8672769677734375
-0.14945169921875,-0.1121792041015625,0.8520394384765625
-0.13583560546875,-0.16095218017578125,0.9134810888671875
-0.0568136328125,0.0505607763671875,1.1002637060546876
-0.174981875,-0.0759058349609375,1.15162892578125
-0.16793068359375,-0.02713285888671875,1.06806828125
-0.11687033203125,-0.02737794921875,0.9994993994140625
-0.19564916015625,-0.02762303955078125,1.03562708984375
-0.1929745703125,-0.008751083984375,1.00416896484375
-0.187625390625,-0.057278969726562504,1.0196522607421874
-0.19808060546875,-0.02615249755859375,1.0457035205078125
-0.27783201171875,-0.02027032958984375,0.9503460791015625
-0.15358515625,-0.0724745703125,0.9208540869140625
-0.18470765625,-0.0016434643554687498,1.052830751953125
-0.1083602734375,-0.03129939453125,1.0592206835937499
-0.13729447265625,-0.07419020263671874,1.06806828125
-0.20002576171875,0.01796376220703125,1.0422627880859374
-0.13802390625,-0.13129625,0.8520394384765625
-0.09352845703125,-0.12761989501953125,0.8407341748046875
-0.22579908203125,-0.04330882080078125,1.028254091796875
-0.1657423828125,0.040266982421875,1.0820769775390624
-0.14215736328125,-0.09526797119140624,1.0368559228515626
-0.2445212109375,0.00963069091796875,1.06511908203125
-0.19516287109375,0.0623251123046875,0.9872110693359375
-0.12416466796875,-0.06659240234375,0.893573994140625
-0.2202067578125,-0.15948163818359376,0.8510563720703125
-0.12708240234375,-0.10997339111328125,0.789368955078125
-0.138996484375,-0.13325697265625,0.705808310546875
-0.16793068359375,-0.120512275390625,0.8557259375
-0.02933830078125,-0.139139140625,0.9857364697265625
-0.14896541015625,-0.11585555908203125,1.072000546875
-0.20391607421875,-0.03497574951171875,1.1631799560546874
-0.15285572265625,-0.0641414990234375,1.0722463134765625
-0.1355924609375,0.0003172583007812497,0.999745166015625
-0.2133987109375,0.03315936279296875,1.0157199951171876
-0.2022140625,-0.02223105224609375,1.0520934521484375
-0.1667149609375,0.0564429443359375,1.11525546875
-0.1861665234375,0.00276816162109375,1.1164843017578125
-0.15820490234375,-0.09918941650390625,1.0073639306640625
-0.07893978515625,-0.00360418701171875,0.9950756005859375
-0.18689595703125,-0.11928682373046876,0.9041419580078125
-0.12367837890625,-0.163648173828125,0.9149556884765625
-0.164283515625,-0.0082609033203125,1.0294829248046875
-0.2027003515625,-0.191098291015625,1.0678225146484375
-0.1103054296875,-0.08742508056640624,1.1091113037109375
-0.15966376953125,0.019434304199218752,1.16244265625
-0.25157240234375,-0.06340622802734375,1.202256845703125
-0.17960162109375,0.0358553564453125,1.1445016943359374
-0.26178447265625,-0.1278649853515625,0.8957858935546875
-0.164283515625,7.216796875000007e-05,0.987948369140625
-0.035903203125000005,-0.0915916162109375,0.9874568359375
-0.18738224609375,-0.21193096923828125,0.930930517578125
-0.1093328515625,-0.0425735498046875,0.965337841796875
-0.2104809765625,-0.20261753662109375,0.8144371484375
0.0039725,-0.12075736572265625,0.8589209033203125
-0.1676875390625,-0.1430605859375,0.837539208984375
-0.07383375,-0.00752563232421875,0.986965302734375
-0.0451426953125,-0.032279755859375,1.016457294921875
-0.19370400390625,-0.05311243408203125,1.1027213720703124
-0.10811712890625,0.07286399658203124,1.13393373046875
