ax,ay,az
-0.3203823046875,-0.00213364501953125,1.0633987158203124
-0.3505322265625,-0.045024453125,0.7950215869140624
-0.18786853515625002,-0.1259042626953125,0.5467973193359374
-0.04295439453125,-0.12712971435546874,0.4430838134765625
0.060382031249999996,-0.03448556884765625,0.6020948046875
-0.0354169140625,-0.1038461328125,0.91765912109375
-0.0704297265625,-0.071494208984375,1.3767511328125
-0.29825615234375,0.03904153076171875,1.437209716796875
-0.28220861328125,0.09933375244140626,1.16735798828125
-0.12902755859375,-0.0097314453125,0.9916348681640625
-0.210967265625,-0.03889719482421875,0.984016103515625
-0.1958923046875,-0.01953505859375,1.0019570654296874
-0.06872771484375,-0.12467881103515625,1.091170341796875
0.057707441406250004,-0.16854998046875,1.02088109375
-0.10690140625,-0.0955130615234375,1.0717547802734375
-0.20245720703125,-0.1121792041015625,0.9638632421875
-0.221665625,-0.1062970361328125,0.8893959619140624
-0.24427806640625,-0.11683592041015625,0.9188879541015624
-0.2766162890625,-0.08963089355468751,0.9881941357421875
0.01005111328125,-0.0249270458984375,0.977134638671875
0.0550328515625,-0.0798272802734375,1.0235845263671874
-0.12221951171875,-0.0925719775390625,1.1189419677734376
-0.1764407421875,0.00668960693359375,1.153103525390625
-0.252788125,-0.0013983740234375002,1.134916796875
-0.33959072265625,-0.0347306591796875,1.0766701123046876
-0.2795340234375,0.1564397998046875,0.975168505859375
-0.07845349609375,-0.0366913818359375,0.80558955078125
0.018561171875,-0.06830803466796875,1.0167030615234376
-0.05802935546875,-0.0033590966796874996,1.203239912109375
-0.18008791015625,-0.14109986328125,1.155069658203125
-0.23455228515625,-0.12124754638671875,1.08379734375
-0.1472633984375,-0.1352176953125,0.9606682763671874
-0.174981875,-0.0533575244140625,0.8849721630859375
-0.143859375,-0.07835673828125,0.9614055761718749
-0.26470220703125,-0.0347306591796875,1.215036708984375
-0.30895451171875,0.032424091796875,1.072492080078125
-0.11687033203125,-0.11389483642578124,0.7743771923828124
-0.0529233203125,-0.15212892822265625,0.7434106005859376
-0.16914640625,-0.07468038330078125,0.7436563671875001
-0.1851939453125,-0.08497417724609375,0.817877880859375
-0.17473873046875,-0.0455146337890625,0.9247863525390625
-0.2795340234375,0.07776580322265625,0.8989808593749999
-0.18251935546875,0.07139345458984375,0.9127437890625
-0.0388209375,0.03144373046875,0.9198710205078124
-0.16598552734375,0.09884357177734375,0.947642646484375
-0.2231244921875,0.0584036669921875,1.1287726318359375
-0.34153587890625,0.0358553564453125,1.17522251953125
-0.33715927734375,-0.00581,1.0157199951171876
-0.10130908203125,0.016738310546875,1.1400778955078126
-0.30871136718750003,-0.14109986328125,1.1002637060546876
-0.27442798828125,-0.059729873046875,0.947642646484375
-0.06799828125,-0.10948321044921874,0.7960046533203124
-0.284883203125,-0.0964934228515625,0.7296476708984375
-0.22044990234375,0.00178780029296875,0.641908994140625
-0.117599765625,-0.05311243408203125,0.6642737548828125
-0.074806328125,-0.02713285888671875,0.67484171875
-0.20488865234375,-0.01683906494140625,0.9247863525390625
-0.08307324218750001,0.09026541015625,1.105916337890625
-0.21193984375,0.0059543359375,1.3111314501953124
-0.52486685546875,0.0368357177734375,1.2310115380859374
-0.473563359375,-0.035711020507812496,0.89996392578125
-0.346155625,-0.089140712890625,0.593738740234375
-0.16841697265625,-0.10605194580078126,0.443329580078125
-0.16015005859375,-0.12222790771484375,0.4013034912109375
0.018318027343749998,-0.09918941650390625,0.4686435400390625
0.059166308593749994,-0.04772044677734375,0.7232577392578124
-0.06410796875,-0.15261910888671876,0.823776279296875
-0.0363894921875,-0.06536695068359374,0.907336923828125
0.006403945312499999,-0.052867343750000004,0.993355234375
-0.263486484375,0.1495772705078125,1.3177671484375
-0.31819400390625,0.17506666503906249,1.5460843212890625
-0.40378087890625003,-0.03448556884765625,1.3334962109375
-0.21193984375,0.218692744140625,1.0648733154296874
0.060382031249999996,0.0809519775390625,1.060695283203125
-0.09790505859375,0.18560554931640624,1.2654188623046876
-0.24525064453125,0.25913264892578125,1.4182856884765624
-0.44900576171875,0.2397705126953125,1.479481572265625
-0.43636224609375,0.15864561279296874,1.32858087890625
-0.41156150390625,0.12874459228515625,1.252884765625
-0.15382830078125,0.0682072802734375,1.392971728515625
-0.28561263671875,-0.07026875732421875,1.521753427734375
-0.37752126953125,-0.04183827880859375,1.3873190966796876
-0.4589746875,-0.00948635498046875,1.148188193359375
-0.2941226953125,-0.0700236669921875,1.09264494140625
-0.2980130078125,-0.08105273193359375,1.20864677734375
-0.26470220703125,-0.1523740185546875,1.4055058251953125
-0.23406599609375,-0.12124754638671875,1.4005904931640625
-0.38530189453125,-0.165608896484375,1.237155703125
-0.39867484375,-0.2425672607421875,0.9498545458984375
-0.32791978515625,-0.248939609375,0.726452705078125
-0.220693046875,-0.269527197265625,0.68368931640625
-0.21972046875,-0.33398595458984376,0.7534870312499999
-0.21655958984375,-0.3847196533203125,0.9070911572265625
-0.13291787109375,-0.375406220703125,0.9375662158203125
-0.121490078125,-0.2798209912109375,0.9193794873046874
-0.27296912109375,-0.00581,0.8176321142578125
-0.20683380859375,-0.05997496337890625,0.7935469873046875
-0.33083751953125,-0.02468195556640625,0.926998251953125
-0.31965287109375,0.01649322021484375,0.944693447265625
-0.2221519140625,0.09835339111328124,0.8458952734375
-0.214857578125,0.130460224609375,0.7316138037109375
-0.10714455078125,0.148106728515625,0.8117337158203125
-0.1278118359375,0.21648693115234374,0.9808211376953125
-0.40134943359374997,0.1848702783203125,1.074458212890625
-0.28415376953125,0.083402880859375,0.865065068359375
-0.1633109375,0.01110123291015625,0.7045794775390625
-0.17911533203125,0.021885207519531248,0.597671005859375
0.02853009765625,-0.09012107421875,0.66796025390625
-0.040279804687500004,0.0858537841796875,0.893573994140625
-0.249870390625,0.16256705810546876,1.01399962890625
-0.06824142578125,0.1348718505859375,1.0894499755859375
-0.17692703125,0.182419375,1.174239453125
-0.421044140625,0.01575794921875,1.127543798828125
-0.40572603515625,0.2191829248046875,1.093136474609375
-0.251815546875,0.18168410400390625,0.871946533203125
-0.2036729296875,0.17384121337890626,0.7439021337890624
-0.08088494140625,0.11354899169921875,0.676316318359375
-0.0276362890625,-0.0523771630859375,0.6084847363281249
-0.03760521484375,0.0456589697265625,0.7247323388671875
-0.01620849609375,0.0280124658203125,0.6475616259765625
-0.1511537109375,0.00963069091796875,0.6355190625
-0.189570546875,-0.03693647216796875,0.5942302734375
-0.2843969140625,0.032424091796875,0.576535078125
-0.18592337890625,-0.03742665283203125,0.4381684814453125
-0.09887763671875,-0.01732924560546875,0.35534513671875
-0.07796720703125,-0.0190448779296875,0.3526417041015625
-0.17279357421875,-0.02958376220703125,0.394176259765625
-0.24768208984375,-0.04870080810546875,0.478719970703125
-0.09061072265625,0.0037485229492187503,0.7515208984375
-0.158448046875,0.2142811181640625,1.1538408251953125
-0.16452666015625,0.32922848388671877,1.4851342041015625
-0.1521262890625,0.3985890478515625,1.649552060546875
-0.11103486328125,0.306925263671875,1.661348857421875
-0.40718490234375,0.21403602783203124,1.55861841796875
-0.009886738281250002,-0.028358310546875,1.3013007861328125
0.02463978515625,-0.037916833496093746,1.1523662255859375
-0.035173769531249996,-0.1602169091796875,1.1032129052734374
-0.09304216796875,-0.3219765283203125,1.172764853515625
-0.3344846875,-0.175412509765625,1.4217264208984375
-0.44608802734374997,-0.1013952294921875,1.7994696875
-0.57495462890625,-0.25310614501953127,1.9447177490234375
-0.532890625,-0.19918627197265626,1.62645
-0.25351755859375,-0.10703230712890625,1.2157740087890625
-0.17376615234375,-0.25016506103515623,1.0189149609375
-0.2347954296875,-0.06291604736328126,1.045949287109375
-0.10325423828125,-0.17124597412109374,0.887675595703125
-0.210967265625,-0.042328459472656246,0.9007012255859375
-0.199296328125,-0.169530341796875,0.955507177734375
-0.27418484375,-0.0004180126953125,0.9213456201171875
-0.13243158203125,-0.0288484912109375,0.9990078662109375
-0.16258150390625,-0.2768799072265625,1.075441279296875
-0.32548833984375003,-0.00654527099609375,1.0786362451171876
-0.4001337109375,-0.100905048828125,0.9950756005859375
-0.43927998046875,-0.1631579931640625,0.946168046875
-0.389921640625,-0.12958061767578125,0.8948028271484375
-0.2523018359375,-0.023456503906250002,0.8274627783203125
-0.18835482421875,-0.10164031982421876,0.7537327978515624
-0.19808060546875,0.11501953369140624,0.8422087744140625
-0.17692703125,0.18021356201171876,1.0201437939453124
-0.22142248046875002,0.103010107421875,1.1027213720703124
-0.187625390625,0.23805488037109374,1.2206893408203126
-0.36439146484375,0.30717035400390624,1.324157080078125
-0.4390368359375,0.0809519775390625,1.0722463134765625
-0.21218298828125,0.10570610107421875,0.879811064453125
-0.1842213671875,0.046149150390625,0.78986048828125
-0.2133987109375,-0.046004814453125,0.8318865771484375
-0.31819400390625,0.04149243408203125,0.8313950439453125
-0.3223274609375,-0.04428918212890625,0.7286646044921875
-0.179844765625,0.0162481298828125,0.597671005859375
-0.04198181640625,-0.01879978759765625,0.5942302734375
-0.13413359375,0.04443351806640625,0.714655908203125
-0.15066742187499998,0.06502110595703126,0.751029365234375
-0.1900568359375,0.010856142578125,0.8923451611328125
-0.16404037109375,0.13903838623046874,1.015474228515625
-0.21315556640625,0.128499501953125,1.0471781201171875
-0.15869119140625,0.03855135009765625,0.8333611767578125
-0.02787943359375,0.05374695068359375,0.788385888671875
-0.1715778515625,-0.048455717773437504,0.7591396630859375
-0.2299325390625,0.15570452880859376,0.880794130859375
-0.053409609375,0.19736988525390625,1.008592763671875
-0.31138595703125,0.1966346142578125,0.9832788037109375
-0.2989855859375,0.205948046875,0.800182685546875
-0.0859909765625,-0.01169216796875,0.664519521484375
-0.012075039062500001,0.06404074462890624,0.565229814453125
-0.013777050781250001,0.06158984130859375,0.568670546875
0.024396640625,0.008895419921875,0.6544430908203125
0.07132353515625,0.0201695751953125,0.944693447265625
0.02512607421875,0.15472416748046874,1.295648154296875
-0.19029998046875,0.2201632861328125,1.5890934765625
-0.26713365234374997,0.08364797119140625,1.4104211572265626
-0.3359435546875,-0.0023787353515625003,1.1958669140625
-0.26372962890625,0.00276816162109375,0.9778719384765625
-0.07796720703125,-0.04306373046875,0.997779033203125
-0.162338359375,0.01649322021484375,1.0869923095703125
-0.24622322265625,0.01649322021484375,0.8854636962890625
-0.07553576171875,-0.08056255126953125,0.7188339404296875
-0.02520484375,-0.0513968017578125,0.6279002978515625
-0.0013766796875,0.0584036669921875,0.852285205078125
-0.0772377734375,0.0059543359375,1.0604495166015624
-0.1861665234375,0.18438009765625,1.3091653173828126
-0.29363640625,0.146146005859375,1.3017923193359375
-0.27929087890625,0.081442158203125,1.1508916259765625
-0.23260712890625002,0.197124794921875,1.01006736328125
-0.259596171875,0.2731027978515625,1.002694365234375
-0.323786328125,0.09541230712890625,1.0830600439453124
-0.35101851562499997,0.08854977783203125,1.155069658203125
-0.2785614453125,0.1633023291015625,1.15949345703125
-0.14896541015625,0.10815700439453126,1.0216183935546874
-0.12805498046875,0.08953013916015624,1.02088109375
-0.140941640625,0.030463369140625002,1.1022298388671874
-0.23747001953125,0.01551285888671875,1.1533492919921875
-0.2513292578125,-0.17271651611328126,0.9940925341796875
-0.08355953125,-0.1033559521484375,0.8402426416015625
-0.21972046875,-0.15703073486328126,0.8333611767578125
-0.1988100390625,-0.1729616064453125,0.87637033203125
-0.27515742187500003,0.01649322021484375,0.8525309716796875
-0.35466568359375,0.09149086181640625,0.8407341748046875
-0.20415921875,-0.05752406005859375,0.7711822265625
-0.06410796875,0.06796218994140625,0.8431918408203125
-0.1637972265625,0.08242251953125,0.952557978515625
-0.19710802734375,0.00570924560546875,1.004660498046875
-0.0607039453125,-0.03522083984375,1.0412797216796874
-0.28755779296875,-0.0175743359375,1.098051806640625
-0.286828359375,-0.0759058349609375,1.0353813232421876
-0.24865466796875,-0.02517213623046875,0.8682600341796876
-0.17279357421875,0.03217900146484375,0.8023945849609375
-0.209022109375,-0.011201987304687501,0.9031588916015625
-0.321841171875,0.04198261474609375,1.0211268603515624
-0.29971501953125,0.09982393310546875,0.8903790283203125
-0.31187224609374997,0.10815700439453126,0.758893896484375
-0.181789921875,0.13021513427734374,0.628146064453125
-0.16647181640625,0.15129290283203126,0.6814774169921874
-0.0587587890625,0.15178308349609376,0.853268271484375
-0.049519296875,0.1387932958984375,1.1526119921875
-0.4020788671875,0.0711483642578125,1.3020380859375
-0.31868029296875,0.21109494384765626,1.300563486328125
-0.30627992187499997,0.163792509765625,1.353649072265625
-0.45702953125,0.23315307373046876,1.2197062744140625
-0.3680386328125,0.2299668994140625,1.0923991748046875
-0.2027003515625,0.16305723876953124,0.9749227392578125
-0.3656071875,0.1917328076171875,0.9798380712890625
-0.39867484375,0.1260485986328125,0.8928366943359375
-0.17911533203125,-0.0038492773437499997,0.7085117431640625
-0.01961251953125,0.1672237744140625,0.7729025927734375
-0.16695810546875,0.01992448486328125,0.906353857421875
-0.1920019921875,-0.00997653564453125,1.0176861279296876
-0.09887763671875,0.06404074462890624,1.0425085546875
-0.376305546875,0.0446786083984375,1.0535680517578125
-0.45095091796875,0.0191892138671875,1.00515203125
-0.21947732421875,0.09100068115234375,0.97271083984375
-0.2386857421875,0.185360458984375,1.1617053564453126
-0.29582470703125,0.030463369140625002,1.194392314453125
-0.12805498046875,0.08021670654296875,1.0550426513671876
-0.1229489453125,0.00865032958984375,0.8815314306640625
-0.10519939453125,0.026296833496093748,0.8603955029296875
-0.226528515625,-0.02125069091796875,0.8557259375
-0.19370400390625,0.06011929931640625,0.9641090087890625
-0.12076064453125,-0.1308060693359375,0.936828916015625
-0.030067734375000002,0.0309535498046875,0.98843990234375
-0.03906408203125,-0.06634731201171876,1.093136474609375
-0.1929745703125,-0.0249270458984375,1.098051806640625
-0.1151683203125,0.0907555908203125,0.907336923828125
-0.23917203125,-0.06291604736328126,0.77019916015625
-0.2523018359375,-0.07713128662109375,0.7552073974609375
-0.1550440234375,-0.0494360791015625,0.6800028173828125
0.07375498046875,-0.10164031982421876,0.812471015625
-0.09061072265625,-0.1739419677734375,0.8871840625
-0.18227621093750002,-0.02762303955078125,0.9626344091796875
0.07910416015624999,-0.0038492773437499997,0.907336923828125
0.02220833984375,0.00472888427734375,0.99237216796875
-0.15334201171875,0.1172253466796875,0.9970417333984375
-0.252788125,0.0074248779296875,1.019406494140625
-0.2649453515625,0.15668489013671874,1.0186691943359376
-0.26032560546875,0.2446723193359375,1.0265337255859375
-0.17303671874999998,0.1064413720703125,0.9577190771484375
-0.0354169140625,0.19982078857421876,0.9284728515625
-0.20683380859375,0.08903995849609375,0.93338818359375
-0.138996484375,0.1260485986328125,0.911269189453125
-0.013290761718750002,0.0093856005859375,0.9400238818359374
-0.08574783203125,0.104970830078125,1.147205126953125
-0.1385101953125,0.11894097900390625,1.283851357421875
-0.271267109375,-0.0161037939453125,1.0358728564453126
-0.30919765625,0.17482157470703125,0.9916348681640625
-0.35806970703125,0.052031318359375,0.8726838330078125
-0.1321884375,0.0407571630859375,0.7640549951171876
-0.15528716796875,0.11599989501953126,0.8156659814453124
-0.17036212890625,0.0427178857421875,0.8603955029296875
-0.17182099609375,0.08609887451171874,0.9183964208984375
-0.18081734375,0.04320806640625,0.9872110693359375
-0.1599069140625,0.16403760009765625,1.0078554638671875
-0.113709453125,0.014777587890624999,1.07494974609375
-0.07213173828125,0.01404231689453125,1.2221639404296876
-0.18689595703125,0.04639424072265625,1.420497587890625
-0.411318359375,-0.014633251953124999,1.4389300830078124
-0.37338781249999997,-0.028113220214843748,1.2496897998046874
-0.1239215234375,-0.0254172265625,0.9936010009765625
-0.13510617187500001,0.08217742919921875,0.7876485888671875
-0.14361623046875,-0.13252170166015625,0.96681244140625
-0.24306234375,0.02531647216796875,0.9483799462890625
-0.2022140625,0.16011615478515626,0.99237216796875
-0.19832375,0.16085142578125,0.93732044921875
-0.2289599609375,0.19982078857421876,0.968287041015625
-0.18470765625,0.2564366552734375,1.0496357861328125
-0.1365650390625,0.15325362548828125,1.0319405908203125
-0.05632734375,0.15717507080078125,1.0589749169921876
-0.11079171875,0.16207687744140625,1.0309575244140625
-0.1258666796875,0.14418528320312501,0.933879716796875
-0.05462533203125,0.14148928955078124,0.913235322265625
-0.07067287109375,0.17653720703125,1.091661875
-0.23917203125,0.1123235400390625,1.2167570751953125
-0.06921400390625,0.064776015625,1.1907058154296875
-0.10106593750000001,0.01747358154296875,1.0149826953125
-0.22579908203125,0.04100225341796875,0.86850580078125
-0.172064140625,0.028257556152343752,0.7082659765625
-0.016451640625,-0.00311400634765625,0.6178238671875
0.02463978515625,0.0338946337890625,0.7554531640625
-0.0237459765625,-0.0023787353515625003,0.977134638671875
0.00421564453125,-0.0641414990234375,1.1970957470703125
-0.09109701171875,0.01600303955078125,1.3715900341796874
-0.26761994140625,0.0731090869140625,1.31088568359375
-0.09839134765625,0.05619785400390625,1.12410306640625
-0.2649453515625,0.07090327392578125,1.085271943359375
-0.29485212890625,0.1485969091796875,1.072492080078125
-0.14993798828125,0.02874773681640625,1.0678225146484375
-0.055354765624999996,0.032424091796875,0.941744248046875
-0.05657048828125,0.04247279541015625,0.91569298828125
-0.16355408203125,0.0476196923828125,0.867031201171875
-0.185680234375,-0.0582593310546875,0.95796484375
-0.267376796875,0.0142874072265625,1.127052265625
-0.21558701171875,-0.01830960693359375,1.24403716796875
-0.12124693359375,0.03413972412109375,1.0373474560546876
0.005431367187500001,0.12335260498046875,1.0540595849609375
-0.162338359375,0.055952763671875,1.1548238916015625
-0.31673513671875,0.05497240234375,1.181612451171875
-0.33642984375,-0.02321141357421875,1.2364184033203125
-0.358799140625,0.00816014892578125,1.2850801904296876
-0.33472783203125,0.1064413720703125,1.22830810546875
-0.15358515625,-0.05899460205078125,1.0786362451171876
-0.2075632421875,-0.095022880859375,1.0555341845703126
-0.2182616015625,-0.09771887451171875,0.9832788037109375
-0.18446451171875,-0.16683434814453124,0.819844013671875
-0.10957599609375,-0.1200220947265625,0.750046298828125
-0.20780638671875,-0.11879664306640625,0.8146829150390625
-0.23747001953125,-0.028113220214843748,1.083305810546875
-0.3388612890625,0.02776737548828125,1.182595517578125
-0.26421591796875,0.01453249755859375,1.0751955126953125
-0.2338228515625,0.05619785400390625,0.938795048828125
-0.26956509765625,0.0270321044921875,0.967303974609375
-0.30944080078125,0.05913893798828125,0.9877026025390625
-0.24306234375,0.110852998046875,0.9552614111328125
-0.1628246484375,0.13854820556640626,0.95894791015625
-0.1200312109375,0.120656611328125,1.0751955126953125
-0.137051328125,0.09639266845703125,1.17325638671875
-0.19029998046875,0.06109966064453125,1.182595517578125
-0.18981369140625,0.09002031982421875,1.1351625634765625
-0.29144810546875,0.053992041015625,1.0545511181640626
-0.27637314453125,0.03610044677734375,0.9188879541015624
-0.1929745703125,-0.01978014892578125,0.7928096875
-0.07188859375000001,0.01796376220703125,0.7483259326171875
-0.10544253906250001,0.0037485229492187503,0.7751144921875
0.0008116210937499993,0.00570924560546875,0.8259881787109375
-0.08526154296874999,-0.03693647216796875,0.9414984814453125
-0.280992890625,-0.06683749267578125,0.929947451171875
-0.15139685546875,0.0495804150390625,0.8608870361328125
0.024396640625,-0.01389798095703125,0.8633447021484375
-0.1205175,0.10227483642578125,1.0476696533203125
-0.232363984375,-0.03105430419921875,1.0103131298828125
-0.0568136328125,-0.01144707763671875,0.8365561425781249
-0.04295439453125,0.055952763671875,0.7394783349609375
-0.12829812499999999,0.05472731201171875,0.776589091796875
-0.07699462890625,0.04835496337890625,0.7999369189453125
-0.05413904296875,0.1368325732421875,0.9110234228515625
-0.13437673828125,0.12874459228515625,0.9464138134765625
-0.1093328515625,-0.05311243408203125,0.93732044921875
-0.056084199218750005,0.04541387939453125,0.9223286865234375
-0.0801555078125,0.05325677001953125,0.89504859375
-0.18884111328125,0.15374380615234376,0.92650671875
-0.13680818359375,0.1329111279296875,0.8628531689453125
-0.24914095703125,0.17384121337890626,1.002694365234375
-0.10714455078125,0.1927131689453125,1.043983154296875
-0.0714023046875,0.15815543212890626,1.0899415087890625
-0.23601115234375,0.15325362548828125,1.0137538623046876
-0.18397822265625,0.19589934326171876,1.073475146484375
-0.2843969140625,0.02139502685546875,0.8225474462890625
-0.2513292578125,0.08266760986328126,0.7571735302734375
-0.16185207031249998,0.057913486328125,0.7517666650390625
-0.24962724609375,-0.03448556884765625,0.764792294921875
-0.10544253906250001,0.0270321044921875,0.9331424169921875
-0.06289224609374999,0.1299700439453125,1.196358447265625
-0.3320532421875,0.03536517578125,1.368395068359375
-0.36293259765625,0.05129604736328125,1.32268248046875
-0.19613544921875,0.01404231689453125,1.074458212890625
-0.35028908203125,-0.0023787353515625003,1.0142453955078126
-0.30166017578125,-0.0837487255859375,1.1061621044921874
-0.04003666015625,0.01600303955078125,1.1941465478515625
-0.2255559375,-0.17663796142578125,1.1565442578125
-0.33278267578125,-0.00777072265625,0.9724650732421874
-0.19662173828125,-0.0945327001953125,0.8235305126953125
-0.13389044921874999,-0.0690433056640625,0.7915808544921875
-0.10130908203125,0.01894412353515625,1.1538408251953125
-0.221665625,0.10031411376953125,1.4920156689453126
-0.30798193359375,0.0633054736328125,1.439175849609375
-0.3767918359375,0.071638544921875,1.1218911669921874
-0.28074974609375003,0.17040994873046875,0.800182685546875
-0.23795630859375,0.130460224609375,0.7119524755859374
-0.2347954296875,0.09884357177734375,0.870963466796875
-0.20877896484375,0.08903995849609375,1.2501813330078124
-0.34785763671875003,0.0255615625,1.4684220751953125
-0.26421591796875,0.00399361328125,1.405751591796875
-0.26129818359375,-0.13595296630859374,1.070525947265625
-0.30409162109375,-0.11242429443359375,0.88226873046875
-0.28318119140625,-0.14502130859375,0.8540055712890625
-0.27588685546875,-0.07419020263671874,0.9975332666015625
-0.3164919921875,-0.09820905517578125,1.1189419677734376
-0.23698373046875,-0.0710040283203125,1.036118623046875
-0.1151683203125,-0.01585870361328125,0.890624794921875
-0.2931501171875,-0.098944326171875,0.721537373046875
-0.30603677734375,-0.053847705078125,0.6854096826171875
-0.16914640625,0.04100225341796875,0.7763433251953125
-0.3291355078125,-0.053847705078125,1.0130165625
-0.21899103515625,-0.0817880029296875,1.1322133642578125
-0.1477496875,-0.01683906494140625,1.238630302734375
-0.23698373046875,0.02335574951171875,1.0909245751953125
-0.2386857421875,0.01747358154296875,0.971236240234375
-0.302389609375,-0.06144550537109375,0.80853875
-0.23357970703125,0.02776737548828125,0.7554531640625
-0.273212265625,-0.0254172265625,0.7397241015625
-0.17668388671875,0.05178622802734375,0.6981895458984375
-0.05073501953125,0.12384278564453124,0.83311541015625
-0.1842213671875,0.08168724853515624,0.7542243310546874
-0.156502890625,0.024581201171875,0.6367478955078125
-0.11200744140625,-0.0097314453125,0.658621123046875
-0.18154677734375,0.12286242431640625,0.8328696435546875
-0.38821962890625,0.0456589697265625,0.9820499707031249
-0.2902323828125,0.10325519775390625,1.0516019189453125
-0.16987583984375,0.07923634521484375,1.0358728564453126
-0.20634751953125,0.14982236083984374,0.9960586669921875
-0.14604767578125,0.12335260498046875,0.9041419580078125
-0.185680234375,0.08953013916015624,0.804606484375
-0.137051328125,0.118695888671875,0.7925639208984375
-0.27053767578125,0.0003172583007812497,0.702859111328125
-0.12659611328125,0.0358553564453125,0.7375122021484375
-0.19127255859375,-0.07860182861328124,0.7783094580078125
-0.21072412109375,0.16893940673828126,0.8871840625
-0.17182099609375,0.00766996826171875,0.951574912109375
-0.2464663671875,0.08707923583984375,1.0206353271484374
-0.259596171875,0.11305881103515625,1.0737209130859375
-0.2736985546875,0.104970830078125,0.989914501953125
-0.26032560546875,0.057668395996093746,0.824759345703125
-0.09644619140624999,0.0633054736328125,0.80362341796875
-0.10276794921875,0.03217900146484375,0.9115149560546875
-0.2124261328125,-0.03693647216796875,1.103458671875
-0.28123603515625,-0.01928996826171875,1.091170341796875
-0.1929745703125,-0.006790361328125,0.9002096923828125
-0.13389044921874999,-0.040122646484374996,0.8471241064453126
-0.13632189453125,-0.04919098876953125,0.929947451171875
-0.27248283203125,0.05080586669921875,1.0049062646484375
-0.4536255078125,0.016738310546875,0.93437125
-0.42858162109375,0.063795654296875,0.6854096826171875
-0.1005796484375,0.00619942626953125,0.5703909130859375
-0.0597313671875,-0.1288453466796875,0.5753062451171875
-0.07383375,-0.0435539111328125,0.8333611767578125
-0.2873146484375,-0.03546593017578125,1.0186691943359376
-0.32840607421875,-0.03350520751953125,0.9473968798828125
-0.181789921875,-0.10188541015625,0.91372685546875
-0.25205869140625,-0.13399224365234375,1.0181776611328126
-0.2027003515625,-0.024436865234375,1.2098756103515624
-0.2338228515625,0.02335574951171875,1.24207103515625
-0.49909353515625,-0.05605351806640625,1.2010280126953126
-0.27685943359375,0.0035034326171875,0.9301932177734376
-0.06921400390625,0.03953171142578125,0.8063268505859374
-0.27637314453125,-0.008996174316406251,0.8972604931640625
-0.24306234375,-0.0259074072265625,1.028745625
-0.2668905078125,0.095167216796875,1.05135615234375
-0.26275705078125,0.1280093212890625,1.14671359375
-0.49520322265625,-0.0371815625,1.1263149658203124
-0.5499107421875,0.024581201171875,1.06905134765625
-0.52535314453125,0.04320806640625,0.94518498046875
-0.5187882421875,0.00619942626953125,0.820335546875
-0.4915560546875,-0.00850599365234375,0.7399698681640625
-0.36366203125,-0.1739419677734375,0.6028321044921875
-0.2785614453125,-0.038161923828125,0.76921609375
-0.4866931640625,0.06453092529296875,0.8790737646484375
-0.5683897265625,0.0338946337890625,0.9729566064453125
-0.66686326171875,0.075559990234375,0.9744312060546875
-0.62066580078125,0.0191892138671875,0.84884447265625
-0.58370783203125,0.008895419921875,0.78592822265625
-0.502740703125,-0.20555862060546876,0.8323781103515625
-0.4127772265625,0.00178780029296875,0.8065726171875
-0.31697828125,-0.0768861962890625,0.7242408056640625
-0.34810078125,-0.07124911865234375,0.7773263916015625
-0.50298384765625,-0.0063001806640625,0.8989808593749999
-0.61872064453125,0.073599267578125,0.9960586669921875
-0.64157623046875,-0.0876701708984375,1.0368559228515626
-0.3811684375,-0.1180613720703125,1.1076367041015625
-0.1229489453125,-0.0038492773437499997,1.0737209130859375
0.0025136328124999996,-0.1268846240234375,0.916184521484375
-0.037848359375,-0.22320512451171876,0.8112421826171875
-0.05948822265625,-0.2033528076171875,0.772656826171875
-0.37703498046875,0.021640117187500002,0.989914501953125
-0.4122909375,0.0515411376953125,1.2408422021484375
-0.27491427734375,0.07139345458984375,1.38166646484375
-0.2644590625,-0.00458454833984375,1.2605035302734375
-0.1521262890625,0.02531647216796875,1.0668394482421875
-0.09595990234375,0.08756941650390625,0.9100403564453124
-0.04344068359375,-0.0710040283203125,0.9321593505859375
-0.0247185546875,0.01012087158203125,0.7905977880859375
-0.08428896484375001,-0.08693489990234375,0.9778719384765625
-0.06532369140625,-0.15457983154296875,1.180629384765625
-0.0957167578125,-0.068553125,1.3332504443359374
-0.19467658203125,0.03855135009765625,1.375276533203125
-0.035903203125000005,-0.07271966064453125,1.158018857421875
0.012968847656250001,0.0436982470703125,1.100017939453125
-0.0247185546875,0.03561026611328125,1.074458212890625
-0.28074974609375003,-0.011201987304687501,1.154086591796875
-0.26761994140625,-0.02419177490234375,1.13196759765625
-0.22336763671875,-0.13497260498046876,1.091170341796875
-0.04854671875,-0.10115013916015625,1.1076367041015625
-0.23941517578125,-0.02664267822265625,1.2548508984375
-0.14799283203125,0.06281529296875,1.0570087841796876
-0.144831953125,-0.077376376953125,0.70138451171875
-0.0723748828125,-0.010711806640625,0.5487634521484375
0.03728330078125,0.01992448486328125,0.61487466796875
-0.17814275390625,-0.08227818359375,0.913235322265625
-0.3738741015625,-0.00752563232421875,1.061678349609375
-0.38773333984375,-0.06095532470703125,0.9847534033203125
-0.2921775390625,-0.046249904785156254,0.7783094580078125
-0.244034921875,0.030708459472656248,0.7846993896484376
-0.304334765625,0.0103659619140625,0.8392595751953125
-0.37338781249999997,0.03928662109375,1.03759322265625
-0.43782111328125,0.07580508056640625,1.0594664501953126
-0.30919765625,-0.0866898095703125,0.848352939453125
0.0156434375,-0.0494360791015625,0.7741314257812499
0.04555021484375,0.0289928271484375,0.9100403564453124
-0.22823052734375,-0.00654527099609375,1.072492080078125
-0.2017277734375,-0.08227818359375,1.238630302734375
-0.38967849609375,-0.02174087158203125,1.1287726318359375
-0.4973915234375,-0.057769150390625,1.016948828125
-0.54067125,-0.03595611083984375,0.8812856640625
-0.4278521875,0.0691876416015625,0.6741044189453125
-0.152612578125,0.02237538818359375,0.7763433251953125
-0.30506419921875,-0.15654055419921875,0.8667854345703125
-0.1569891796875,0.099088662109375,0.92159138671875
-0.1696326953125,-0.00850599365234375,1.0093300634765625
-0.40378087890625003,-0.0994345068359375,1.129509931640625
-0.6043751171875,0.0182088525390625,0.9788550048828125
-0.487179453125,-0.03105430419921875,0.63846826171875
-0.14556138671875,-0.186196484375,0.6254426318359375
-0.1871391015625,-0.16683434814453124,0.6510023583984375
-0.12076064453125,-0.047965537109375,0.9206083203125
-0.33861814453125,0.03021827880859375,1.1184504345703126
-0.37119951171875,0.0770305322265625,1.081339677734375
-0.21412814453125,0.18119392333984374,1.1290183984375
-0.42225986328125,0.08805959716796875,1.20962984375
-0.4118046484375,0.10962754638671875,1.2546051318359375
-0.08574783203125,-0.1033559521484375,1.0245675927734375
-0.028122578125000002,-0.1337471533203125,0.7738856591796874
-0.265431640625,-0.14820748291015626,0.8195982470703125
-0.18738224609375,-0.216587685546875,0.69745224609375
-0.32281375,-0.17614778076171875,0.675333251953125
-0.37460353515625,-0.05164189208984375,0.8328696435546875
-0.18397822265625,-0.10727739746093751,0.91765912109375
-0.05559791015625,0.004973974609375,0.9891772021484375
-0.043683828125000004,0.07139345458984375,1.0761785791015626
-0.23066197265625,0.1309504052734375,1.13098453125
-0.2999581640625,0.10031411376953125,1.0688055810546875
-0.057543066406249996,-0.0317895751953125,1.012525029296875
-0.18446451171875,0.04198261474609375,1.2509186328125
-0.5469930078125,-0.16340308349609375,1.2683680615234374
-0.63525447265625,-0.20261753662109375,0.8576920703124999
-0.1686601171875,-0.09134652587890625,0.6040609375
-0.2056180859375,-0.1665892578125,0.853268271484375
-0.2036729296875,-0.038161923828125,0.749063232421875
-0.06751199218750001,-0.12369844970703125,0.692045380859375
-0.1424005078125,-0.17663796142578125,0.681231650390625
-0.13510617187500001,0.07433453857421875,0.8144371484375
-0.21850474609375,0.16256705810546876,0.9835245703125
-0.32159802734375,0.15692998046875,1.150154326171875
-0.1988100390625,0.0701680029296875,1.20962984375
-0.32937865234375,-0.006790361328125,1.2821309912109375
-0.2912049609375,-0.042328459472656246,1.079865078125
-0.38043900390625,-0.018554697265625,0.9724650732421874
-0.3631757421875,-0.12369844970703125,0.785436689453125
-0.26081189453125,-0.06928839599609375,0.7842078564453125
-0.228473671875,-0.10311086181640625,0.8557259375
-0.112736875,-0.18448085205078124,0.7679872607421875
-0.040279804687500004,-0.09281706787109376,0.8171405810546875
-0.18203306640625,0.062080021972656246,0.8146829150390625
-0.121490078125,-0.01978014892578125,1.0255506591796875
-0.16744439453124998,-0.048455717773437504,1.159984990234375
-0.2722396875,0.01404231689453125,1.1427813281249999
-0.31965287109375,0.03119864013671875,0.9906518017578125
-0.29096181640625,-0.12149263671875,0.8259881787109375
-0.30360533203125,0.0608545703125,0.85474287109375
-0.28318119140625,0.04124734375,0.948625712890625
-0.20440236328125,-0.035711020507812496,0.9097945898437501
-0.06726884765625,0.07972652587890625,1.0425085546875
-0.12173322265625,-0.10997339111328125,1.0452119873046875
-0.18227621093750002,-0.014633251953124999,0.9926179345703126
-0.166228671875,0.0201695751953125,0.9768888720703125
-0.0538958984375,0.01453249755859375,0.9945840673828125
-0.37703498046875,0.06673673828125,1.0307117578125
-0.3563676953125,-0.00409436767578125,0.9980247998046875
-0.154557734375,0.05864875732421875,0.93732044921875
-0.11443888671875,-0.029338671875,0.851793671875
-0.1103054296875,0.0721287255859375,0.8544971044921875
0.01953375,-0.0229663232421875,0.8574463037109374
-0.10908970703125,-0.07051384765625,1.0385762890625
-0.22871681640625,0.052031318359375,1.3263689794921876
-0.30068759765624997,-0.01928996826171875,1.2467406005859374
-0.424934453125,-0.055073156738281254,1.1867735498046874
-0.25935302734375,-0.13497260498046876,1.040542421875
-0.24233291015625,-0.0631611376953125,0.971236240234375
0.0151571484375,0.07825598388671876,0.9380577490234375
-0.02520484375,-0.013652890625,1.0171945947265626
-0.1287844140625,0.067717099609375,1.141306728515625
-0.31576255859375,0.03021827880859375,1.005643564453125
-0.237226875,-0.01928996826171875,0.8382765087890625
0.0482248046875,-0.0474753564453125,0.8815314306640625
-0.08526154296874999,-0.05801424072265625,0.9837703369140625
-0.1093328515625,-0.09281706787109376,0.97664310546875
-0.37703498046875,-0.07909200927734375,1.0739666796875
-0.42979734375,0.1515379931640625,0.996795966796875
-0.2542469921875,0.05889384765625,0.9191337207031249
-0.2425760546875,0.04639424072265625,0.8446664404296875
-0.18251935546875,0.14639109619140625,0.821810146484375
-0.076751484375,-0.00777072265625,0.725469638671875
0.02536921875,-0.08938580322265625,0.7350545361328125
-0.1997826171875,0.00865032958984375,1.0535680517578125
-0.34421046875,0.04492369873046875,1.0353813232421876
-0.1589343359375,-0.14918784423828124,0.93928658203125
-0.2630001953125,0.1784979296875,1.02383029296875
-0.12829812499999999,0.0270321044921875,0.9650920751953125
-0.12440781249999999,0.04933532470703125,1.0167030615234376
-0.2007551953125,0.22138873779296875,1.013508095703125
-0.25594900390624997,-0.14477621826171874,1.1017383056640626
-0.36366203125,-0.040122646484374996,1.094119541015625
-0.27831830078124997,-0.013162709960937501,0.9301932177734376
-0.22336763671875,-0.18423576171875,0.7117067089843749
-0.207076953125,-0.014633251953124999,0.7050710107421875
-0.0752926171875,-0.03399538818359375,0.783470556640625
-0.08963814453125,0.10031411376953125,0.9815584374999999
-0.12756869140625,0.09835339111328124,0.9768888720703125
-0.19662173828125,-0.092081796875,0.8530225048828125
-0.03760521484375,0.0682072802734375,0.8250051123046875
-0.044170117187499996,-0.0435539111328125,0.8898874951171875
-0.14167107421875,0.0593840283203125,1.1263149658203124
-0.31576255859375,0.152028173828125,1.355615205078125
-0.47575166015625,0.10619628173828125,1.2391218359375
-0.30555048828125,0.01894412353515625,0.9803296044921875
-0.13145900390625,0.07457962890625,0.808047216796875
-0.15723232421875,-0.0523771630859375,0.8417172412109375
-0.17814275390625,-0.028113220214843748,0.8537598046875
-0.1754681640625,-0.0827683642578125,0.80558955078125
-0.14361623046875,-0.0038492773437499997,0.8436833740234375
-0.057299921875,-0.02321141357421875,0.9604225097656249
-0.052680175781250005,-0.0690433056640625,1.016457294921875
-0.0315266015625,0.008895419921875,1.1086197705078125
-0.13291787109375,-0.2200189501953125,1.2025026123046876
-0.33667298828125003,0.18903681396484376,1.297614287109375
-0.54285955078125,0.0946770361328125,1.068559814453125
-0.327676640625,-0.051886982421875,0.72202890625
-0.057543066406249996,0.10717664306640624,0.8458952734375
-0.33570041015625,0.0270321044921875,0.894557060546875
-0.16185207031249998,-0.09012107421875,0.91077765625
-0.01742421875,-0.06340622802734375,0.932896650390625
-0.18106048828125,-0.1788437744140625,0.9179048876953125
-0.22482650390625,-0.20653898193359374,0.974185439453125
-0.27102396484375,-0.02174087158203125,0.8859552294921875
-0.24938410156250002,-0.04772044677734375,0.828200078125
-0.13680818359375,-0.0009081933593750001,0.7345630029296875
-0.11638404296875,-0.071494208984375,0.7330884033203124
-0.10908970703125,0.07065818359375,1.0560257177734376
-0.17230728515625,-0.01193725830078125,1.2187232080078125
-0.42323244140625,0.04002189208984375,1.170798720703125
-0.1944334375,0.21011458251953125,1.13196759765625
-0.36974064453125,0.14001874755859375,1.1427813281249999
-0.40062,-0.0857094482421875,0.9808211376953125
0.00591765625,0.0231106591796875,0.9282270849609375
-0.09304216796875,-0.00605509033203125,0.7711822265625
-0.06775513671875,-0.0396324658203125,0.7778179248046875
0.0389853125,-0.1994313623046875,0.7812586572265625
-0.19856689453125,-0.17124597412109374,0.8638362353515625
-0.36925435546875,-0.13791368896484374,0.9813126708984374
-0.32159802734375,-0.10262068115234375,1.137374462890625
-0.06921400390625,0.06109966064453125,1.058729150390625
-0.3271903515625,0.08413815185546875,1.1683410546875
-0.0665394140625,0.08609887451171874,0.956490244140625
-0.06678255859375,0.03144373046875,1.040050888671875
-0.43198564453125,-0.05703387939453125,1.1415524951171876
-0.3320532421875,0.2054578662109375,1.0658563818359374
-0.12173322265625,-0.0759058349609375,0.84097994140625
-0.13145900390625,-0.1288453466796875,0.7571735302734375
-0.16063634765625,0.10178465576171875,1.0471781201171875
-0.02982458984375,-0.07958218994140626,0.9007012255859375
-0.18251935546875,-0.13497260498046876,0.8419630078125
-0.03128345703125,-0.06585713134765625,0.8254966455078125
-0.12659611328125,-0.18742193603515625,0.8407341748046875
-0.18543708984375,0.04541387939453125,1.00416896484375
-0.35563826171875,0.11845079833984375,1.2010280126953126
-0.4263933203125,-0.16536380615234375,1.06511908203125
-0.271267109375,0.1613416064453125,1.006626630859375
-0.18689595703125,-0.0053198193359375,0.9464138134765625
-0.08355953125,-0.05899460205078125,0.82525087890625
-0.04052294921875,-0.02272123291015625,0.952557978515625
-0.11857234375,-0.08693489990234375,1.1958669140625
-0.29047552734375,-0.08595453857421875,1.2192147412109375
-0.0568136328125,-0.022476142578125,1.1150097021484375
-0.10957599609375,-0.18742193603515625,0.9587021435546875
-0.34688505859375,-0.07566074462890625,0.9252778857421875
-0.16112263671875,0.00963069091796875,0.777572158203125
-0.21218298828125,-0.11046357177734376,0.871455
-0.2873146484375,0.0255615625,1.0594664501953126
-0.24525064453125,-0.04281864013671875,1.00023669921875
-0.16525609375,0.0789912548828125,1.036118623046875
-0.197351171875,-0.253841416015625,1.040050888671875
-0.168173828125,0.08462833251953125,1.1268064990234374
-0.08477525390625,-0.2131564208984375,1.118696201171875
-0.33983386718749997,-0.07443529296875,1.1243488330078124
-0.09085386718749999,-0.05703387939453125,0.921099853515625
-0.21461443359375,0.0613447509765625,1.0373474560546876
-0.2377131640625,0.0407571630859375,0.98843990234375
-0.1200312109375,-0.08423890625,0.896523193359375
0.05527599609375,0.07923634521484375,1.008592763671875
-0.14945169921875,-0.12124754638671875,0.96877857421875
-0.4623787109375,0.0037485229492187503,1.064627548828125
-0.1278118359375,-0.09869923583984375,1.12803533203125
-0.34421046875,0.017718671875,1.1523662255859375
-0.36196001953125,-0.1744321484375,1.0648733154296874
-0.2333365625,-0.01291761962890625,0.9886856689453125
-0.02520484375,0.05815857666015625,0.8655566015625
-0.27734572265625,-0.0631611376953125,0.778555224609375
-0.088422421875,0.10864718505859375,0.7950215869140624
0.08591220703124999,-0.06438658935546875,1.0461950537109375
-0.21461443359375,-0.18202994873046874,1.0982975732421876
-0.44219771484375,-0.00213364501953125,1.058729150390625
0.022451484375,0.04198261474609375,1.002694365234375
-0.117599765625,-0.09183670654296874,1.0179318945312499
-0.485234296875,-0.2033528076171875,1.127052265625
-0.25059982421875,-0.17712814208984376,0.8495817724609375
-0.37144265625,0.0255615625,0.74070716796875
-0.15066742187499998,0.165753232421875,0.553433017578125
0.0076196679687500005,-0.0053198193359375,0.5133730615234375
0.027314375,-0.12516899169921875,0.7711822265625
-0.2464663671875,-0.1445311279296875,1.20274837890625
-0.43976626953125,0.040266982421875,1.203239912109375
-0.19808060546875,0.2358490673828125,1.043983154296875
-0.058272500000000005,-0.17247142578125,0.888658662109375
-0.0030786914062500004,-0.16193254150390626,0.7788009912109375
0.005674511718750001,-0.023456503906250002,1.0103131298828125
-0.08526154296874999,-0.02076051025390625,1.1656376220703124
-0.2722396875,-0.1406096826171875,1.323665546875
-0.3267040625,-0.22026404052734375,1.3366911767578125
-0.44122513671875,-0.05164189208984375,1.00023669921875
-0.35174794921875,-0.09036616455078125,0.7640549951171876
-0.01912623046875,-0.083258544921875,0.7851909228515626
-0.1258666796875,0.0172284912109375,1.009084296875
-0.03031087890625,0.07433453857421875,1.16244265625
-0.0762651953125,-0.02762303955078125,1.212087509765625
-0.26956509765625,-0.04698517578125,0.883251796875
-0.1628246484375,-0.0141430712890625,0.859658203125
-0.21850474609375,-0.1229631787109375,0.8549886376953125
-0.07261802734375,-0.10972830078125,0.9881941357421875
-0.4108320703125,0.04541387939453125,1.0294829248046875
-0.2630001953125,-0.13301188232421876,0.905370791015625
-0.07602205078125,-0.1592365478515625,0.84884447265625
-0.27807515625,0.0133070458984375,0.7736398925781249
-0.10690140625,-0.018554697265625,0.6709094531249999
-0.14580453125,-0.21781313720703124,0.7360376025390625
-0.33861814453125,0.0142874072265625,1.0589749169921876
-0.14069849609375001,-0.0474753564453125,1.139340595703125
-0.137051328125,0.02041466552734375,1.098051806640625
-0.18640966796875,0.03561026611328125,1.0953483740234375
-0.221665625,-0.14967802490234375,0.9009469921875
-0.022287109375,-0.01561361328125,1.1091113037109375
-0.40134943359374997,-0.069533486328125,1.1646545556640624
-0.21169669921875,0.02678701416015625,1.0373474560546876
-0.11468203125,-0.169530341796875,0.938795048828125
-0.218747890625,0.0486000537109375,0.907336923828125
-0.2007551953125,-0.14894275390625,0.944693447265625
-0.1088465625,-0.16781470947265625,1.039067822265625
-0.25983931640625,-0.048455717773437504,1.0688055810546875
-0.13729447265625,-0.16046199951171874,0.984016103515625
-0.27151025390625,-0.15212892822265625,1.016948828125
-0.38311359375,-0.16046199951171874,0.82525087890625
-0.013533906250000002,-0.01046671630859375,0.78592822265625
0.08761421875,-0.07075893798828126,0.8510563720703125
0.11849357421875,-0.14134495361328125,1.027271025390625
-0.3524773828125,-0.0562986083984375,1.3416065087890625
-0.44122513671875,-0.1219828173828125,1.0004824658203124
-0.3116291015625,-0.03742665283203125,0.83114927734375
-0.09061072265625,-0.0646316796875,0.7746229589843749
-0.06337853515625,-0.15605037353515624,0.8340984765625
-0.09450103515625,0.01600303955078125,1.0643817822265624
-0.37557611328125,-0.07124911865234375,1.3450472412109375
-0.23114826171875,-0.22075422119140625,1.170798720703125
-0.18738224609375,0.067717099609375,1.0638902490234374
-0.321841171875,-0.14502130859375,0.7099863427734375
0.089559375,0.0495804150390625,0.6947488134765625
0.1211681640625,0.0348749951171875,1.024321826171875
-0.32694720703125,-0.0906112548828125,1.2924531884765624
-0.51562736328125,0.01575794921875,1.2885209228515624
-0.267376796875,0.021885207519531248,0.8874298291015625
0.04846794921875,-0.008996174316406251,0.702859111328125
-0.0704297265625,-0.1273748046875,0.9228202197265625
-0.37849384765625,-0.08791526123046875,1.18112091796875
-0.352963671875,-0.073454931640625,1.1164843017578125
-0.25838044921875,-0.05874951171875,0.9508376123046876
-0.11930177734375,-0.22810693115234376,0.623230732421875
0.0156434375,0.01575794921875,0.7952673535156249
-0.0801555078125,-0.20555862060546876,0.694503046875
-0.1550440234375,0.05374695068359375,0.9980247998046875
-0.0889087109375,-0.0886505322265625,1.2639442626953126
-0.40378087890625003,-0.1798241357421875,1.245020234375
-0.10374052734375,0.0584036669921875,1.132459130859375
-0.0587587890625,-0.1994313623046875,0.9095488232421876
-0.1997826171875,-0.0876701708984375,0.88030259765625
-0.14604767578125,0.0765403515625,0.825742412109375
-0.28415376953125,0.140263837890625,0.98254150390625
-0.23212083984375,0.06453092529296875,0.9936010009765625
-0.17862904296875,0.0329142724609375,1.1621968896484376
0.052601406249999996,-0.14183513427734376,1.030220224609375
-0.10374052734375,-0.21585241455078125,1.037101689453125
-0.14191421875,0.0922261328125,0.954524111328125
-0.0869635546875,-0.1229631787109375,0.9665666748046875
-0.29193439453125003,-0.10580685546875,1.0299744580078125
-0.40062,0.0608545703125,1.2312573046875
-0.160393203125,-0.2366850927734375,0.9454307470703125
-0.04830357421875,-0.106787216796875,0.902421591796875
-0.1599069140625,-0.01634888427734375,1.028745625
-0.02739314453125,-0.2553119580078125,0.9660751416015625
-0.247925234375,0.13462676025390624,1.076424345703125
-0.27515742187500003,0.1789881103515625,1.118696201171875
-0.039793515625,-0.14134495361328125,1.17325638671875
-0.2309051171875,0.12972495361328126,1.2344522705078125
-0.27005138671875,-0.1523740185546875,1.1840701171874999
0.1270036328125,-0.02615249755859375,1.21257904296875
-0.4273658984375,-0.195019736328125,1.2260962060546876
-0.39697283203125,0.09492212646484376,0.9822957373046874
-0.2211793359375,-0.03938737548828125,0.8471241064453126
-0.339347578125,-0.13154134033203124,0.6844266162109375
-0.18154677734375,0.11354899169921875,0.7475886328125
-0.007455292968749999,0.0535018603515625,0.97271083984375
-0.17717017578125,-0.17639287109375001,0.7625803955078125
-0.0782103515625,-0.03840701416015625,0.95796484375
-0.52340798828125,-0.09796396484375,1.167849521484375
-0.37508982421875,-0.13889405029296875,0.8412257080078125
0.060382031249999996,-0.0239466845703125,0.7144101416015625
0.032420410156249996,0.04100225341796875,0.9552614111328125
-0.27515742187500003,-0.07320984130859375,1.09657720703125
-0.3787369921875,-0.0396324658203125,0.8284458447265625
-0.07699462890625,-0.0553182470703125,0.65419732421875
-0.063135390625,-0.17026561279296876,0.7360376025390625
-0.29096181640625,-0.06389640869140625,1.0771616455078126
-0.32086859375,-0.19281392333984376,1.2676307617187499
-0.09061072265625,-0.11879664306640625,1.1565442578125
-0.3019033203125,7.216796875000007e-05,0.8830060302734375
-0.133161015625,-0.03914228515625,0.8520394384765625
0.008349101562499999,-0.0464949951171875,0.802148818359375
-0.16744439453124998,0.13070531494140625,1.0284998583984375
-0.3291355078125,0.06992291259765625,1.3138348828125
-0.34737134765625,-0.1210024560546875,1.2521474658203124
-0.21510072265625,-0.0219859619140625,1.0083469970703125
-0.016451640625,-0.07271966064453125,0.79182662109375
-0.16452666015625,-0.0562986083984375,0.7070371435546875
-0.25594900390624997,-0.0837487255859375,0.6667314208984375
-0.013533906250000002,-0.05556333740234375,0.89603166015625
-0.18008791015625,0.1427147412109375,1.2029941455078126
-0.164283515625,0.11649007568359375,1.1887396826171874
-0.010616171875,-0.0474753564453125,1.0570087841796876
-0.28172232421875,0.0564429443359375,1.0904330419921875
-0.34737134765625,0.044188427734375,0.9424815478515625
-0.14458880859375,-0.2366850927734375,0.7350545361328125
0.0929633984375,-0.12124754638671875,0.66402798828125
-0.13802390625,0.03610044677734375,0.86653966796875
-0.25400384765625,0.008895419921875,1.010558896484375
-0.33326896484375,0.01183650390625,1.27746142578125
-0.35223423828125,0.19884042724609374,1.410666923828125
-0.1929745703125,0.087324326171875,1.3027753857421875
-0.05657048828125,-0.1141399267578125,0.92355751953125
-0.129270703125,0.03659062744140625,0.805098017578125
-0.1025248046875,-0.14526639892578125,0.7121982421874999
-0.05511162109375,-0.06659240234375,0.73874103515625
-0.24306234375,-0.052867343750000004,0.8141913818359375
-0.19467658203125,-0.19673536865234376,1.008592763671875
-0.221665625,0.030463369140625002,1.1592476904296876
-0.23528171875,0.061834931640625,1.067576748046875
-0.24938410156250002,0.00325834228515625,0.9744312060546875
-0.09425789062500001,-0.08227818359375,0.7114609423828124
-0.115654609375,0.07457962890625,0.7124440087890624
0.010294257812499999,-0.04477936279296875,1.1602307568359376
-0.3369161328125,-0.0837487255859375,1.5028293994140625
-0.49374435546875,0.2044775048828125,1.41705685546875
-0.016451640625,-0.1474722119140625,1.0398051220703124
0.013941425781249999,-0.06095532470703125,0.79379275390625
-0.14410251953125,-0.0023787353515625003,0.8603955029296875
-0.26275705078125,-0.1660990771484375,0.7613515625
-0.17717017578125,-0.14502130859375,0.7507835986328125
-0.06872771484375,-0.14379585693359376,0.9788550048828125
-0.18203306640625,-0.10065995849609374,1.1587561572265626
-0.1424005078125,-0.023456503906250002,1.1469593603515624
-0.07456318359375,0.1427147412109375,1.0491442529296875
-0.2133987109375,0.10129447509765625,1.05135615234375
-0.34153587890625,0.06306038330078124,0.8613785693359375
-0.2367405859375,0.03610044677734375,0.95698177734375
-0.1229489453125,-0.17026561279296876,0.9508376123046876
-0.35223423828125,0.11403917236328125,1.259274697265625
-0.17473873046875,-0.22467566650390625,1.1754682861328125
-0.197351171875,-0.1822750390625,0.7974792529296875
-0.05851564453125,0.050070595703125,0.600620205078125
-0.08817927734375,-0.048455717773437504,0.5428650537109375
-0.18495080078125,-0.015368522949218751,0.61979
-0.045628984375,0.0878145068359375,0.9267524853515625
-0.32500205078125,0.05080586669921875,1.123611533203125
-0.2532744140625,0.1211467919921875,1.260749296875
-0.12319208984375,0.053992041015625,1.2256046728515626
-0.1161408984375,0.1074217333984375,1.097068740234375
-0.23139140625,0.12531332763671876,1.1985703466796875
-0.2941226953125,-0.11585555908203125,1.0747039794921875
-0.049762441406249996,-0.00703545166015625,1.1388490625
-0.27783201171875,-0.0210056005859375,1.3244028466796876
-0.5212196875,-0.01879978759765625,1.091661875
-0.19808060546875,-0.1896277490234375,0.7743771923828124
0.06354291015625,-0.2053135302734375,0.686638515625
-0.06970029296875,-0.076396015625,0.7384952685546875
-0.012075039062500001,-0.047965537109375,0.7768348583984375
-0.19953947265625,-0.0915916162109375,0.816894814453125
-0.2299325390625,-0.010711806640625,0.8407341748046875
-0.13145900390625,0.017718671875,1.069542880859375
-0.1141957421875,-0.27418391357421873,0.8535140380859375
-0.19637859375,0.101049384765625,0.936828916015625
-0.10033650390625,-0.04919098876953125,0.7876485888671875
-0.1968648828125,0.09443194580078125,0.768724560546875
-0.19710802734375,0.0985984814453125,1.0444746875
-0.1949197265625,-0.02958376220703125,1.35807287109375
-0.46529644531250003,0.02776737548828125,1.4138618896484374
-0.12756869140625,-0.035711020507812496,1.120662333984375
-0.15091056640625,-0.093062158203125,1.069542880859375
-0.28998923828125,-0.093062158203125,0.7370206689453125
-0.002106113281250002,-0.06267095703125,0.6451039599609375
0.06597435546875,0.01183650390625,0.655180390625
-0.27199654296875,-0.0881603515625,0.788877421875
-0.10617197265625,0.040266982421875,0.9127437890625
-0.014506484375,0.0593840283203125,0.9891772021484375
-0.26251390625,0.0005623486328125002,0.95501564453125
-0.18349193359375,0.08315779052734375,1.119187734375
-0.10301109375,0.080461796875,1.1361456298828125
-0.30944080078125,0.00423870361328125,1.1651460888671874
-0.22142248046875002,0.075559990234375,1.37183580078125
-0.1579617578125,-0.15457983154296875,1.2875378564453124
-0.4045103125,-0.0043394580078125,1.173747919921875
-0.19370400390625,-0.18350049072265626,0.8525309716796875
-0.07577890625,0.03855135009765625,0.863098935546875
-0.21364185546875,-0.14428603759765624,0.8097675830078125
-0.06289224609374999,-0.24575343505859376,0.95796484375
-0.07869664062500001,0.106931552734375,1.13393373046875
-0.07845349609375,-0.09134652587890625,1.1941465478515625
-0.391866796875,-0.08350363525390625,1.0599579833984376
-0.23819945312500002,-0.0018885546875000003,0.814928681640625
-0.12562353515625,-0.26658611328125,0.5920183740234375
-0.0621628125,-0.2668312036132813,0.538687021484375
-0.02301654296875,-0.2523708740234375,0.7296476708984375
-0.08137123046875,-0.149923115234375,0.9717277734375
-0.15869119140625,0.06747200927734374,1.42983671875
-0.54626357421875,0.00325834228515625,1.4433538818359375
-0.17327986328125,-0.0249270458984375,1.127543798828125
-0.089395,0.1549692578125,1.1666206884765624
-0.38700390625000003,0.022620478515625,0.95108337890625
-0.0111024609375,0.00570924560546875,0.715638974609375
0.04895423828125,0.073599267578125,0.7539785644531249
0.001784199218750001,-0.0371815625,0.728418837890625
-0.01620849609375,-0.10997339111328125,1.0700344140625
-0.37508982421875,0.01183650390625,1.255342431640625
-0.4828028515625,0.02090484619140625,1.1223827001953124
-0.25497642578125,0.06306038330078124,1.0845346435546874
-0.2878009375,0.036345537109375,1.024813359375
-0.27613,-0.08203309326171875,0.67779091796875
0.052115117187500004,-0.11389483642578124,0.598654072265625
0.02074947265625,-0.100905048828125,0.638959794921875
0.0754569921875,-0.110708662109375,1.0044147314453125
-0.14702025390625,-0.13350206298828124,1.362496669921875
-0.4166675390625,-0.11193411376953125,1.3602847705078125
-0.510521328125,0.12384278564453124,0.980083837890625
-0.2192341796875,0.0858537841796875,0.5959506396484375
0.052115117187500004,0.03217900146484375,0.6514938916015625
-0.02301654296875,0.0883046875,0.8014115185546875
-0.07359060546875,0.0093856005859375,1.064627548828125
-0.0538958984375,0.03144373046875,1.1735021533203125
-0.2814791796875,-0.18595139404296876,1.11820466796875
-0.22579908203125,0.0280124658203125,1.0417712548828124
-0.1686601171875,-0.244037802734375,0.9621428759765625
-0.36974064453125,-0.1180613720703125,0.9611598095703124
-0.23212083984375,-0.22173458251953124,1.062661416015625
-0.1239215234375,-0.10580685546875,1.0471781201171875
-0.14264365234375,-0.2881540625,0.8564632373046875
0.0968537109375,-0.059484782714843754,0.955507177734375
0.08761421875,-0.14673694091796874,1.0806023779296874
-0.35977171875,-0.1131595654296875,1.201273779296875
-0.4614061328125,0.161831787109375,1.1565442578125
-0.3578265625,0.2515348486328125,0.9400238818359374
0.0550328515625,0.077520712890625,0.788385888671875
-0.2027003515625,-0.040122646484374996,0.8908705615234375
0.0589231640625,-0.05703387939453125,1.0004824658203124
-0.2396583203125,-0.08448399658203125,1.0889584423828125
-0.28755779296875,0.0740894482421875,0.92650671875
-0.21121041015625,-0.09036616455078125,0.7328426367187499
-0.14069849609375001,0.05472731201171875,0.83311541015625
-0.12465095703125,0.04100225341796875,1.05528841796875
-0.34542619140624997,-0.00605509033203125,1.4517099462890626
-0.2075632421875,0.09541230712890625,1.4895580029296875
-0.02131453125,0.0201695751953125,1.3597932373046875
-0.107873984375,0.13413657958984376,1.3396403759765625
-0.35077537109375,-0.20604880126953126,1.0179318945312499
-0.26956509765625,-0.0631611376953125,0.868997333984375
-0.19029998046875,-0.1317864306640625,0.7109694091796875
-0.034687480468750004,-0.11928682373046876,0.5128815283203125
0.0482248046875,-0.14477621826171874,0.533771689453125
-0.03955037109375,-0.2366850927734375,0.5925099072265625
-0.07188859375000001,-0.23006765380859376,0.7375122021484375
0.04165990234375,-0.05409279541015625,1.0609410498046874
-0.382141015625,-0.02958376220703125,1.4394216162109374
-0.62406982421875,0.0843832421875,1.3937090283203124
-0.02909515625,0.028257556152343752,0.8407341748046875
-0.1103054296875,-0.0366913818359375,0.9537868115234375
-0.12076064453125,0.1221271533203125,1.1302472314453125
-0.273212265625,-0.10899302978515625,1.0053977978515625
-0.06970029296875,-0.06291604736328126,0.7360376025390625
-0.0013766796875,0.07825598388671876,0.9360916162109375
-0.18227621093750002,-0.206784072265625,1.00023669921875
-0.05122130859375,-0.1915884716796875,1.2369099365234375
-0.15431458984375,-0.04306373046875,1.2531305322265625
-0.236254296875,-0.21585241455078125,0.98057537109375
-0.11225058593750001,-0.05458297607421875,0.6549346240234375
0.0647586328125,-0.0915916162109375,0.6126627685546875
-0.21315556640625,-0.19428446533203125,0.777572158203125
-0.2610550390625,0.11796061767578125,1.0909245751953125
-0.22093619140625,0.1250682373046875,1.370852734375
-0.10957599609375,0.026051743164062502,1.567466015625
-0.28269490234375,0.30079800537109375,1.5392028564453124
-0.072861171875,0.10129447509765625,1.0712632470703125
-0.28318119140625,0.0750698095703125,1.0226014599609374
-0.28269490234375,0.13021513427734374,0.9316678173828125
-0.1424005078125,-0.09134652587890625,0.796250419921875
-0.12513724609375,-0.10360104248046875,0.7633176953125
-0.0256911328125,-0.030319033203124998,0.790352021484375
-0.05900193359375,-0.2396261767578125,0.8028861181640625
-0.037848359375,-0.261684306640625,0.9874568359375
-0.15042427734375,0.056933125,1.2162655419921875
-0.5110076171875,-0.04134809814453125,1.2595204638671875
-0.3500459375,-0.085219267578125,1.0840431103515624
-0.255705859375,0.01159141357421875,1.026287958984375
-0.18251935546875,-0.08840544189453126,0.82328474609375
0.13599998046875,-0.0778665576171875,0.8913620947265625
-0.23917203125,-0.11683592041015625,0.984016103515625
-0.32889236328125,0.04688442138671875,0.928964384765625
-0.04878986328125,-0.09869923583984375,0.8773533984374999
-0.0636216796875,-0.19673536865234376,0.9179048876953125
-0.316005703125,-0.05090662109375,0.916184521484375
0.09466541015625,-0.0249270458984375,0.7419360009765625
-0.112736875,-0.0038492773437499997,0.6347817626953125
-0.13802390625,0.0003172583007812497,0.8658023681640625
-0.12902755859375,-0.02615249755859375,1.047915419921875
-0.34007701171875,-0.08644471923828125,1.0638902490234374
-0.27345541015625,0.04124734375,1.119679267578125
-0.05632734375,0.11550971435546875,1.185544716796875
-0.27685943359375,0.04835496337890625,1.0476696533203125
-0.1248941015625,-0.0847290869140625,0.7316138037109375
0.04263248046875,0.06257020263671875,0.9196252539062499
-0.024232265625,-0.06683749267578125,0.9867195361328125
-0.000890390625000001,-0.1317864306640625,1.08281427734375
-0.23892888671875,-0.18153976806640626,1.1390948291015626
-0.08428896484375001,0.053992041015625,0.72202890625
-0.1735230078125,-0.01169216796875,0.6750874853515625
-0.1219763671875,-0.17712814208984376,0.69745224609375
0.03728330078125,0.02237538818359375,0.9473968798828125
-0.26154132812499997,-0.12811007568359375,1.07494974609375
-0.27248283203125,0.02139502685546875,1.2428083349609376
-0.18227621093750002,0.11943115966796874,1.24403716796875
-0.39502767578125,0.1142842626953125,0.938795048828125
-0.045872128906250004,0.18168410400390625,0.67779091796875
0.059166308593749994,-0.00458454833984375,0.9297016845703125
-0.18154677734375,0.06404074462890624,1.2511643994140624
-0.12465095703125,-0.1111988427734375,1.4748120068359376
0.0003253320312500002,-0.05997496337890625,1.1762055859375
-0.14021220703125,-0.01683906494140625,0.9390408154296875
-0.174009296875,-0.193059013671875,0.8928366943359375
-0.28561263671875,-0.154824921875,0.9493630126953125
-0.23990146484375,-0.05556333740234375,1.1528577587890625
-0.1637972265625,-0.114630107421875,1.253376298828125
-0.10957599609375,-0.1592365478515625,0.9508376123046876
-0.034930625,-0.05654369873046875,0.770690693359375
-0.0232596875,-0.120512275390625,0.7979707861328125
-0.14945169921875,0.10276501708984374,1.2391218359375
-0.2153438671875,0.0387964404296875,1.2836055908203126
-0.18106048828125,-0.08203309326171875,1.356598271484375
-0.34348103515625,-0.051886982421875,1.0717547802734375
-0.2007551953125,-0.15016820556640625,0.7070371435546875
-0.053409609375,-0.0239466845703125,0.54802615234375
0.02026318359375,-0.1533543798828125,0.590789541015625
0.012725703124999998,-0.14624676025390626,0.870963466796875
-0.2912049609375,-0.1180613720703125,1.0914161083984375
-0.1414279296875,-0.0366913818359375,0.989914501953125
-0.2644590625,0.0093856005859375,0.995812900390625
-0.115654609375,0.1711452197265625,1.064627548828125
-0.12246265625,-0.004829638671875,1.1408151953125
-0.1881116796875,0.13266603759765624,1.132459130859375
-0.00891416015625,0.02580665283203125,1.099034873046875
-0.08477525390625,-0.10727739746093751,1.0751955126953125
0.023667207031249998,0.05227640869140625,1.1577730908203125
-0.377278125,-0.17173615478515625,1.15949345703125
-0.42517759765625,-0.2484494287109375,0.9174133544921875
-0.08088494140625,0.018699033203125,0.776589091796875
-0.14653396484375,0.212810576171875,1.0385762890625
0.02269462890625,0.1250682373046875,1.127052265625
0.012725703124999998,0.04345315673828125,1.43868431640625
-0.3485870703125,0.12531332763671876,1.303512685546875
-0.2532744140625,-0.07026875732421875,1.0727378466796875
-0.197351171875,-0.1121792041015625,0.7593854296875
0.06791951171874999,-0.0803174609375,0.6286375976562499
-0.0699434375,-0.2102153369140625,0.5335259228515625
0.030232109375,-0.1759026904296875,0.636010595703125
-0.05365275390625,-0.1464918505859375,0.9975332666015625
-0.23163455078125,-0.1509034765625,1.189476982421875
-0.2445212109375,-0.0847290869140625,1.1312302978515625
-0.1375376171875,0.13021513427734374,1.213562109375
-0.3145468359375,0.02678701416015625,1.2469863671875
-0.10422681640625,0.07237381591796875,1.19684998046875
-0.1025248046875,-0.0651218603515625,1.1327048974609375
-0.17960162109375,-0.21144078857421875,0.9002096923828125
-0.030067734375000002,0.0329142724609375,0.712689775390625
0.08396705078125,-0.1425704052734375,0.6854096826171875
-0.026420566406250002,-0.27246828125,0.784453623046875
-0.23114826171875,-0.0327699365234375,0.9955671337890625
0.0287732421875,-0.13301188232421876,0.9188879541015624
-0.19808060546875,0.00717978759765625,1.1223827001953124
-0.35223423828125,-0.055073156738281254,1.1587561572265626
-0.21583015625000002,-0.07713128662109375,1.1172216015625
0.00956482421875,0.12972495361328126,0.98647376953125
-0.1297569921875,0.04712951171875,0.9650920751953125
-0.216802734375,-0.05801424072265625,0.8667854345703125
-0.20026890625,0.014777587890624999,0.775606025390625
-0.18203306640625,0.011346323242187501,0.6745959521484375
-0.0927990234375,0.09933375244140626,0.8756330322265625
0.13356853515625,-0.00409436767578125,0.8235305126953125
0.10098716796875,-0.07958218994140626,0.92552365234375
0.061354609375,-0.014633251953124999,1.162934189453125
-0.2722396875,-0.051886982421875,1.1037044384765624
-0.22336763671875,-0.1533543798828125,1.2285538720703124
-0.174981875,0.06992291259765625,1.2280623388671874
-0.39891798828125,-0.05115171142578125,1.286800556640625
-0.35563826171875,-0.24526325439453125,1.0555341845703126
0.0842101953125,-0.0011532836914062497,0.969761640625
0.11703470703125,-0.029338671875,0.8884128955078126
0.0623271875,0.09590248779296875,1.0181776611328126
-0.04003666015625,0.15619470947265626,1.2359268701171875
-0.41836955078125,-0.09036616455078125,1.149171259765625
-0.38870591796875,-0.07713128662109375,0.92748978515625
-0.0140201953125,-0.0004180126953125,0.8734211328125
0.08688478515625,-0.100905048828125,0.90193005859375
0.0316909765625,-0.02174087158203125,0.9953213671875
-0.0645942578125,0.04786478271484375,1.3529117724609374
-0.31138595703125,-0.1759026904296875,1.33251314453125
-0.40913005859375,0.0289928271484375,1.2241300732421876
-0.026177421875,-0.132276611328125,0.953541044921875
-0.183735078125,-0.00262382568359375,0.82721701171875
-0.1633109375,0.12727405029296876,1.054796884765625
0.08250818359375,-0.09845414550781251,1.1248403662109374
-0.36682291015625,-0.05115171142578125,1.1204165673828126
-0.19759431640625,0.0037485229492187503,0.9159387548828125
0.06257033203125,-0.19771572998046874,0.694011513671875
0.018318027343749998,-0.19624518798828125,0.684180849609375
-0.20051205078125,-0.00311400634765625,0.8159117480468749
-0.035173769531249996,-0.15654055419921875,0.785436689453125
-0.17862904296875,0.1152646240234375,1.1014925390624999
-0.103983671875,0.1231075146484375,1.2157740087890625
-0.2075632421875,0.1015395654296875,1.2383845361328125
-0.17911533203125,0.23952542236328125,1.172764853515625
-0.1375376171875,0.18952699462890624,1.234698037109375
-0.38870591796875,-0.130315888671875,1.0501273193359375
-0.0976619140625,-0.1131595654296875,0.6898334814453125
0.108038359375,-0.13252170166015625,0.5541703173828125
0.031204687499999998,-0.06634731201171876,0.6013575048828125
-0.05316646484375,-0.0631611376953125,0.705808310546875
0.08493962890625,-0.114630107421875,0.9127437890625
0.063299765625,0.0378160791015625,1.3686408349609376
-0.15236943359375,0.00178780029296875,1.71197677734375
-0.38384302734375,-0.03350520751953125,1.54092322265625
-0.4575158203125,0.046149150390625,1.22830810546875
-0.29242068359375,-0.00850599365234375,0.922082919921875
-0.0772377734375,-0.050661530761718754,0.7896147216796875
-0.0011335351562500005,-0.03889719482421875,0.7869112890625
0.1167915625,-0.042083369140625,0.7026133447265624
-0.0529233203125,0.0142874072265625,0.864082001953125
-0.09109701171875,0.1358522119140625,0.9955671337890625
-0.15382830078125,0.11256863037109376,1.3789630322265625
-0.2211793359375,-0.08644471923828125,1.4487607470703125
-0.039793515625,-0.02174087158203125,1.4659644091796875
-0.0198556640625,-0.081297822265625,1.3779799658203125
-0.20099833984375,-0.1621776318359375,1.1250861328125
-0.19856689453125,0.0103659619140625,0.8616243359375
-0.22434021484375,0.00178780029296875,0.742181767578125
-0.32889236328125,-0.013652890625,0.778555224609375
0.0540602734375,-0.14673694091796874,0.872929599609375
-0.12829812499999999,-0.25898831298828123,1.0958399072265625
-0.15723232421875,-0.29967330810546877,1.132459130859375
0.06451548828125,-0.12663953369140624,0.7729025927734375
-0.10908970703125,-0.09085634521484375,0.6401886279296874
-0.057543066406249996,-0.0759058349609375,0.42317671875
-0.15164,0.020659755859375,0.4526687109375
0.02512607421875,-0.03987755615234375,0.609467802734375
-0.0091573046875,-0.2763897265625,0.952557978515625
-0.15917748046875,0.161831787109375,1.2541135986328125
-0.249870390625,0.16011615478515626,1.2875378564453124
-0.205131796875,-0.0175743359375,1.0189149609375
-0.11152115234375,0.03904153076171875,0.8987350927734374
-0.088422421875,0.02727719482421875,1.19291771484375
-0.0480604296875,0.01306195556640625,1.3828952978515625
-0.39745912109375,0.16085142578125,1.3715900341796874
-0.34202216796875,-0.02517213623046875,1.0545511181640626
-0.09401474609375,-0.07271966064453125,0.6603414892578126
-0.011588750000000002,0.01845394287109375,0.6342902294921875
-0.11930177734375,-0.1195319140625,0.784453623046875
-0.13413359375,-0.0494360791015625,0.9498545458984375
0.0701078125,-0.03987755615234375,0.8761245654296875
-0.00696900390625,0.08903995849609375,0.9749227392578125
-0.23455228515625,-0.17173615478515625,0.8972604931640625
-0.059245078125,-0.11364974609375,0.89406552734375
0.001784199218750001,0.0584036669921875,1.091661875
-0.15188314453125001,-0.05409279541015625,1.3627424365234375
-0.1268392578125,-0.0847290869140625,1.46424404296875
-0.226528515625,-0.04183827880859375,1.3071991845703126
-0.33521412109375,0.021885207519531248,1.0707717138671875
-0.02155767578125,-0.048945898437499996,0.886692529296875
0.007133378906249998,0.05570767333984375,0.8928366943359375
-0.041738671875,-0.034240478515625,0.9577190771484375
-0.1015522265625,-0.13007079833984375,1.1135351025390625
-0.0694571484375,-0.18055940673828125,1.0855177099609374
-0.08526154296874999,-0.134237333984375,0.8530225048828125
-0.19273142578125,-0.2788406298828125,0.8736668994140625
-0.03225603515625,-0.1945295556640625,0.8498275390625
-0.1248941015625,-0.04281864013671875,0.95501564453125
-0.21801845703125,-0.1509034765625,0.75447009765625
-0.0232596875,-0.140119501953125,0.635027529296875
-0.12319208984375,-0.055073156738281254,0.5595771826171875
-0.21266927734375,-0.1239435400390625,0.5249240917968749
-0.04538583984375,0.0373258984375,0.5568737500000001
-0.013290761718750002,0.07065818359375,0.8412257080078125
-0.0354169140625,0.0069346972656249995,1.1617053564453126
-0.12173322265625,-0.0631611376953125,1.30105501953125
-0.20804953125,0.17629211669921874,1.2880293896484374
-0.31697828125,0.16354741943359374,0.899472392578125
-0.0859909765625,0.06600146728515625,0.6057813037109375
-0.0013766796875,0.0623251123046875,0.84294607421875
-0.13486302734375,-0.06585713134765625,1.0619241162109374
-0.0509781640625,-0.03889719482421875,1.150154326171875
-0.02982458984375,-0.1121792041015625,0.9257694189453125
-0.035173769531249996,-0.0837487255859375,0.6967149462890625
-0.1073876953125,-0.1131595654296875,0.6790197509765625
-0.0762651953125,-0.07909200927734375,0.98254150390625
-0.22482650390625,-0.03644629150390625,1.320224814453125
-0.38676076171875,-0.048945898437499996,1.4136161230468751
-0.12246265625,0.16158669677734375,1.139340595703125
-0.024475410156250002,0.052031318359375,0.9813126708984374
0.02658494140625,0.0054641552734375,0.712689775390625
0.04117361328125,0.0985984814453125,0.8301662109375
-0.158448046875,-0.026397587890625,0.7994453857421875
-0.086477265625,0.04443351806640625,0.9478884130859375
-0.11857234375,0.0760501708984375,1.106899404296875
-0.01620849609375,-0.1523740185546875,1.051847685546875
0.02609865234375,-0.18399067138671876,1.0948568408203125
-0.16355408203125,-0.108747939453125,1.0503730859375
-0.15091056640625,-0.10997339111328125,0.9857364697265625
-0.1540714453125,0.01600303955078125,1.2585373974609375
-0.26056875,-0.05458297607421875,1.4979140673828124
-0.3344846875,0.0682072802734375,1.3735561669921874
-0.1788721875,-0.04526954345703125,1.046932353515625
-0.07602205078125,0.01894412353515625,0.7144101416015625
-0.003808124999999999,-0.04085791748046875,0.70629984375
0.00956482421875,-0.1337471533203125,0.7016302783203126
-0.0587587890625,-0.0817880029296875,0.9196252539062499
-0.14021220703125,-0.19918627197265626,1.011541962890625
-0.07018658203125,-0.13154134033203124,0.930930517578125
-0.017181074218750002,0.00423870361328125,0.96877857421875
-0.18470765625,-0.12516899169921875,0.9999909326171875
-0.23819945312500002,0.018699033203125,1.1680952880859374
-0.20634751953125,0.09737302978515625,1.1592476904296876
-0.177899609375,0.00766996826171875,1.404768525390625
-0.18470765625,0.09247122314453125,1.29712275390625
-0.20537494140625,-0.06242586669921875,1.06806828125
-0.2931501171875,-0.0631611376953125,0.9842618701171875
-0.096203046875,-0.0798272802734375,0.84786140625
0.06208404296875,-0.15212892822265625,0.7370206689453125
0.07180982421875,-0.08154291259765625,0.70728291015625
-0.14896541015625,-0.1474722119140625,0.7930554541015625
-0.25643529296875,-0.15065838623046876,0.8687515673828125
-0.16647181640625,0.08242251953125,0.96288017578125
-0.210967265625,-0.03203466552734375,1.1054248046875
-0.0869635546875,-0.0866898095703125,1.121645400390625
-0.14361623046875,-0.1352176953125,0.933879716796875
-0.15820490234375,-0.1151202880859375,0.5959506396484375
-0.09255587890625,-0.029338671875,0.5443396533203125
-0.024232265625,-0.14232531494140624,0.5084577294921875
0.08348076171875,-0.065612041015625,0.7114609423828124
-0.08672041015625,0.02482629150390625,1.023338759765625
-0.06240595703125,0.08217742919921875,1.19488384765625
-0.12562353515625,-0.0327699365234375,1.394937861328125
-0.34931650390625,0.12972495361328126,1.287783623046875
-0.1219763671875,0.0436982470703125,1.1290183984375
-0.20026890625,-0.0097314453125,1.0958399072265625
-0.19759431640625,0.1436951025390625,0.9842618701171875
-0.14069849609375001,-0.19281392333984376,0.88423486328125
0.011023691406250001,-0.11364974609375,0.9390408154296875
-0.03687578125,0.0584036669921875,1.0412797216796874
0.0890730859375,-0.093062158203125,1.1223827001953124
-0.16987583984375,-0.01046671630859375,1.508973564453125
-0.20586123046875,0.16991976806640624,1.6340687646484375
-0.1472633984375,-0.0190448779296875,1.71394291015625
-0.3271903515625,0.12286242431640625,1.6271872998046875
-0.23357970703125,0.15570452880859376,1.47014244140625
-0.30166017578125,-0.03693647216796875,1.422463720703125
-0.339347578125,0.15668489013671874,1.4320486181640626
-0.23139140625,-0.13840386962890625,1.386090263671875
-0.076751484375,-0.16683434814453124,1.174239453125
-0.12854126953125,-0.03595611083984375,1.0506188525390625
-0.01231818359375,-0.21634259521484375,1.0358728564453126
-0.14410251953125,-0.295996953125,1.1720275537109375
-0.09498732421875,-0.159726728515625,1.0997721728515626
-0.0388209375,-0.18791211669921876,1.1671122216796874
-0.07991236328125,-0.2881540625,1.4118957568359374
-0.2464663671875,0.03119864013671875,1.326123212890625
-0.11103486328125,-0.2915853271484375,1.145238994140625
-0.30360533203125,-0.14134495361328125,1.02579642578125
-0.2980130078125,-0.144040947265625,1.1076367041015625
-0.20342978515625,-0.15065838623046876,1.0184234277343749
-0.07869664062500001,-0.17026561279296876,0.8810398974609375
-0.14458880859375,0.03708080810546875,0.8564632373046875
0.05381712890625,-0.07075893798828126,0.7183424072265625
-0.05024873046875,-0.09820905517578125,0.611433935546875
-0.07188859375000001,0.0338946337890625,0.5411446875
0.0856690625,-0.0371815625,0.605535537109375
-0.0431975390625,-0.0724745703125,0.6706636865234374
-0.1725504296875,0.1191860693359375,0.7566819970703125
-0.22044990234375,0.1613416064453125,0.7539785644531249
-0.11832919921875,0.1250682373046875,0.7556989306640625
-0.2299325390625,0.1427147412109375,1.1169758349609376
-0.0932853125,0.07482471923828125,1.2418252685546876
-0.23601115234375,0.1436951025390625,1.429345185546875
-0.23309341796875,0.14148928955078124,1.171781787109375
-0.21972046875,-0.0016434643554687498,1.020389560546875
0.020020039062499998,-0.02149578125,0.9016842919921875
0.05673486328125,0.13536203125,1.043000087890625
0.0389853125,-0.02370159423828125,1.0953483740234375
-0.06751199218750001,0.034384814453125,1.3027753857421875
-0.1399690625,0.046149150390625,1.3283351123046876
0.0540602734375,-0.03448556884765625,1.270088427734375
-0.005753281249999999,-0.0018885546875000003,1.2231470068359376
-0.0431975390625,0.0010525292968750002,1.09657720703125
-0.13510617187500001,-0.11879664306640625,1.3986243603515625
-0.09304216796875,-0.14894275390625,1.4644898095703125
-0.30141703125,-0.077376376953125,1.6099836376953125
-0.17425244140625,-0.1494329345703125,1.2088925439453124
-0.294608984375,-0.09232688720703125,1.06511908203125
-0.1365650390625,-0.0925719775390625,0.8377849755859375
0.02536921875,-0.07051384765625,0.65911265625
-0.0315266015625,-0.04428918212890625,0.6937657470703125
-0.1793584765625,-0.1866866650390625,0.5576110498046875
-0.013290761718750002,-0.11364974609375,0.6745959521484375
0.028286953125,-0.15556019287109374,0.719571240234375
0.014184570312499999,-0.1626678125,0.846386806640625
-0.04344068359375,-0.20384298828125,0.8500733056640625
-0.26227076171875,-0.010711806640625,0.8948028271484375
-0.1710915625,-0.006790361328125,0.9360916162109375
-0.2474389453125,-0.15654055419921875,1.190460048828125
-0.21607330078125,0.03512008544921875,1.2452660009765626
-0.1365650390625,-0.0925719775390625,1.154578125
-0.152612578125,-0.047965537109375,0.91176072265625
-0.1103054296875,-0.063651318359375,0.7144101416015625
-0.0461152734375,-0.01585870361328125,0.7035964111328125
-0.03687578125,-0.0229663232421875,0.8340984765625
-0.22944625,-0.01928996826171875,0.8854636962890625
-0.09425789062500001,-0.03742665283203125,0.86653966796875
-0.1034973828125,-0.09845414550781251,0.7080202099609375
-0.240144609375,-0.04085791748046875,0.6689433203125
-0.049762441406249996,-0.03448556884765625,0.647315859375
-0.1608794921875,-0.16389326416015626,0.6984353125
-0.18397822265625,-0.0415931884765625,0.7552073974609375
-0.12319208984375,-0.052867343750000004,0.8815314306640625
-0.10519939453125,-0.1866866650390625,0.7429190673828125
-0.060460800781250004,-0.03987755615234375,0.77806369140625
-0.148722265625,-0.03914228515625,0.7886316552734375
-0.06240595703125,-0.046004814453125,0.8028861181640625
-0.02058509765625,-0.06144550537109375,0.96484630859375
-0.107873984375,0.00619942626953125,1.0653648486328124
-0.004537558593750001,-0.008996174316406251,1.0108046630859375
-0.09304216796875,-0.21193096923828125,0.998762099609375
-0.3038484765625,0.07923634521484375,1.145238994140625
-0.07602205078125,0.01649322021484375,1.1005094726562499
-0.236254296875,-0.14894275390625,1.1120605029296875
-0.2411171875,0.14418528320312501,1.02579642578125
-0.09498732421875,-0.17639287109375001,0.9186421875
-0.11687033203125,-0.12565917236328125,0.8515479052734375
-0.12854126953125,0.09296140380859375,0.8844806298828125
-0.11930177734375,-0.1592365478515625,0.7552073974609375
-0.061676523437500005,0.009140510253906251,0.9975332666015625
-0.2099946875,0.17923320068359375,1.1803836181640626
-0.117599765625,-0.00948635498046875,1.3008092529296875
-0.1336473046875,-0.20972515625,1.1164843017578125
-0.17717017578125,0.04124734375,1.076424345703125
-0.0714023046875,-0.1994313623046875,0.9242948193359375
-0.1044699609375,-0.10654212646484375,0.7947758203124999
-0.17279357421875,-0.1592365478515625,0.988931435546875
-0.1219763671875,-0.296977314453125,1.0540595849609375
-0.31624884765625,-0.08644471923828125,1.027271025390625
0.013941425781249999,-0.1131595654296875,0.7566819970703125
-0.033958046875,-0.18693175537109374,0.79182662109375
