ax,ay,az
-0.28755779296875,0.00987578125,1.2270792724609374
-0.31138595703125,-0.06340622802734375,1.08379734375
-0.21558701171875,-0.052867343750000004,1.1125520361328125
-0.42469130859375,-0.028113220214843748,1.1073909375
-0.40937320312500003,-0.07124911865234375,1.0717547802734375
-0.26810623046875,-0.08423890625,0.9115149560546875
-0.2299325390625,-0.093062158203125,0.8132083154296875
-0.06021765625,-0.10016977783203125,0.951574912109375
-0.214857578125,-0.06340622802734375,1.0928907080078125
-0.11298001953125,-0.12663953369140624,1.0786362451171876
-0.33253953125,0.06281529296875,1.0978060400390626
-0.28901666015625,0.08511851318359374,1.01006736328125
-0.29971501953125,0.0373258984375,1.0857634765625
-0.3811684375,-0.00507472900390625,1.18505318359375
-0.361716875,-0.02149578125,1.0963314404296876
-0.27418484375,0.04198261474609375,0.9960586669921875
-0.222638203125,-0.01683906494140625,0.892590927734375
-0.1968648828125,-0.0881603515625,0.9459222802734375
-0.24330548828125,0.028257556152343752,1.1110774365234375
-0.268349375,-0.10752248779296875,1.10837400390625
-0.4001337109375,-0.0018885546875000003,1.0668394482421875
-0.17084841796875,-0.0092412646484375,0.9614055761718749
-0.43636224609375,-0.02027032958984375,0.9356000830078125
-0.24330548828125,0.05374695068359375,0.930930517578125
-0.14215736328125,-0.00213364501953125,0.7952673535156249
-0.3359435546875,0.0505607763671875,0.8014115185546875
-0.1599069140625,0.06404074462890624,0.9714820068359376
-0.33983386718749997,-0.14967802490234375,1.0933822412109375
-0.31430369140625003,-0.0097314453125,1.3342335107421874
-0.38773333984375,-0.0288484912109375,1.3671662353515626
-0.4049966015625,-0.04526954345703125,1.0189149609375
-0.30871136718750003,0.03806116943359375,0.810996416015625
-0.286828359375,-0.0298288525390625,0.7016302783203126
-0.10519939453125,-0.0494360791015625,0.6480531591796875
-0.14507509765624998,-0.10605194580078126,0.707774443359375
-0.18397822265625,-0.05311243408203125,0.875387265625
-0.26178447265625,-0.181294677734375,0.9518206787109375
-0.3126016796875,-0.05801424072265625,0.98843990234375
-0.2707808203125,-0.08252327392578125,0.9953213671875
-0.24865466796875,0.0020328906249999995,1.010558896484375
-0.28123603515625,0.1079119140625,1.0565172509765626
-0.3262177734375,0.0927163134765625,1.0565172509765626
-0.36828177734375,0.1466361865234375,1.087729609375
-0.30700935546875,0.08242251953125,0.9916348681640625
-0.2095083984375,0.07384435791015626,0.9169218212890625
-0.230418828125,-0.02958376220703125,0.9154472216796875
-0.183735078125,0.03610044677734375,1.0860092431640624
-0.25789416015625,0.067717099609375,1.113780869140625
-0.37022693359375003,0.062080021972656246,1.0157199951171876
-0.22750109375,0.0956573974609375,0.9842618701171875
-0.31746457031249997,-0.01291761962890625,0.9609140429687499
-0.325731484375,0.03512008544921875,1.071509013671875
-0.251815546875,0.06673673828125,1.103950205078125
-0.3057936328125,-0.06585713134765625,0.9442019140625
-0.32111173828125,-0.093062158203125,0.9704989404296875
-0.1949197265625,0.01183650390625,0.933879716796875
-0.3339983984375,-0.048455717773437504,0.92748978515625
-0.31746457031249997,-0.01953505859375,1.0206353271484374
-0.3427516015625,0.01110123291015625,0.9990078662109375
-0.288773515625,0.02727719482421875,1.05725455078125
-0.2571647265625,-0.048455717773437504,0.9921264013671875
-0.3281629296875,-0.0249270458984375,0.8874298291015625
-0.2114535546875,0.064776015625,0.91077765625
-0.2955815625,-0.0200252392578125,0.87440419921875
-0.30846822265625,0.044188427734375,0.9407611816406249
-0.29533841796875,0.0142874072265625,0.9449392138671875
-0.3933256640625,-0.0876701708984375,0.8778449316406249
-0.32208431640625,0.00865032958984375,0.9041419580078125
-0.30749564453125,-0.01389798095703125,0.8023945849609375
-0.2698082421875,-0.0641414990234375,0.714655908203125
-0.304334765625,-0.0994345068359375,0.766758427734375
-0.25084296875,-0.052867343750000004,0.921099853515625
-0.3213548828125,-0.00948635498046875,0.9542783447265625
-0.22361078125,-0.06340622802734375,0.951574912109375
-0.2347954296875,-0.02076051025390625,0.9820499707031249
-0.2800203125,0.055952763671875,0.9410069482421874
-0.31527626953125,0.030463369140625002,0.8471241064453126
-0.2250696484375,0.085363603515625,0.829674677734375
-0.28901666015625,0.134381669921875,0.9532952783203125
-0.2912049609375,0.0387964404296875,1.1445016943359374
-0.284883203125,0.13021513427734374,1.237647236328125
-0.33642984375,0.07090327392578125,1.2118417431640625
-0.32013916015625,0.05276658935546875,1.1277895654296874
-0.3349709765625,0.0476196923828125,1.0486527197265625
-0.38092529296875,-0.047965537109375,1.0348897900390626
-0.2104809765625,0.02923791748046875,0.969270107421875
-0.28074974609375003,-0.05605351806640625,0.8026403515625
-0.1774133203125,-0.01634888427734375,0.896523193359375
-0.23747001953125,0.0809519775390625,1.047915419921875
-0.35199109375,-0.093062158203125,1.0137538623046876
-0.2099946875,0.01453249755859375,1.072000546875
-0.35320681640625,0.0466393310546875,0.9641090087890625
-0.3602580078125,-0.07051384765625,0.9704989404296875
-0.2688356640625,0.06624655761718751,1.1014925390624999
-0.380195859375,0.01159141357421875,1.09952640625
-0.3680386328125,-0.05262225341796875,1.1051790380859374
-0.31819400390625,-0.09330724853515625,1.0343982568359376
-0.23917203125,0.026051743164062502,0.9972875
-0.31697828125,-0.03129939453125,1.0614325830078124
-0.4108320703125,-0.2464887060546875,1.0255506591796875
-0.330594375,-0.09477779052734375,0.930438984375
-0.29509527343749997,-0.0013983740234375002,0.8751414990234375
-0.366579765625,-0.2092349755859375,0.821810146484375
-0.25011353515625,0.0515411376953125,0.9537868115234375
-0.32743349609375,0.01600303955078125,0.9557529443359375
-0.29363640625,-0.0621807763671875,1.0923991748046875
-0.1949197265625,0.07457962890625,1.13098453125
-0.4088869140625,-0.100905048828125,1.0383305224609374
-0.1827625,-0.09404251953125001,1.03169482421875
-0.31284482421875,0.11747043701171875,1.025304892578125
-0.49982296875,0.07384435791015626,1.0579918505859376
-0.42371873046874997,0.02923791748046875,1.0083469970703125
-0.2668905078125,0.04051207275390625,0.9488714794921875
-0.21655958984375,-0.032279755859375,0.9370746826171875
-0.15188314453125001,0.0368357177734375,0.9975332666015625
-0.30263275390625,0.09296140380859375,0.8903790283203125
-0.22385392578125,-0.07051384765625,0.790352021484375
-0.18495080078125,0.0182088525390625,0.845403740234375
-0.2717533984375,-0.0881603515625,0.9481341796875
-0.26470220703125,-0.157766005859375,1.0776531787109376
-0.36925435546875,-0.0210056005859375,1.023338759765625
-0.31187224609374997,-0.0161037939453125,0.88816712890625
-0.3281629296875,-0.01144707763671875,0.953541044921875
-0.302389609375,0.16697868408203126,1.0284998583984375
-0.16185207031249998,0.07139345458984375,0.8756330322265625
-0.20537494140625,-0.06732767333984375,0.9677955078125
-0.20537494140625,0.04541387939453125,1.0742124462890625
-0.2124261328125,0.0740894482421875,1.0009739990234374
-0.30555048828125,0.11109808837890625,0.99040603515625
-0.27394169921875,0.12335260498046875,0.9921264013671875
-0.3690112109375,0.017718671875,1.0697886474609375
-0.12343523437500001,-0.085219267578125,1.1302472314453125
-0.181789921875,-0.1352176953125,1.01006736328125
-0.29728357421875,-0.0974737841796875,0.8761245654296875
-0.08988128906250001,-0.13448242431640625,0.9262609521484375
-0.47380650390625,-0.0612004150390625,1.172764853515625
-0.389921640625,0.0397768017578125,1.1828412841796876
-0.15917748046875,-0.11487519775390626,1.024813359375
-0.2328502734375,0.05864875732421875,0.9921264013671875
-0.16598552734375,0.0387964404296875,0.9704989404296875
-0.1511537109375,-0.042083369140625,0.90586232421875
-0.2873146484375,0.05105095703125,0.9238032861328125
-0.18884111328125,-0.049926259765625,1.0073639306640625
-0.28196546875,0.016738310546875,1.051847685546875
-0.27151025390625,0.0064445166015625,0.948625712890625
-0.21558701171875,-0.01953505859375,0.8721922998046875
-0.28074974609375003,-0.0670825830078125,1.00416896484375
-0.31430369140625003,-0.05311243408203125,1.0806023779296874
-0.2931501171875,-0.15556019287109374,0.986965302734375
-0.2406308984375,-0.091101435546875,0.904387724609375
-0.27613,-0.12075736572265625,0.78199595703125
-0.05559791015625,-0.15457983154296875,0.820335546875
-0.26178447265625,-0.10801266845703125,0.9913891015625
-0.27491427734375,-0.0141430712890625,1.1366371630859375
-0.25449013671875,0.015022678222656249,1.0707717138671875
-0.2450075,0.10374537841796876,1.0176861279296876
-0.13826705078125,0.04884514404296875,0.9562444775390625
-0.251815546875,-0.05360261474609375,1.0339067236328126
-0.23601115234375,0.05178622802734375,1.077407412109375
-0.30603677734375,-0.030073942871093752,0.833606943359375
-0.2722396875,0.07335417724609375,0.7778179248046875
-0.3738741015625,0.02874773681640625,0.745130966796875
-0.27977716796875,-0.0308092138671875,0.74463943359375
-0.26251390625,-0.00997653564453125,0.8318865771484375
-0.18349193359375,-0.0710040283203125,0.8498275390625
-0.206104375,-0.11438501708984375,0.8105048828125
-0.1842213671875,-0.02027032958984375,0.8210728466796875
-0.35588140625,-0.0180645166015625,0.8638362353515625
-0.33035123046875,0.036345537109375,0.9196252539062499
-0.2099946875,-0.15359947021484374,0.9469053466796875
-0.216802734375,-0.13129625,0.996795966796875
-0.25473328125,-0.05556333740234375,1.035135556640625
-0.3072525,-0.02664267822265625,1.0230929931640624
-0.27613,0.126538779296875,0.9169218212890625
-0.28074974609375003,0.05325677001953125,0.7928096875
-0.22093619140625,-0.01095689697265625,0.8242678125
-0.1210037890625,0.04149243408203125,0.9798380712890625
-0.25473328125,0.02139502685546875,1.1368829296875
-0.40937320312500003,0.06158984130859375,1.197833046875
-0.27783201171875,0.02727719482421875,1.014491162109375
-0.1813036328125,0.0191892138671875,0.7928096875
-0.15723232421875,-0.026397587890625,0.6834435498046875
-0.047087851562500005,-0.1455114892578125,0.674350185546875
-0.10544253906250001,-0.2268814794921875,0.80952181640625
-0.2566784375,-0.049926259765625,1.0142453955078126
-0.3427516015625,-0.2136466015625,1.1140266357421875
-0.37533296875,-0.18301031005859375,1.16539185546875
-0.259596171875,-0.0268877685546875,1.0840431103515624
-0.09523046875,-0.0513968017578125,0.96484630859375
-0.119544921875,-0.06536695068359374,0.82328474609375
-0.12635296875,-0.012427438964843749,0.84786140625
-0.10471310546875,-0.034240478515625,0.924049052734375
-0.19078626953125,0.011346323242187501,1.10247560546875
-0.22579908203125,0.046149150390625,1.2290454052734374
-0.2367405859375,0.11771552734375,1.29515662109375
-0.37363095703125,0.08903995849609375,1.1626884228515626
-0.24184662109375,0.06109966064453125,1.00416896484375
-0.29533841796875,0.11698025634765626,0.973202373046875
-0.34396732421875,0.1054610107421875,0.9532952783203125
-0.18689595703125,0.1201664306640625,0.985982236328125
-0.28755779296875,-0.06659240234375,0.8800568310546875
-0.21704587890625,-0.0332601171875,0.9247863525390625
-0.2182616015625,-0.00850599365234375,0.9026673583984375
-0.24622322265625,-0.10727739746093751,0.887675595703125
-0.23698373046875,-0.03742665283203125,0.9901602685546875
-0.237226875,-0.05556333740234375,1.0457035205078125
-0.033714902343750006,-0.1180613720703125,1.114763935546875
-0.30457791015625,-0.00311400634765625,1.1631799560546874
-0.3787369921875,0.0530116796875,1.1823497509765626
-0.201241484375,-0.0011532836914062497,1.0958399072265625
-0.36487775390625,0.10595119140625,1.08281427734375
-0.2688356640625,-0.018554697265625,1.1420440283203126
-0.20804953125,0.0231106591796875,1.14573052734375
-0.35515197265625,0.05889384765625,1.0299744580078125
-0.24719580078125,0.049090234375,0.9262609521484375
-0.23066197265625,-0.0141430712890625,0.777080625
-0.1628246484375,-0.0121823486328125,0.7121982421874999
-0.09012443359375,-0.15457983154296875,0.7694618603515625
-0.16185207031249998,-0.077376376953125,0.8741584326171875
-0.22239505859375,-0.13987441162109376,0.9901602685546875
-0.34202216796875,-0.03105430419921875,1.159984990234375
-0.34834392578125,0.0191892138671875,1.2098756103515624
-0.35223423828125,0.09492212646484376,1.20471451171875
-0.247925234375,-0.0327699365234375,1.0904330419921875
-0.18470765625,-0.00703545166015625,1.0638902490234374
-0.2698082421875,-0.11561046875,0.967303974609375
-0.2766162890625,-0.034240478515625,0.95501564453125
-0.277102578125,-0.118551552734375,0.9228202197265625
-0.3009307421875,-0.10311086181640625,0.9041419580078125
-0.24622322265625,-0.14575657958984375,0.9206083203125
-0.27442798828125,-0.10801266845703125,0.9356000830078125
-0.15747546875,0.02752228515625,0.93437125
-0.1890842578125,0.03021827880859375,0.9341254833984375
-0.257651015625,-0.00311400634765625,0.93338818359375
-0.19564916015625,0.0255615625,1.03562708984375
-0.3656071875,-0.042328459472656246,1.0855177099609374
-0.29631099609375,-0.08252327392578125,0.977626171875
-0.3515048046875,-0.08154291259765625,0.8962774267578125
-0.32475890625,-0.040122646484374996,0.905370791015625
-0.30846822265625,-0.0553182470703125,0.9277355517578125
-0.343237890625,-0.0004180126953125,0.94911724609375
-0.23503857421875,0.01575794921875,1.0324321240234375
-0.22871681640625,0.0701680029296875,1.0255506591796875
-0.203186640625,0.0348749951171875,0.9174133544921875
-0.13607875,0.015022678222656249,0.8309035107421875
-0.175954453125,0.028502646484374998,0.879811064453125
-0.2411171875,0.04786478271484375,0.95698177734375
-0.22093619140625,0.06992291259765625,1.0071181640625
-0.33083751953125,0.07457962890625,1.1140266357421875
-0.34348103515625,0.02335574951171875,1.06118681640625
-0.32159802734375,-0.0464949951171875,0.9972875
-0.31868029296875,-0.04428918212890625,1.013508095703125
-0.22434021484375,-0.055808427734375,1.1371286962890625
-0.36220316406249997,-0.22516584716796875,1.0668394482421875
-0.377278125,-0.0680629443359375,0.94911724609375
-0.2814791796875,-0.0004180126953125,0.7512751318359375
-0.1735230078125,0.0701680029296875,0.6854096826171875
-0.1161408984375,0.1348718505859375,0.696960712890625
-0.12367837890625,0.08707923583984375,0.745130966796875
-0.09912078125,0.01551285888671875,0.8972604931640625
-0.1171134765625,-0.03301502685546875,1.0648733154296874
-0.16136578125,-0.23349891845703125,1.1604765234375
-0.2824517578125,-0.14134495361328125,1.3514371728515624
-0.39113736328125,-0.010221625976562499,1.3914971289062499
-0.58540984375,-0.1729616064453125,1.20078224609375
-0.52316484375,-0.106787216796875,1.0334151904296875
-0.2814791796875,-0.08007237060546875,0.895540126953125
-0.35126166015625,-0.1082577587890625,0.835573076171875
-0.06921400390625,0.03757098876953125,0.9346170166015625
-0.13145900390625,-0.0121823486328125,0.8702261669921875
-0.01766736328125,0.038306259765625,0.8304119775390625
-0.041738671875,-0.00850599365234375,0.86653966796875
-0.1326747265625,-0.07443529296875,0.8874298291015625
-0.27588685546875,-0.147962392578125,1.0466865869140625
-0.3612305859375,-0.08595453857421875,1.20864677734375
-0.494960078125,0.0456589697265625,1.1646545556640624
-0.51076447265625,-0.057769150390625,1.001711298828125
-0.48499115234375,0.0319339111328125,0.95796484375
-0.4633512890625,0.095167216796875,1.032186357421875
-0.49714837890625,0.10325519775390625,0.97467697265625
-0.33861814453125,0.101049384765625,0.8957858935546875
-0.183735078125,0.06600146728515625,0.8264797119140626
-0.22093619140625,-0.030319033203124998,0.7529954980468749
-0.14556138671875,-0.03889719482421875,0.7321053369140624
-0.28853037109375,-0.079337099609375,0.8544971044921875
-0.308225078125,0.02360083984375,0.9297016845703125
-0.47137505859375,-0.073454931640625,0.921099853515625
-0.23601115234375,-0.0710040283203125,1.0565172509765626
-0.42979734375,0.05472731201171875,1.1833328173828126
-0.5679034375,0.11550971435546875,1.1528577587890625
-0.55112646484375,0.00619942626953125,1.000728232421875
-0.50347013671875,0.16060633544921876,1.0294829248046875
-0.3524773828125,0.053992041015625,0.98843990234375
-0.24306234375,-0.09330724853515625,0.9002096923828125
-0.2882872265625,0.0799716162109375,0.7905977880859375
-0.23406599609375,0.01698340087890625,0.66796025390625
-0.11978806640625,-0.10654212646484375,0.60701013671875
-0.045628984375,-0.10556176513671875,0.8205813134765625
-0.23503857421875,-0.21095060791015624,1.1533492919921875
-0.50954875,-0.052867343750000004,1.3239113134765625
-0.42323244140625,-0.042328459472656246,1.15359505859375
-0.407428046875,-0.0175743359375,0.882760263671875
-0.3189234375,0.016738310546875,0.7733941259765625
-0.32354318359375,0.0044837939453125,0.8122252490234375
-0.31381740234375,0.1672237744140625,1.122628466796875
-0.35855599609375,0.11354899169921875,1.2398591357421875
-0.31478998046875,0.07384435791015626,1.1361456298828125
-0.07261802734375,0.06796218994140625,0.907336923828125
-0.05900193359375,-0.15997181884765624,0.8500733056640625
-0.10714455078125,0.05227640869140625,0.88226873046875
-0.347128203125,-0.1033559521484375,0.9724650732421874
-0.36682291015625,-0.10727739746093751,1.0388220556640624
-0.41010263671875,-0.03644629150390625,1.0024485986328124
-0.31333111328125,-0.048945898437499996,0.9016842919921875
-0.4584883984375,0.008895419921875,0.7650380615234375
-0.38287044921875,0.1515379931640625,0.7200627734375
-0.3651208984375,-0.0646316796875,0.7276815380859375
-0.32062544921875,0.05668803466796875,0.803131884765625
-0.23601115234375,7.216796875000007e-05,0.8721922998046875
-0.18689595703125,-0.0945327001953125,0.9402696484374999
-0.329621796875,-0.0651218603515625,1.04349162109375
-0.34980279296875,-0.073454931640625,1.040050888671875
-0.26275705078125,0.02433611083984375,0.976151572265625
-0.329621796875,7.216796875000007e-05,0.89996392578125
-0.393811953125,-0.00507472900390625,0.902421591796875
-0.36390517578125,-0.0371815625,0.94223578125
-0.37168580078125,0.07482471923828125,0.8844806298828125
-0.4973915234375,0.0819323388671875,0.7905977880859375
-0.35855599609375,0.00963069091796875,0.8230389794921875
-0.36050115234375,0.0829127001953125,0.865065068359375
-0.32208431640625,0.0015427099609375003,0.9100403564453124
-0.3349709765625,-0.0033590966796874996,0.9953213671875
-0.26324333984375,-0.0513968017578125,0.9567360107421875
-0.3456693359375,-0.01193725830078125,0.862115869140625
-0.28512634765625,0.0093856005859375,0.8830060302734375
-0.35174794921875,0.01306195556640625,0.8952943603515625
-0.29874244140625,7.216796875000007e-05,0.93732044921875
-0.32743349609375,0.021640117187500002,0.9827872705078124
-0.3437241796875,0.11207844970703125,0.9813126708984374
-0.47404964843749997,-0.02027032958984375,0.9100403564453124
-0.47234763671875,0.0044837939453125,0.8923451611328125
-0.42469130859375,0.12286242431640625,0.929947451171875
-0.361716875,-0.032279755859375,0.840488408203125
-0.3690112109375,-0.07958218994140626,0.8812856640625
-0.25011353515625,0.010611052246093749,0.817877880859375
-0.2289599609375,0.00963069091796875,0.804114951171875
-0.22968939453125,0.03855135009765625,1.0368559228515626
-0.277102578125,0.0887948681640625,1.24108796875
-0.3816547265625,0.0789912548828125,1.19291771484375
-0.3835998828125,0.0603643896484375,1.2103671435546874
-0.37338781249999997,0.0770305322265625,1.17522251953125
-0.32548833984375003,0.0191892138671875,1.048898486328125
-0.4011062890625,0.028502646484374998,1.065610615234375
-0.485234296875,0.048109873046875,1.1317218310546875
-0.3427516015625,0.06551128662109375,1.0496357861328125
-0.43295822265625,-0.01095689697265625,0.9835245703125
-0.32354318359375,0.1270289599609375,1.032186357421875
-0.19613544921875,0.01012087158203125,1.014491162109375
-0.32208431640625,-0.0317895751953125,1.0014655322265624
-0.2411171875,-0.008996174316406251,1.0997721728515626
-0.3320532421875,-0.00850599365234375,1.113780869140625
-0.35199109375,-0.08203309326171875,0.9759058056640625
-0.3699837890625,-0.08791526123046875,0.8987350927734374
-0.191515703125,-0.044044091796875,0.967303974609375
-0.20051205078125,-0.11561046875,1.1644087890625
-0.44268400390625,-0.13889405029296875,1.30498728515625
-0.38578818359375,-0.0670825830078125,1.2713172607421874
-0.4088869140625,-0.19918627197265626,0.9410069482421874
-0.4030514453125,-0.03742665283203125,0.9021758251953125
-0.33861814453125,-0.036201201171875,0.88423486328125
-0.24865466796875,-0.045024453125,0.8471241064453126
-0.1103054296875,0.06109966064453125,0.854251337890625
-0.08380267578125,-0.0523771630859375,0.9311762841796875
-0.1015522265625,0.04933532470703125,1.0896957421875
-0.14604767578125,0.04639424072265625,1.1843158837890626
-0.28950294921874997,0.0201695751953125,1.1966042138671875
-0.4045103125,0.06698182861328125,1.2231470068359376
-0.42906791015625,0.09247122314453125,1.2253589062499999
-0.3894353515625,0.0054641552734375,1.1046875048828124
-0.34226531250000003,0.09394176513671874,1.0543053515625
-0.1667149609375,0.09345158447265625,1.0393135888671874
-0.21655958984375,0.1897720849609375,1.1253318994140624
-0.2367405859375,0.1878113623046875,1.14179826171875
-0.1710915625,0.15423398681640624,1.0457035205078125
-0.19613544921875,0.077520712890625,0.931913583984375
-0.18495080078125,-0.016593974609375,0.9051250244140625
-0.1842213671875,-0.1033559521484375,0.871946533203125
-0.2099946875,-0.07566074462890625,0.946659580078125
-0.23114826171875,-0.1141399267578125,0.9503460791015625
-0.20780638671875,-0.1572758251953125,1.0009739990234374
-0.33667298828125003,-0.07958218994140626,1.080356611328125
-0.3252451953125,-0.13546278564453124,1.1479424267578124
-0.37533296875,-0.01732924560546875,1.1302472314453125
-0.35369310546875,0.008405239257812499,0.999745166015625
-0.30555048828125,-0.11879664306640625,0.9041419580078125
-0.32257060546875,-0.03154448486328125,0.841471474609375
-0.32086859375,-0.0327699365234375,0.7709364599609375
-0.005753281249999999,-0.10016977783203125,0.7945300537109374
0.038012734374999996,-0.22712656982421875,0.9729566064453125
0.0744844140625,-0.2033528076171875,1.2020110791015626
-0.19127255859375,-0.077376376953125,1.2998261865234375
-0.3135742578125,0.11845079833984375,1.2231470068359376
-0.39648654296875,0.1260485986328125,1.3121145166015624
-0.5392123828125,0.1152646240234375,1.4315570849609376
-0.46019041015625,0.0407571630859375,1.363479736328125
-0.44924890625,0.1201664306640625,1.1125520361328125
-0.3602580078125,0.08953013916015624,0.8028861181640625
-0.24622322265625,0.0103659619140625,0.544585419921875
-0.039793515625,-0.124433720703125,0.4976439990234375
-0.006482714843750001,-0.040122646484374996,0.5197629931640625
-0.060947089843749996,-0.012427438964843749,0.6269172314453125
-0.156502890625,-0.07664110595703125,0.73874103515625
-0.13413359375,-0.0371815625,0.867031201171875
-0.2523018359375,0.0966377587890625,0.953541044921875
-0.3656071875,0.06698182861328125,1.0157199951171876
-0.33764556640625,0.159871064453125,1.0206353271484374
-0.4278521875,0.12555841796875,0.9508376123046876
-0.36001486328125,0.097127939453125,0.8264797119140626
-0.32281375,-0.0533575244140625,0.739232568359375
-0.25351755859375,-0.0254172265625,0.6991726123046875
-0.2347954296875,-0.05874951171875,0.7040879443359375
-0.29193439453125003,-0.03252484619140625,0.7724110595703125
-0.13510617187500001,-0.00507472900390625,0.7534870312499999
-0.1044699609375,-0.08963089355468751,0.7729025927734375
-0.0986344921875,0.02727719482421875,0.860149736328125
-0.19175884765625,0.04002189208984375,1.0388220556640624
-0.23601115234375,0.1378129345703125,1.238630302734375
-0.2678630859375,0.0922261328125,1.3253859130859376
-0.21972046875,0.08609887451171874,1.24600330078125
-0.24379177734375002,-0.0719843896484375,1.2155282421875
-0.30506419921875,-0.0759058349609375,1.1680952880859374
-0.1939471484375,-0.0582593310546875,0.9837703369140625
-0.27734572265625,-0.092081796875,0.9095488232421876
-0.1706052734375,-0.0406128271484375,0.8576920703124999
-0.23844259765625,-0.11487519775390626,0.7797840576171875
-0.131215859375,-0.09820905517578125,0.89406552734375
-0.07310431640625001,-0.03252484619140625,0.9896687353515625
-0.14167107421875,-0.0082609033203125,0.9370746826171875
-0.11978806640625,0.0633054736328125,0.9410069482421874
-0.098148203125,0.03757098876953125,0.9638632421875
-0.175954453125,0.03413972412109375,0.916184521484375
-0.22750109375,-0.03595611083984375,0.9292101513671875
-0.207076953125,-0.02468195556640625,0.97860923828125
-0.2659179296875,0.00717978759765625,1.1164843017578125
-0.3495596484375,-0.03742665283203125,1.136391396484375
-0.3033621875,0.0378160791015625,1.0653648486328124
-0.3281629296875,0.0417375244140625,0.9700074072265625
-0.27637314453125,0.0191892138671875,0.9267524853515625
-0.1166271875,0.06673673828125,0.9813126708984374
-0.19662173828125,-0.02370159423828125,1.001711298828125
-0.1278118359375,-0.08350363525390625,0.9847534033203125
-0.11322316406249999,-0.01193725830078125,0.915201455078125
-0.19832375,-0.0396324658203125,0.8707177001953125
-0.25546271484375,-0.0063001806640625,0.9186421875
-0.2464663671875,0.011346323242187501,1.02579642578125
-0.32889236328125,0.02752228515625,1.12312
-0.40378087890625003,0.00865032958984375,1.1346710302734375
-0.304334765625,0.0319339111328125,1.1172216015625
-0.32475890625,-0.02076051025390625,1.033169423828125
-0.3291355078125,0.03413972412109375,1.0614325830078124
-0.17230728515625,0.01453249755859375,1.0896957421875
-0.335457265625,-0.17320669677734374,1.0191607275390624
-0.210967265625,-0.07835673828125,0.905370791015625
-0.05559791015625,-0.07909200927734375,0.7665126611328125
-0.07504947265625,-0.17173615478515625,0.81935248046875
-0.17960162109375,-0.04698517578125,0.968287041015625
-0.23747001953125,-0.0013983740234375002,0.99827056640625
-0.30944080078125,0.01551285888671875,1.1164843017578125
-0.30749564453125,0.18903681396484376,1.21257904296875
-0.38335673828125,0.1025199267578125,1.166866455078125
-0.34104958984375,0.0711483642578125,1.180629384765625
-0.26907880859375,0.18315464599609374,1.1582646240234376
-0.21655958984375,-0.0249270458984375,1.003677431640625
-0.160393203125,-0.0504164404296875,0.843929140625
-0.0869635546875,-0.0455146337890625,0.7581565966796875
-0.09061072265625,-0.15286419921875,0.7987080859375
-0.12635296875,-0.09575815185546875,0.955507177734375
-0.09401474609375,0.018699033203125,1.1184504345703126
-0.25935302734375,-0.085219267578125,1.19881611328125
-0.19175884765625,0.01306195556640625,1.212087509765625
-0.20464550781250002,0.03928662109375,1.0324321240234375
-0.35904228515625003,0.02041466552734375,0.9717277734375
-0.19905318359375002,0.034384814453125,1.0432458544921874
-0.26664736328125,0.0922261328125,1.0555341845703126
-0.2722396875,0.00668960693359375,0.9793465380859375
-0.15625974609374998,0.0059543359375,0.9252778857421875
-0.168173828125,0.06060947998046875,1.028254091796875
-0.1774133203125,-0.00703545166015625,0.97664310546875
-0.17619759765625,-0.02664267822265625,0.9572275439453125
-0.109819140625,-0.01487834228515625,0.974185439453125
-0.23357970703125,-0.055073156738281254,0.9931094677734374
-0.21121041015625,-0.01953505859375,1.0346440234375
-0.2411171875,-0.01683906494140625,1.0663479150390625
-0.286828359375,-0.06536695068359374,1.0501273193359375
-0.29290697265625,0.06404074462890624,1.0083469970703125
-0.20488865234375,-0.0161037939453125,0.9301932177734376
-0.34202216796875,-0.02664267822265625,0.9129895556640625
-0.30409162109375,-0.022476142578125,0.8780906982421874
-0.0772377734375,-0.030073942871093752,0.803131884765625
-0.1560166015625,0.00963069091796875,0.8144371484375
-0.24816837890625,-0.01732924560546875,0.9370746826171875
-0.19127255859375,-0.06536695068359374,0.967303974609375
-0.19710802734375,-0.0055649096679687505,1.02186416015625
-0.2036729296875,-0.024436865234375,0.9818042041015624
-0.13923962890625,-0.00948635498046875,0.92159138671875
-0.1866528125,-0.05482806640625,0.8731753662109375
-0.30311904296875003,0.0054641552734375,0.8820229638671875
-0.32475890625,-0.046249904785156254,0.8309035107421875
-0.15966376953125,0.0280124658203125,0.8441749072265625
-0.23066197265625,0.01796376220703125,0.9097945898437501
-0.21558701171875,0.03266918212890625,1.0520934521484375
-0.15966376953125,0.095167216796875,1.080356611328125
-0.22750109375,0.18805645263671875,1.1671122216796874
-0.31746457031249997,0.23168253173828124,1.17718865234375
-0.3515048046875,0.18217428466796876,1.0584833837890626
-0.26178447265625,0.03610044677734375,0.977626171875
-0.2318776953125,-0.1092381201171875,0.8365561425781249
-0.160393203125,-0.07051384765625,0.6578838232421875
-0.13607875,-0.1111988427734375,0.568179013671875
-0.11152115234375,-0.1327667919921875,0.5509753515625
-0.0538958984375,-0.15997181884765624,0.54802615234375
-0.16306779296875,-0.14109986328125,0.6141373681640625
-0.09741876953125,-0.0053198193359375,0.8087845166015625
-0.28391062499999997,0.09443194580078125,1.057746083984375
-0.4156949609375,0.0476196923828125,1.0747039794921875
-0.16914640625,-0.0082609033203125,1.0683140478515625
-0.1346198828125,-0.0092412646484375,1.1223827001953124
-0.18640966796875,-0.015368522949218751,1.0294829248046875
-0.10544253906250001,-0.04772044677734375,0.9493630126953125
-0.0743200390625,0.09639266845703125,0.9481341796875
-0.1710915625,0.09345158447265625,0.9356000830078125
-0.17522501953125,0.03413972412109375,1.04152548828125
-0.26713365234374997,0.12237224365234375,1.0117877294921875
-0.2309051171875,0.08021670654296875,0.893573994140625
-0.156502890625,0.055952763671875,0.90782845703125
-0.27637314453125,0.019434304199218752,0.9356000830078125
-0.2099946875,-0.02737794921875,0.9169218212890625
-0.1783858984375,-0.0803174609375,0.8933282275390625
-0.31819400390625,0.05276658935546875,0.8977520263671875
-0.30068759765624997,-0.02737794921875,0.929947451171875
-0.20197091796875,-0.07419020263671874,1.062661416015625
-0.35101851562499997,0.08315779052734375,1.10444173828125
-0.2814791796875,0.01306195556640625,1.0058893310546875
-0.1881116796875,-0.0749254736328125,0.9660751416015625
-0.16987583984375,0.0035034326171875,1.0358728564453126
-0.14021220703125,0.07139345458984375,1.1218911669921874
-0.17279357421875,-0.08497417724609375,1.14769666015625
-0.2056180859375,-0.04281864013671875,1.2329776708984375
-0.24670951171875,0.0682072802734375,1.301546552734375
-0.3933256640625,-0.030319033203124998,1.2732833935546874
-0.4137498046875,-0.0097314453125,1.187510849609375
-0.46651216796875,-0.01830960693359375,0.997779033203125
-0.2163164453125,-0.053847705078125,0.7655295947265625
-0.22774423828125,-0.0249270458984375,0.6618160888671875
-0.24962724609375,-0.05850442138671875,0.6286375976562499
-0.19856689453125,0.00717978759765625,0.6544430908203125
-0.27053767578125,-0.03252484619140625,0.5787469775390625
-0.0869635546875,-0.10507158447265624,0.5777639111328124
-0.034687480468750004,0.07261890625,0.6662398876953125
-0.29922873046875,0.15962597412109375,0.765283828125
-0.30117388671875,0.193203349609375,0.708757509765625
-0.060460800781250004,0.210849853515625,0.9282270849609375
-0.19905318359375002,0.09933375244140626,1.25386783203125
-0.21461443359375,-0.0288484912109375,1.2432998681640626
-0.22288134765625,0.02433611083984375,1.2108586767578124
-0.19078626953125,-0.09575815185546875,1.1312302978515625
-0.154557734375,0.02360083984375,1.1644087890625
-0.2542469921875,-0.0513968017578125,1.2162655419921875
-0.2766162890625,-0.12271808837890624,1.2206893408203126
-0.22531279296875,-0.09085634521484375,0.9891772021484375
-0.21266927734375,-0.146001669921875,0.80853875
-0.13607875,-0.18791211669921876,0.733334169921875
-0.06386482421875,-0.1553151025390625,0.63256986328125
-0.10714455078125,-0.09404251953125001,0.645841259765625
-0.0821006640625,-0.071494208984375,0.8338527099609375
-0.18397822265625,0.0309535498046875,1.0633987158203124
-0.140941640625,0.0309535498046875,1.250427099609375
-0.21072412109375,0.0711483642578125,1.3706069677734374
-0.24281919921875,0.1613416064453125,1.254359365234375
-0.24087404296875,0.02482629150390625,1.2044687451171874
-0.28707150390625,0.03364954345703125,1.20962984375
-0.21510072265625,-0.05556333740234375,1.0570087841796876
-0.1735230078125,-0.00752563232421875,0.875387265625
-0.16404037109375,-0.055808427734375,0.8156659814453124
-0.17765646484375,-0.05605351806640625,0.8805483642578125
-0.15747546875,0.05276658935546875,0.9874568359375
-0.1744955859375,0.0927163134765625,0.93142205078125
-0.3223274609375,-0.048455717773437504,0.991880634765625
-0.28269490234375,0.0535018603515625,1.079373544921875
-0.19029998046875,0.04541387939453125,0.9724650732421874
-0.25449013671875,0.07457962890625,0.95304951171875
-0.152612578125,0.036345537109375,1.03562708984375
-0.23017568359375,0.087324326171875,1.0255506591796875
-0.232363984375,0.07065818359375,1.07101748046875
-0.3962433984375,-0.0200252392578125,1.045949287109375
-0.218747890625,0.080461796875,0.9331424169921875
-0.14580453125,-0.04306373046875,0.8019030517578125
-0.13729447265625,-0.1798241357421875,0.9287186181640625
-0.26081189453125,-0.10727739746093751,0.9827872705078124
-0.19224513671875,0.17629211669921874,1.15556119140625
-0.1025248046875,0.17286085205078125,1.24108796875
-0.21266927734375,0.09835339111328124,1.234698037109375
-0.14215736328125,0.157910341796875,1.2187232080078125
-0.29242068359375,0.06992291259765625,1.03562708984375
-0.3223274609375,0.02139502685546875,0.902913125
-0.17619759765625,0.04737460205078125,0.92945591796875
-0.21412814453125,-0.08987598388671875,0.8397511083984375
-0.098148203125,-0.1141399267578125,0.8097675830078125
-0.13024328125,-0.026397587890625,0.9700074072265625
-0.17425244140625,-0.04036773681640625,1.061678349609375
-0.30603677734375,-0.0327699365234375,1.094119541015625
-0.2775888671875,0.065756376953125,1.23224037109375
-0.257651015625,0.1505576318359375,1.12410306640625
-0.33253953125,-0.07271966064453125,0.9795923046875
-0.2882872265625,0.0010525292968750002,0.990897568359375
-0.21972046875,0.0446786083984375,0.941744248046875
-0.3096839453125,0.0044837939453125,0.968287041015625
-0.201241484375,0.05913893798828125,1.057746083984375
-0.29874244140625,-0.01732924560546875,0.9913891015625
-0.2114535546875,-0.11561046875,0.933879716796875
-0.0067258593750000005,-0.20898988525390624,0.8672769677734375
0.006403945312499999,-0.11879664306640625,0.9994993994140625
-0.2474389453125,-0.11193411376953125,1.185544716796875
-0.36585033203125,-0.0200252392578125,1.2408422021484375
-0.47575166015625,0.0799716162109375,1.268613828125
-0.4283384765625,0.0574233056640625,1.179646318359375
-0.27005138671875,-0.03203466552734375,1.1243488330078124
-0.29339326171875,0.09688284912109375,1.091170341796875
-0.24330548828125,0.02923791748046875,0.913235322265625
-0.13680818359375,0.1113431787109375,0.92159138671875
-0.11346630859375,0.00399361328125,0.885709462890625
-0.1385101953125,-0.0710040283203125,0.994829833984375
-0.18640966796875,-0.098944326171875,1.07888201171875
-0.195406015625,-0.08742508056640624,1.0712632470703125
-0.3155194140625,-0.07370002197265625,1.0820769775390624
-0.2999581640625,-0.0347306591796875,0.9277355517578125
-0.20342978515625,0.13511694091796875,0.9341254833984375
-0.27442798828125,0.05864875732421875,0.953541044921875
-0.25546271484375,-0.013652890625,1.1533492919921875
-0.24865466796875,0.03364954345703125,1.3032669189453125
-0.31089966796875,-0.049926259765625,1.1400778955078126
-0.22385392578125,0.0338946337890625,1.0759328125
-0.17279357421875,0.03512008544921875,1.061678349609375
-0.2795340234375,-0.13399224365234375,0.965829375
-0.1044699609375,0.030463369140625002,1.06315294921875
-0.22361078125,0.00423870361328125,1.0385762890625
-0.15066742187499998,-0.051886982421875,1.0270252587890625
-0.1803310546875,-0.01561361328125,0.951574912109375
-0.24525064453125,0.00276816162109375,0.9395323486328125
-0.1764407421875,-0.035711020507812496,1.0948568408203125
-0.18008791015625,-0.04575972412109375,1.1592476904296876
-0.286828359375,-0.01291761962890625,1.258291630859375
-0.24038775390625,0.0564429443359375,1.3322673779296874
-0.32646091796875,0.08903995849609375,1.17817171875
-0.3544225390625,0.04884514404296875,1.050864619140625
-0.2523018359375,0.0593840283203125,0.9759058056640625
-0.10665826171875001,0.0008074389648437498,0.9041419580078125
-0.207076953125,-0.10360104248046875,0.9007012255859375
-0.22093619140625,-0.167569619140625,0.9483799462890625
-0.220693046875,-0.08203309326171875,0.977134638671875
-0.21655958984375,-0.03546593017578125,0.946168046875
-0.24306234375,-0.11732610107421874,0.905370791015625
-0.2523018359375,0.01796376220703125,1.0395593554687501
-0.1647698046875,-0.0376717431640625,1.0481611865234375
-0.25449013671875,0.022620478515625,1.056271484375
-0.2017277734375,0.055952763671875,1.0407881884765624
-0.35515197265625,0.0137972265625,1.0201437939453124
-0.2464663671875,0.06649164794921875,0.968287041015625
-0.22385392578125,0.0280124658203125,0.94223578125
-0.1861665234375,0.02923791748046875,1.144255927734375
-0.2377131640625,-0.0808076416015625,1.211104443359375
-0.36196001953125,-0.091101435546875,1.1228742333984374
-0.11346630859375,0.03462990478515625,1.004660498046875
-0.24330548828125,-0.04526954345703125,0.871455
-0.1073876953125,0.08560869384765625,0.8284458447265625
-0.19175884765625,0.00987578125,0.8662939013671875
-0.2756437109375,-0.0523771630859375,0.9611598095703124
-0.046358417968749996,0.075559990234375,1.070525947265625
-0.13389044921874999,-0.037916833496093746,1.069542880859375
-0.2221519140625,0.02727719482421875,1.1336879638671875
-0.19516287109375,0.09002031982421875,1.152120458984375
-0.34688505859375,0.00816014892578125,0.989914501953125
-0.1633109375,-0.0406128271484375,0.9483799462890625
-0.20804953125,0.00668960693359375,0.90193005859375
-0.17303671874999998,0.0250713818359375,0.8436833740234375
-0.0791829296875,-0.06585713134765625,0.8594124365234375
-0.25862359375,0.01012087158203125,0.9528037451171875
-0.2722396875,0.04320806640625,1.0860092431640624
-0.27005138671875,-0.03056412353515625,0.9660751416015625
-0.1599069140625,0.05619785400390625,0.8682600341796876
-0.1521262890625,-0.03056412353515625,0.8952943603515625
-0.29096181640625,0.00276816162109375,1.0073639306640625
-0.24476435546875,-0.028113220214843748,0.9638632421875
-0.10471310546875,-0.12418863037109375,0.8874298291015625
-0.170118984375,-0.1631579931640625,0.9080742236328125
-0.15285572265625,0.083402880859375,1.009575830078125
-0.21655958984375,-0.09379742919921875,0.99433830078125
-0.358799140625,-0.044534272460937496,1.1705529541015625
-0.32208431640625,0.19491898193359375,1.3460303076171876
-0.220693046875,-0.0254172265625,1.0904330419921875
-0.2192341796875,0.016738310546875,0.9599309765625
-0.214857578125,0.1505576318359375,1.016948828125
-0.39697283203125,0.04737460205078125,1.03759322265625
-0.33910443359375,-0.00409436767578125,0.972219306640625
-0.08477525390625,-0.02223105224609375,0.8778449316406249
-0.0957167578125,-0.042328459472656246,0.7905977880859375
-0.09109701171875,-0.1170810107421875,0.86850580078125
-0.179844765625,-0.018554697265625,1.127052265625
-0.41107521484375,0.05105095703125,1.13786599609375
-0.25400384765625,-0.09869923583984375,0.9690243408203125
-0.21899103515625,0.008895419921875,1.0093300634765625
-0.21193984375,-0.05899460205078125,0.935845849609375
-0.228473671875,-0.05850442138671875,0.914709921875
-0.14361623046875,0.09810830078125,0.92552365234375
-0.2644590625,-0.12369844970703125,0.879811064453125
-0.2980130078125,-0.016593974609375,0.89013326171875
-0.226528515625,0.0843832421875,0.828200078125
-0.25059982421875,-0.00997653564453125,0.7296476708984375
-0.08744984375,0.0270321044921875,0.748080166015625
-0.17036212890625,0.034384814453125,0.71711357421875
-0.25643529296875,0.097127939453125,0.7121982421874999
-0.11249373046875,0.07139345458984375,0.7360376025390625
-0.14604767578125,0.08462833251953125,0.886692529296875
-0.1321884375,-0.0371815625,1.1784174853515625
-0.22434021484375,-0.0386521044921875,1.363479736328125
-0.24622322265625,0.11060790771484375,1.28729208984375
-0.23917203125,-0.02174087158203125,1.1361456298828125
-0.30627992187499997,0.0059543359375,1.0648733154296874
-0.22701480468750002,-0.022476142578125,1.096085673828125
-0.22531279296875,0.0211499365234375,1.1233657666015624
-0.2143712890625,-0.0386521044921875,1.079373544921875
-0.2299325390625,-0.00801581298828125,0.9655836083984375
-0.146777109375,0.016738310546875,0.86064126953125
-0.038577792968749997,-0.15261910888671876,0.8485987060546875
-0.28707150390625,0.08805959716796875,1.0058893310546875
-0.1832487890625,0.03806116943359375,0.9970417333984375
-0.14799283203125,-0.0945327001953125,1.0255506591796875
-0.19248828125,-0.01169216796875,1.0727378466796875
-0.21753216796875,-0.11830646240234374,1.0933822412109375
-0.36001486328125,-0.12369844970703125,1.083305810546875
-0.2571647265625,-0.0308092138671875,1.113780869140625
-0.37752126953125,-0.1817848583984375,1.000728232421875
-0.2912049609375,-0.1013952294921875,0.9599309765625
-0.1472633984375,-0.08840544189453126,0.864082001953125
-0.23601115234375,-0.10311086181640625,0.900455458984375
-0.19516287109375,0.01649322021484375,0.9395323486328125
-0.11103486328125,-0.052867343750000004,0.8972604931640625
-0.29825615234375,-0.00703545166015625,0.9660751416015625
-0.2707808203125,-0.0011532836914062497,1.0255506591796875
-0.22239505859375,-0.051886982421875,0.941744248046875
-0.21655958984375,0.1015395654296875,0.9852449365234375
-0.23795630859375,0.0221302978515625,0.988931435546875
-0.31041337890625,0.01600303955078125,1.021372626953125
-0.27588685546875,0.057668395996093746,1.1228742333984374
-0.3057936328125,0.02237538818359375,1.080356611328125
-0.20026890625,0.04786478271484375,0.972219306640625
-0.25059982421875,0.0201695751953125,0.9061080908203125
-0.25157240234375,0.08903995849609375,0.9729566064453125
-0.18397822265625,0.0397768017578125,0.9341254833984375
-0.0743200390625,0.0191892138671875,0.86359046875
-0.016451640625,-0.0881603515625,0.92945591796875
-0.07310431640625001,-0.16193254150390626,1.1422897949218749
-0.34104958984375,0.00717978759765625,1.2659103955078126
-0.3884627734375,-0.0886505322265625,1.1548238916015625
-0.34226531250000003,0.0137972265625,1.0810939111328124
-0.29509527343749997,-0.012427438964843749,0.97369390625
-0.21169669921875,-0.02321141357421875,0.8726838330078125
-0.1599069140625,0.0417375244140625,0.82918314453125
-0.19759431640625,0.07188363525390624,0.8223016796875
-0.1866528125,-0.00507472900390625,0.793301220703125
-0.11346630859375,-0.03203466552734375,0.866048134765625
-0.27345541015625,0.0069346972656249995,0.8871840625
-0.09158330078125,-0.04919098876953125,0.782487490234375
-0.07553576171875,-0.0710040283203125,0.83311541015625
-0.2309051171875,-0.0038492773437499997,1.1096028369140625
-0.4108320703125,-0.008751083984375,1.2285538720703124
-0.352963671875,0.01453249755859375,1.304495751953125
-0.32013916015625,0.067717099609375,1.1567900244140625
-0.2172890234375,-0.05164189208984375,0.985982236328125
-0.19346085937500002,-0.0023787353515625003,0.950591845703125
-0.14847912109375,0.0721287255859375,1.0358728564453126
-0.34737134765625,-0.0259074072265625,1.0437373876953124
-0.15066742187499998,0.019679394531249998,1.0653648486328124
-0.1414279296875,-0.00458454833984375,0.9990078662109375
-0.2007551953125,-0.089140712890625,1.025304892578125
-0.12465095703125,0.0466393310546875,1.083305810546875
-0.15771861328125,-0.00801581298828125,1.029237158203125
-0.27588685546875,-0.08154291259765625,1.049881552734375
-0.1997826171875,-0.015368522949218751,1.149171259765625
-0.27977716796875,0.00276816162109375,1.1046875048828124
-0.3466419140625,0.040266982421875,1.151137392578125
-0.17182099609375,-0.0001729223632812504,1.1132893359375
-0.280992890625,-0.0268877685546875,1.0265337255859375
-0.22361078125,0.0387964404296875,1.0457035205078125
-0.19346085937500002,-0.046004814453125,0.9292101513671875
-0.16744439453124998,-0.02909358154296875,0.936828916015625
-0.14167107421875,-0.01193725830078125,0.95108337890625
-0.1764407421875,-0.05874951171875,0.883743330078125
-0.15674603515625,-0.01879978759765625,0.8623616357421875
-0.2231244921875,-0.05115171142578125,0.914709921875
-0.20683380859375,-0.01389798095703125,1.0543053515625
-0.22750109375,0.0030132519531249997,1.14671359375
-0.24087404296875,0.01747358154296875,1.150154326171875
-0.2668905078125,0.05521749267578125,1.04742388671875
-0.277102578125,0.07335417724609375,0.99237216796875
-0.23941517578125,0.04149243408203125,0.9277355517578125
-0.25473328125,0.07923634521484375,0.9488714794921875
-0.1774133203125,0.04884514404296875,0.97271083984375
-0.1793584765625,-0.02419177490234375,0.86457353515625
-0.13024328125,-0.0700236669921875,0.871455
-0.08039865234375,-0.00801581298828125,0.9434646142578125
-0.13486302734375,-0.10065995849609374,0.9508376123046876
-0.1754681640625,0.00865032958984375,1.103950205078125
-0.28755779296875,-0.04772044677734375,1.1120605029296875
-0.33108066406250003,-0.0945327001953125,0.972219306640625
-0.13291787109375,0.087324326171875,0.9360916162109375
-0.2561921484375,-0.0582593310546875,0.9134810888671875
-0.24136033203125,0.0074248779296875,0.9950756005859375
-0.19248828125,0.03168882080078125,0.9798380712890625
-0.26372962890625,-0.03105430419921875,0.86359046875
-0.2153438671875,0.00276816162109375,0.839996875
-0.21023783203125002,-0.0347306591796875,0.7797840576171875
-0.17692703125,-0.057769150390625,0.7443936669921875
-0.1910294140625,-0.053847705078125,0.722520439453125
-0.190543125,-0.044534272460937496,0.780521357421875
-0.226528515625,-0.022476142578125,0.8183694140625
-0.279047734375,-0.057769150390625,0.829674677734375
-0.26567478515625,-0.0121823486328125,0.8589209033203125
-0.30020130859375,0.07580508056640625,0.8340984765625
-0.20683380859375,0.03168882080078125,0.82721701171875
-0.18859796875,0.01845394287109375,0.810996416015625
-0.17765646484375,0.012816865234374999,0.8771076318359375
-0.20732009765625,0.021885207519531248,0.98647376953125
-0.27831830078124997,0.013552136230468751,1.1361456298828125
-0.26640421875,-0.11781628173828125,1.191443115234375
-0.11225058593750001,0.10864718505859375,1.2831140576171876
-0.27199654296875,0.06060947998046875,1.233714970703125
-0.46213556640625,-0.00507472900390625,1.13098453125
-0.3369161328125,0.12188206298828125,1.0973145068359376
-0.40256515625,0.04737460205078125,0.915201455078125
-0.2630001953125,-0.024436865234375,0.806081083984375
-0.17303671874999998,-0.07419020263671874,0.6768078515625
-0.12270580078125,-0.03644629150390625,0.6677144873046875
-0.10957599609375,-0.08963089355468751,0.7832247900390625
-0.13583560546875,-0.09134652587890625,0.97271083984375
-0.26081189453125,0.0976181201171875,1.0894499755859375
-0.46213556640625,0.09100068115234375,1.1703071875
-0.44268400390625,0.09810830078125,1.13983212890625
-0.35904228515625003,-0.03914228515625,0.910286123046875
-0.168173828125,-0.04919098876953125,0.731368037109375
-0.14215736328125,-0.19085320068359374,0.619298466796875
-0.14069849609375001,-0.21487205322265626,0.6431378271484375
-0.06921400390625,-0.12614935302734376,0.59717947265625
-0.06410796875,-0.04281864013671875,0.5787469775390625
-0.1453182421875,-0.04306373046875,0.6259341650390625
-0.1307295703125,0.04443351806640625,0.7090032763671875
-0.15674603515625,0.0927163134765625,0.8498275390625
-0.268349375,0.138303115234375,1.0226014599609374
-0.24379177734375002,-0.0063001806640625,1.1410609619140626
-0.20245720703125,0.09051050048828126,1.17817171875
-0.24695265625,0.103010107421875,1.1356540966796875
-0.32111173828125,0.04492369873046875,1.111323203125
-0.321841171875,0.12041152099609376,1.0088385302734375
-0.22239505859375,0.07678544189453125,0.8871840625
-0.24719580078125,0.01551285888671875,0.8930824609375
-0.12221951171875,0.0897752294921875,0.876861865234375
-0.183735078125,-0.0092412646484375,0.8195982470703125
-0.2124261328125,0.0446786083984375,1.01006736328125
-0.30603677734375,0.0843832421875,1.038084755859375
-0.29339326171875,0.06673673828125,0.9913891015625
-0.3476144921875,0.0373258984375,0.98450763671875
-0.36147373046875,-0.07222947998046875,1.0874838427734375
-0.1453182421875,-0.08423890625,1.2548508984375
-0.13583560546875,-0.11536537841796875,1.486363037109375
-0.3806821484375,-0.154824921875,1.5564065185546876
-0.6228541015625,-0.11144393310546875,1.1096028369140625
-0.30166017578125,-0.15948163818359376,0.687130048828125
-0.1321884375,-0.1327667919921875,0.61094240234375
-0.39356880859375,-0.110708662109375,0.8274627783203125
-0.2260422265625,-0.08595453857421875,1.016948828125
-0.43587595703125,-0.06242586669921875,0.9638632421875
-0.3578265625,0.03144373046875,0.885709462890625
-0.22482650390625,-0.02027032958984375,0.7952673535156249
-0.16404037109375,0.09541230712890625,0.8702261669921875
-0.34056330078125,0.159871064453125,1.0633987158203124
-0.3233000390625,0.03217900146484375,1.1007552392578126
-0.3578265625,-0.0151234326171875,0.95304951171875
-0.3301080859375,-0.03595611083984375,0.695977646484375
-0.2367405859375,-0.0180645166015625,0.671400986328125
-0.403537734375,-0.04085791748046875,0.7380037353515625
-0.4045103125,0.0064445166015625,0.8205813134765625
-0.30749564453125,0.0564429443359375,0.84097994140625
-0.2182616015625,-0.00654527099609375,0.6893419482421875
-0.12221951171875,0.0608545703125,0.5993913720703125
-0.09595990234375,0.0878145068359375,0.719571240234375
-0.26907880859375,0.08070688720703124,0.9913891015625
-0.32451576171875,0.09737302978515625,1.2624696630859376
-0.34104958984375,0.026051743164062502,1.3907598291015626
-0.34445361328125,-0.13791368896484374,1.3632339697265625
-0.366579765625,-0.13399224365234375,1.2659103955078126
-0.3262177734375,-0.08203309326171875,1.14179826171875
-0.36682291015625,-0.08619962890625,1.08379734375
-0.407428046875,-0.04379900146484375,1.0174403613281249
-0.40280830078125,-0.02909358154296875,1.004660498046875
-0.2931501171875,-0.0866898095703125,0.975168505859375
-0.32791978515625,-0.15752091552734376,0.9351085498046875
-0.2450075,-0.1896277490234375,0.9090572900390625
-0.18786853515625002,-0.20702916259765625,0.9095488232421876
-0.40913005859375,-0.13129625,0.997779033203125
-0.47818310546875,-0.0602200537109375,1.0191607275390624
-0.41691068359375,-0.11291447509765624,0.9891772021484375
-0.506631015625,-0.02076051025390625,1.0289913916015625
-0.43441708984375,0.00472888427734375,0.895540126953125
-0.282938046875,-0.013652890625,0.793301220703125
-0.09109701171875,0.02678701416015625,0.8834975634765625
-0.3252451953125,0.055462583007812497,1.137374462890625
-0.401592578125,0.097127939453125,1.3735561669921874
-0.44535859375,0.10717664306640624,1.392971728515625
-0.60218681640625,0.06649164794921875,1.2646815625
-0.51076447265625,0.00276816162109375,1.126560732421875
-0.438550546875,-0.018554697265625,0.951574912109375
-0.36730919921875,0.0123266845703125,0.80165728515625
-0.31819400390625,-0.013162709960937501,0.725469638671875
-0.2318776953125,-0.10556176513671875,0.81935248046875
-0.46748474609375,-0.091101435546875,0.9439561474609375
-0.40134943359374997,-0.2214894921875,0.9980247998046875
-0.3835998828125,-0.12712971435546874,1.0112961962890625
-0.43004048828125,-0.1886473876953125,1.0147369287109376
-0.4156949609375,-0.03987755615234375,1.0550426513671876
-0.46942990234375,-0.18521612304687501,1.069542880859375
-0.4721044921875,-0.051886982421875,1.17915478515625
-0.51805880859375,-0.06977857666015624,1.150645859375
-0.4011062890625,-0.0033590966796874996,1.098051806640625
-0.34737134765625,0.034384814453125,0.9936010009765625
-0.26907880859375,-0.06659240234375,0.9616513427734374
-0.30992708984375,-0.07835673828125,1.0189149609375
-0.32013916015625,-0.0308092138671875,1.11525546875
-0.48061455078125,-0.042328459472656246,1.1715360205078125
-0.46286499999999997,0.03806116943359375,1.1892312158203124
-0.5110076171875,-0.042083369140625,1.0206353271484374
-0.40645546875,-0.05654369873046875,0.9065996240234375
-0.39891798828125,0.01257177490234375,0.844420673828125
-0.40329458984375,-0.08497417724609375,0.8156659814453124
-0.224583359375,-0.063651318359375,0.8667854345703125
-0.3019033203125,-0.17467723876953126,1.0388220556640624
-0.376305546875,-0.12663953369140624,1.3138348828125
-0.5722800390625,-0.09134652587890625,1.220935107421875
-0.3592854296875,-0.05262225341796875,1.0663479150390625
-0.52316484375,-0.029338671875,0.9763973388671875
-0.51611365234375,0.030463369140625002,0.9599309765625
-0.47088876953125003,0.02874773681640625,0.849336005859375
-0.46019041015625,-0.05458297607421875,0.7778179248046875
-0.38870591796875,0.09296140380859375,0.662553388671875
-0.352963671875,-0.09869923583984375,0.5664586474609374
-0.2552195703125,-0.100905048828125,0.6505108251953124
-0.4127772265625,0.017718671875,0.8854636962890625
-0.4808576953125,-0.026397587890625,1.0412797216796874
-0.4886383203125,0.04933532470703125,1.1695698876953124
-0.50881931640625,-0.08938580322265625,1.1032129052734374
-0.4555706640625,-0.00311400634765625,0.9994993994140625
-0.38141158203125003,-0.10752248779296875,0.8309035107421875
-0.36974064453125,-0.06144550537109375,0.787402822265625
-0.3427516015625,-0.01046671630859375,0.7905977880859375
-0.46651216796875,-0.0999246875,0.8898874951171875
-0.4254207421875,-0.1562954638671875,1.0019570654296874
-0.44851947265625003,-0.12075736572265625,1.134916796875
-0.48839517578125,-0.10972830078125,1.013508095703125
-0.41010263671875,-0.05556333740234375,0.9257694189453125
-0.40767119140625,0.033404453125,0.8962774267578125
-0.45435494140625,0.0005623486328125002,0.895540126953125
-0.439523125,0.0201695751953125,0.9385492822265625
-0.41302037109375,0.01306195556640625,0.941744248046875
-0.42566388671875,0.02041466552734375,0.8852179296875
-0.2717533984375,0.04051207275390625,0.85277673828125
-0.389921640625,-0.02860340087890625,0.8313950439453125
-0.4361191015625,-0.01830960693359375,0.9208540869140625
-0.45095091796875,-0.0857094482421875,0.9704989404296875
-0.48158712890625,-0.0229663232421875,1.0407881884765624
-0.4341739453125,-0.1062970361328125,1.0122792626953125
-0.42809533203125,-0.1102184814453125,0.884726396484375
-0.37338781249999997,-0.0631611376953125,0.730384970703125
-0.310170234375,-0.1161006494140625,0.6927826806640625
-0.370470078125,-0.01978014892578125,0.7296476708984375
-0.32451576171875,-0.03448556884765625,0.8623616357421875
-0.40232201171875,0.03144373046875,0.9773804052734375
-0.47283392578125,0.022620478515625,1.12017080078125
-0.4400094140625,0.09051050048828126,1.1346710302734375
-0.4575158203125,0.16624341308593749,1.06315294921875
-0.44292714843750003,0.16109651611328124,1.060695283203125
-0.49957982421875,-0.0016434643554687498,1.10640787109375
-0.4978778125,0.038306259765625,1.1533492919921875
-0.5134390625,-0.09967959716796874,0.953541044921875
-0.377278125,-0.03546593017578125,0.8117337158203125
-0.40864376953125,-0.02860340087890625,0.6873758154296875
-0.39210994140625,-0.068553125,0.680248583984375
-0.3923530859375,-0.03203466552734375,0.7502920654296875
-0.46748474609375,-0.12467881103515625,0.823776279296875
-0.36633662109375,-0.19845100097656249,0.954524111328125
-0.5336200585937501,-0.1994313623046875,1.0464408203125
-0.49593265625,-0.12860025634765626,0.9906518017578125
-0.36828177734375,-0.05654369873046875,0.9233117529296875
-0.5187882421875,-0.07615092529296875,0.892590927734375
-0.37922328125,0.01649322021484375,0.8948028271484375
-0.39016478515624997,0.026051743164062502,0.9665666748046875
-0.45921783203125,0.011346323242187501,1.1093570703125
-0.442440859375,0.04394333740234375,1.182595517578125
-0.44924890625,0.0005623486328125002,1.1174673681640626
-0.50371328125,-0.00850599365234375,1.00613509765625
-0.397702265625,0.02776737548828125,0.95108337890625
-0.411318359375,0.02727719482421875,0.87243806640625
-0.40961634765625,-0.00360418701171875,0.8144371484375
-0.39940427734375,0.06502110595703126,0.9709904736328125
-0.38530189453125,-0.0288484912109375,1.06806828125
-0.48547744140625,-0.03644629150390625,1.0914161083984375
-0.33108066406250003,-0.0043394580078125,1.0014655322265624
-0.44171142578125,-0.029338671875,0.7881401220703125
-0.38676076171875,-0.010221625976562499,0.7281730712890625
-0.37654869140625,-0.004829638671875,0.742181767578125
-0.4045103125,0.00865032958984375,0.9193794873046874
-0.53702408203125,-0.004829638671875,1.0614325830078124
-0.42590703125,-0.036201201171875,1.0579918505859376
-0.4536255078125,0.01257177490234375,1.0034316650390624
-0.41253408203124997,-0.04379900146484375,0.9085657568359375
-0.29339326171875,-0.09820905517578125,0.8235305126953125
-0.315033125,-0.06683749267578125,0.8544971044921875
-0.39113736328125,-0.11634573974609375,0.9120064892578125
-0.43490337890624997,-0.200901904296875,0.8766160986328125
-0.3884627734375,-0.07615092529296875,0.86457353515625
-0.42201671875,-0.08791526123046875,0.86359046875
-0.403537734375,-0.1631579931640625,0.9105318896484375
-0.3553951171875,-0.01169216796875,1.0461950537109375
-0.3515048046875,-0.012427438964843749,1.0692971142578125
-0.3164919921875,-0.08497417724609375,1.079373544921875
-0.316005703125,0.06011929931640625,1.1132893359375
-0.40256515625,0.0294830078125,1.1213996337890624
-0.44025255859375,0.01159141357421875,1.1538408251953125
-0.41253408203124997,0.14516564453125,1.220935107421875
-0.44657431640625,0.10129447509765625,1.1032129052734374
-0.31697828125,0.0280124658203125,0.954524111328125
-0.34883021484375,0.0451687890625,0.86359046875
-0.28464005859375,-0.02860340087890625,0.8048522509765625
-0.191515703125,-0.1935491943359375,0.8771076318359375
-0.4623787109375,-0.06732767333984375,0.935845849609375
-0.32597462890625,-0.02958376220703125,0.91077765625
-0.38432931640625,-0.1484525732421875,0.9228202197265625
-0.2941226953125,0.0897752294921875,1.0240760595703124
-0.31041337890625,0.028502646484374998,0.918150654296875
-0.3213548828125,0.01992448486328125,0.8864467626953125
-0.16404037109375,0.011346323242187501,0.8800568310546875
-0.20099833984375,-0.1744321484375,0.865065068359375
-0.2114535546875,-0.15703073486328126,1.005643564453125
-0.31770771484375,-0.076396015625,0.95698177734375
-0.3267040625,-0.17663796142578125,0.810013349609375
-0.29509527343749997,-0.04526954345703125,0.8340984765625
-0.12951384765625001,-0.06634731201171876,0.9759058056640625
-0.362689453125,0.0515411376953125,1.2015195458984376
-0.4030514453125,0.12090170166015625,1.229782705078125
-0.26761994140625,0.05374695068359375,1.0447204541015624
-0.34007701171875,0.1436951025390625,0.94125271484375
-0.28318119140625,0.16746886474609374,0.85867513671875
-0.18835482421875,-0.06928839599609375,0.71907970703125
-0.19248828125,0.13119549560546875,0.7203085400390625
-0.1346198828125,0.1240878759765625,0.80755568359375
-0.27491427734375,-0.05090662109375,1.0009739990234374
-0.36001486328125,0.04345315673828125,1.19291771484375
-0.411318359375,-0.10752248779296875,1.1508916259765625
-0.4536255078125,-0.07320984130859375,1.051847685546875
-0.37606240234375,-0.016593974609375,0.83901380859375
-0.28609892578125,-0.10311086181640625,0.7357918359375
-0.2999581640625,-0.1347275146484375,0.7812586572265625
-0.29728357421875,-0.126394443359375,0.868014267578125
-0.24573693359375,-0.1582561865234375,0.8918536279296875
-0.26154132812499997,-0.09673851318359375,0.8520394384765625
-0.236254296875,-0.09771887451171875,0.76921609375
-0.0159653515625,-0.08742508056640624,0.899472392578125
-0.36779548828124997,-0.0435539111328125,1.1184504345703126
-0.48304599609375,0.03561026611328125,1.1317218310546875
-0.18300564453125,-0.05482806640625,1.131476064453125
-0.47332021484375,0.126538779296875,1.100017939453125
-0.29776986328125,0.21109494384765626,1.05528841796875
-0.3116291015625,0.028502646484374998,1.1066536376953124
-0.403537734375,0.08634396484375,1.0149826953125
-0.19273142578125,-0.01830960693359375,0.78592822265625
-0.1637972265625,-0.0631611376953125,0.7817501904296875
-0.32086859375,-0.11977700439453125,0.8159117480468749
-0.24865466796875,-0.020515419921875,0.8220559130859375
-0.30944080078125,-0.09869923583984375,0.8830060302734375
-0.088422421875,-0.022476142578125,1.0009739990234374
-0.1599069140625,0.08462833251953125,1.178663251953125
-0.3213548828125,0.06060947998046875,1.2280623388671874
-0.40669861328125,0.1309504052734375,1.064136015625
-0.31235853515625,0.0922261328125,1.024321826171875
-0.27296912109375,0.0946770361328125,1.0692971142578125
-0.44730375,-0.03252484619140625,1.062661416015625
-0.28561263671875,-0.13203152099609375,0.9257694189453125
-0.20415921875,-0.1190417333984375,0.725469638671875
-0.221665625,-0.13889405029296875,0.6291291308593749
-0.244034921875,-0.20751934326171875,0.639451328125
-0.2172890234375,-0.09134652587890625,0.6264256982421875
-0.174981875,-0.09404251953125001,0.7788009912109375
-0.15480087890625,-0.1308060693359375,1.0147369287109376
-0.376305546875,-0.068553125,1.2312573046875
-0.19613544921875,0.0010525292968750002,1.173747919921875
-0.29874244140625,0.00276816162109375,1.105916337890625
-0.4079143359375,0.0843832421875,1.05528841796875
-0.18543708984375,0.03708080810546875,1.1110774365234375
-0.35977171875,-0.0043394580078125,1.1636714892578124
-0.24938410156250002,0.009140510253906251,1.167849521484375
-0.269321953125,-0.01879978759765625,1.057746083984375
-0.21899103515625,-0.00409436767578125,0.986965302734375
-0.2357680078125,-0.01978014892578125,0.8262339453125
-0.15917748046875,-0.0200252392578125,0.769707626953125
-0.1900568359375,0.01649322021484375,0.8677685009765626
-0.210967265625,-0.1268846240234375,1.0461950537109375
-0.34542619140624997,-0.0006631030273437505,1.1582646240234376
-0.31989601562500003,0.00766996826171875,1.0530765185546875
-0.23114826171875,-0.0719843896484375,0.8618701025390625
-0.25108611328125,-0.014633251953124999,0.786419755859375
-0.18884111328125,-0.1543347412109375,0.7984623193359375
-0.30141703125,0.04492369873046875,0.9614055761718749
-0.3038484765625,-0.08938580322265625,1.022355693359375
-0.2202067578125,-0.12173772705078124,1.12410306640625
-0.28853037109375,-0.0016434643554687498,1.1651460888671874
-0.26421591796875,-0.015368522949218751,1.09067880859375
-0.14653396484375,0.019679394531249998,1.056271484375
-0.31089966796875,0.0642858349609375,1.035135556640625
-0.3038484765625,0.07923634521484375,0.9972875
-0.19175884765625,-0.00752563232421875,1.0299744580078125
-0.226528515625,0.069677822265625,1.1523662255859375
-0.3291355078125,0.0378160791015625,1.00515203125
-0.22701480468750002,-0.0739451123046875,0.9360916162109375
-0.24938410156250002,0.07286399658203124,0.9572275439453125
-0.37460353515625,-0.06879821533203125,0.952557978515625
-0.183735078125,-0.0425735498046875,1.078390478515625
-0.30166017578125,0.053992041015625,1.080356611328125
-0.206104375,0.00816014892578125,1.047915419921875
-0.27005138671875,-0.083258544921875,0.9945840673828125
-0.2600824609375,-0.1013952294921875,0.9503460791015625
-0.20634751953125,-0.07713128662109375,0.9518206787109375
-0.30846822265625,0.03928662109375,0.9188879541015624
-0.2931501171875,-0.0504164404296875,0.9616513427734374
-0.32889236328125,-0.093062158203125,0.91077765625
-0.15747546875,0.0123266845703125,0.85867513671875
-0.3583128515625,-0.16095218017578125,0.8608870361328125
-0.21655958984375,-0.04134809814453125,0.879811064453125
-0.197351171875,0.02139502685546875,0.806081083984375
-0.26324333984375,-0.177373232421875,0.9007012255859375
-0.28901666015625,0.026051743164062502,0.9616513427734374
-0.1530988671875,-0.15948163818359376,0.8422087744140625
-0.1881116796875,-0.17761832275390624,0.9095488232421876
-0.1569891796875,0.0020328906249999995,0.8761245654296875
-0.13583560546875,-0.08448399658203125,0.902421591796875
-0.25838044921875,0.06845237060546874,1.0447204541015624
-0.40378087890625003,0.05276658935546875,1.0481611865234375
-0.22968939453125,-0.02076051025390625,1.051847685546875
-0.3578265625,0.10202974609375,1.025304892578125
-0.38773333984375,0.15668489013671874,0.8726838330078125
-0.2435486328125,-0.00948635498046875,0.79969115234375
-0.1842213671875,0.0035034326171875,0.7960046533203124
-0.37217208984375,0.05227640869140625,0.810013349609375
-0.3223274609375,-0.0371815625,0.7763433251953125
-0.25862359375,-0.013407800292968751,0.7689703271484375
-0.30895451171875,0.1471263671875,0.8365561425781249
-0.39210994140625,0.0123266845703125,1.0019570654296874
-0.4254207421875,0.0878145068359375,1.103950205078125
-0.39405509765625,0.07874616455078125,1.0162115283203126
-0.5061447265625,0.0348749951171875,0.903404658203125
-0.19273142578125,-0.00581,0.908319990234375
-0.415208671875,-0.02149578125,1.02972869140625
-0.50395642578125,0.06845237060546874,1.061678349609375
-0.35272052734375,7.216796875000007e-05,0.834590009765625
-0.3067662109375,-0.0964934228515625,0.790352021484375
-0.28172232421875,-0.07026875732421875,1.00416896484375
-0.39065107421875,-0.02860340087890625,1.10640787109375
-0.4040240234375,-0.0023787353515625003,1.091661875
-0.28512634765625,-0.02076051025390625,0.888658662109375
-0.3427516015625,-0.0612004150390625,0.7773263916015625
-0.29387955078125,0.0319339111328125,0.8557259375
-0.33472783203125,-0.060710234375,0.997779033203125
-0.35126166015625,0.0686974609375,1.1626884228515626
-0.38457246093749997,0.061834931640625,1.02088109375
-0.33424154296874997,-0.1386489599609375,0.783470556640625
-0.18835482421875,0.0069346972656249995,0.8023945849609375
-0.29096181640625,0.015022678222656249,0.840488408203125
-0.12465095703125,-0.0043394580078125,0.9891772021484375
-0.36536404296875,0.03119864013671875,1.1037044384765624
-0.26956509765625,0.1314405859375,1.1666206884765624
-0.41642439453125,-0.0670825830078125,0.938795048828125
-0.26640421875,-0.06242586669921875,0.7168678076171875
-0.2357680078125,-0.042083369140625,0.6254426318359375
-0.30068759765624997,-0.13105115966796876,0.759876962890625
-0.31697828125,-0.1327667919921875,0.8918536279296875
-0.423961875,-0.0097314453125,1.0398051220703124
-0.584437265625,-0.05213207275390625,1.0801108447265624
-0.3816547265625,-0.0175743359375,1.007609697265625
-0.426879609375,0.02139502685546875,0.9385492822265625
-0.36220316406249997,7.216796875000007e-05,0.9174133544921875
-0.26810623046875,-0.0729647509765625,0.8918536279296875
-0.370470078125,-0.10801266845703125,0.937811982421875
-0.3874901953125,-0.08056255126953125,0.7753602587890625
-0.29752671875000003,-0.046740085449218746,0.6610787890625
-0.39405509765625,-0.0219859619140625,0.6868842822265625
-0.34348103515625,0.05815857666015625,0.7635634619140625
-0.33861814453125,0.07188363525390624,0.94125271484375
-0.44365658203125,0.0035034326171875,1.0810939111328124
-0.3155194140625,-0.0028689160156250004,1.1720275537109375
-0.4079143359375,0.1392834765625,1.245511767578125
-0.40572603515625,0.0535018603515625,1.1565442578125
-0.4633512890625,0.13854820556640626,1.1769428857421875
-0.46942990234375,0.1231075146484375,1.038084755859375
-0.28707150390625,-0.07811164794921875,0.8387680419921875
-0.154557734375,0.08266760986328126,0.9385492822265625
-0.3252451953125,-0.006790361328125,1.0358728564453126
-0.26859251953125,0.13217585693359374,1.1872650830078124
-0.54650671875,0.057668395996093746,1.068559814453125
-0.26907880859375,0.11943115966796874,1.115747001953125
-0.28415376953125,0.01992448486328125,1.1892312158203124
-0.5635268359375,0.05570767333984375,1.287783623046875
-0.3777644140625,0.09247122314453125,1.24993556640625
-0.52729830078125,-0.03595611083984375,0.978117705078125
-0.3106565234375,-0.0768861962890625,0.7630719287109375
-0.28464005859375,-0.14698203125,0.6421547607421875
-0.2659179296875,-0.0808076416015625,0.7242408056640625
-0.32694720703125,-0.1587463671875,0.7380037353515625
-0.4526529296875,-0.106787216796875,0.8191067138671875
-0.46286499999999997,-0.07664110595703125,0.8510563720703125
-0.2970404296875,-0.08987598388671875,0.906353857421875
-0.39210994140625,-0.06267095703125,0.988931435546875
-0.47186134765625,0.10080429443359375,1.076424345703125
-0.450221484375,-0.04281864013671875,1.058729150390625
-0.4978778125,0.00816014892578125,1.0122792626953125
-0.38481560546875,-0.008996174316406251,0.7960046533203124
-0.32864921874999997,-0.0651218603515625,0.6165950341796875
-0.16404037109375,-0.02419177490234375,0.671400986328125
-0.2182616015625,0.010611052246093749,0.8889044287109376
-0.44171142578125,0.18438009765625,1.139340595703125
-0.34250845703125,0.0427178857421875,1.24600330078125
-0.43174250000000003,0.15031254150390624,1.2676307617187499
-0.43247193359375,0.21795747314453126,1.1046875048828124
-0.30871136718750003,0.13511694091796875,1.0383305224609374
-0.46553958984375,0.0838930615234375,0.9665666748046875
-0.38335673828125,0.08462833251953125,0.823776279296875
-0.2707808203125,0.07629526123046874,0.6878673486328125
-0.36779548828124997,-0.03522083984375,0.5772723779296876
-0.2182616015625,-0.13717841796875,0.5148476611328126
-0.26470220703125,-0.06683749267578125,0.5866115087890625
-0.31746457031249997,0.06747200927734374,0.7271900048828125
-0.36439146484375,-0.0562986083984375,0.8864467626953125
-0.43782111328125,0.0329142724609375,1.0117877294921875
-0.3767918359375,0.11796061767578125,1.0189149609375
-0.3748466796875,0.1387932958984375,1.0240760595703124
-0.31478998046875,0.10864718505859375,1.0555341845703126
-0.41885583984375,0.04198261474609375,1.104933271484375
-0.40815748046875,0.0319339111328125,1.1032129052734374
-0.333512109375,-0.14036459228515624,0.9913891015625
-0.325731484375,0.00472888427734375,0.9011927587890625
-0.35199109375,-0.14330567626953125,0.865065068359375
-0.42469130859375,0.0387964404296875,1.031203291015625
-0.3155194140625,0.07629526123046874,1.1228742333984374
-0.42931105468749997,-0.1337471533203125,1.21061291015625
-0.46286499999999997,0.1103628173828125,1.3475049072265626
-0.4448723046875,-0.0053198193359375,1.1368829296875
-0.4351465234375,0.07041309326171875,0.91372685546875
-0.459947265625,0.028502646484374998,0.731368037109375
-0.3038484765625,-0.046004814453125,0.5816961767578125
-0.21266927734375,-0.04085791748046875,0.633061396484375
-0.35904228515625003,0.13070531494140625,0.7861739892578125
-0.4108320703125,0.15031254150390624,0.766758427734375
-0.31381740234375,0.07825598388671876,0.7660211279296875
-0.473563359375,0.0843832421875,0.897506259765625
-0.35272052734375,0.10423555908203125,0.9095488232421876
-0.31478998046875,0.04394333740234375,1.0653648486328124
-0.57981751953125,0.189281904296875,1.2103671435546874
-0.580546953125,0.25766210693359376,1.1990618798828125
-0.4915560546875,-0.05115171142578125,0.8662939013671875
-0.2707808203125,0.04884514404296875,0.7193254736328125
-0.2513292578125,-0.0371815625,0.714164375
-0.3738741015625,-0.1509034765625,0.8844806298828125
-0.2736985546875,0.1289896826171875,1.0216183935546874
-0.38311359375,-0.008751083984375,0.9609140429687499
-0.3111428125,0.03659062744140625,0.9518206787109375
-0.45046462890625,-0.00801581298828125,0.8078014501953125
-0.3651208984375,-0.1626678125,0.86850580078125
-0.32402947265625,0.026296833496093748,1.0063808642578125
-0.48304599609375,-0.1170810107421875,0.849336005859375
-0.3164919921875,0.0530116796875,0.9419900146484375
-0.47040248046875,-0.147962392578125,0.95108337890625
-0.3612305859375,-0.1102184814453125,0.84687833984375
-0.1735230078125,-0.046740085449218746,0.7011387451171875
-0.29874244140625,-0.042083369140625,0.763809228515625
-0.18592337890625,0.11207844970703125,0.9537868115234375
-0.28974609375,0.06060947998046875,1.190460048828125
-0.39989056640625,0.15717507080078125,1.3216994140625
-0.520247109375,0.12947986328125,1.136391396484375
-0.4137498046875,-0.048455717773437504,0.903404658203125
-0.22288134765625,-0.0553182470703125,0.8205813134765625
-0.47721052734375,0.089285048828125,0.81148794921875
-0.33983386718749997,0.01600303955078125,0.81935248046875
-0.31916658203125,-0.023456503906250002,0.8655566015625
-0.39089421875,0.06306038330078124,0.9646005419921875
-0.28950294921874997,-0.0817880029296875,1.087238076171875
-0.3067662109375,0.04712951171875,1.268122294921875
-0.3072525,0.19491898193359375,1.439175849609375
-0.54650671875,0.10815700439453126,1.3976412939453124
-0.3777644140625,0.0294830078125,1.3519287060546874
-0.46310814453125,-0.224430576171875,1.0171945947265626
-0.36098744140625,0.08805959716796875,0.7994453857421875
-0.15917748046875,-0.0229663232421875,0.5610517822265625
-0.28464005859375,0.00178780029296875,0.66796025390625
-0.4434134375,0.10864718505859375,0.830657744140625
-0.53313376953125,-0.046004814453125,1.07298361328125
-0.48742259765625,0.0848734228515625,1.264190029296875
-0.39478453125,-0.1033559521484375,0.9886856689453125
-0.28609892578125,-0.004829638671875,0.9552614111328125
-0.3651208984375,0.0162481298828125,0.931913583984375
-0.33035123046875,-0.2376654541015625,0.837539208984375
-0.2231244921875,0.11379408203125,0.8294289111328125
-0.26810623046875,0.10178465576171875,0.79969115234375
-0.37022693359375003,-0.09526797119140624,0.87931953125
-0.39356880859375,0.0294830078125,0.99630443359375
-0.50492900390625,0.165753232421875,0.9601767431640625
-0.40280830078125,0.15668489013671874,1.0624156494140624
-0.38335673828125,0.17335103271484376,1.0565172509765626
-0.33035123046875,-0.0729647509765625,1.02088109375
-0.4234755859375,0.1005592041015625,1.031203291015625
-0.31430369140625003,-0.1141399267578125,0.879811064453125
-0.3359435546875,-0.01193725830078125,0.817877880859375
-0.3301080859375,-0.08546435791015625,0.7790467578125
-0.1530988671875,-0.2082546142578125,0.9164302880859375
-0.3213548828125,-0.02272123291015625,1.14376439453125
-0.42225986328125,-0.04526954345703125,1.1744852197265625
-0.129270703125,-0.20408807861328124,1.118696201171875
-0.37314466796875,0.03119864013671875,1.1415524951171876
-0.40523974609375,-0.03889719482421875,1.0791277783203126
-0.3096839453125,-0.07468038330078125,1.073475146484375
-0.5800606640625,0.03757098876953125,0.9188879541015624
-0.5431026953125,0.0515411376953125,0.6932742138671875
-0.222638203125,-0.170510703125,0.6401886279296874
-0.19029998046875,-0.13987441162109376,0.7109694091796875
-0.146777109375,-0.0082609033203125,0.709740576171875
-0.2649453515625,-0.10065995849609374,0.7905977880859375
-0.39113736328125,-0.01389798095703125,0.9980247998046875
-0.37654869140625,0.021885207519531248,1.145238994140625
-0.35320681640625,-0.07566074462890625,1.268613828125
-0.456056953125,0.0505607763671875,1.2595204638671875
-0.304334765625,0.0201695751953125,1.005643564453125
-0.39210994140625,-0.0033590966796874996,0.80755568359375
-0.212912421875,-0.0337502978515625,0.7306307373046875
-0.26640421875,0.07727562255859374,0.7987080859375
-0.33108066406250003,0.05570767333984375,0.9582106103515625
-0.3583128515625,0.01894412353515625,1.1250861328125
-0.40645546875,0.01796376220703125,1.2644357958984376
-0.4127772265625,-0.10360104248046875,1.1607222900390626
-0.22944625,-0.10703230712890625,0.93535431640625
-0.33375525390625,-0.13546278564453124,0.7498005322265625
-0.304334765625,-0.1739419677734375,0.6711552197265624
-0.31722142578125,-0.067572763671875,0.642892060546875
-0.3096839453125,-0.1013952294921875,0.623230732421875
-0.22774423828125,-0.14477621826171874,0.6598499560546875
-0.29485212890625,-0.05115171142578125,0.7630719287109375
-0.3184371484375,-0.10360104248046875,0.816894814453125
-0.44146828125,-0.0646316796875,0.9075826904296875
-0.41982841796875,0.057913486328125,0.941744248046875
-0.37703498046875,-0.01634888427734375,0.8928366943359375
-0.3349709765625,0.00963069091796875,0.95698177734375
-0.26761994140625,-0.0661022216796875,0.934862783203125
-0.17862904296875,-0.09526797119140624,0.9021758251953125
-0.24865466796875,-0.09796396484375,0.8599039697265625
-0.392839375,-0.03546593017578125,0.882760263671875
-0.333512109375,0.0280124658203125,0.988931435546875
-0.38287044921875,-0.01953505859375,1.0452119873046875
-0.31041337890625,0.03462990478515625,1.066593681640625
-0.23406599609375,-0.012672529296875,1.06315294921875
-0.30944080078125,-0.00507472900390625,1.1656376220703124
-0.55404419921875,0.0682072802734375,1.1233657666015624
-0.489124609375,-0.00948635498046875,0.9717277734375
-0.3194097265625,0.04737460205078125,0.8279543115234375
-0.352963671875,-0.0249270458984375,0.702859111328125
-0.17303671874999998,-0.10164031982421876,0.729401904296875
-0.27418484375,-0.22369530517578126,0.6996641455078125
-0.20051205078125,-0.06242586669921875,0.806081083984375
-0.397702265625,-0.09012107421875,0.9464138134765625
-0.3446967578125,-0.181294677734375,1.0034316650390624
-0.333512109375,-0.09796396484375,1.0093300634765625
-0.43976626953125,-0.18938265869140625,0.9287186181640625
-0.4254207421875,-0.26339993896484376,0.7350545361328125
-0.29193439453125003,-0.26879192626953125,0.59128107421875
-0.30652306640625,-0.2209993115234375,0.5384412548828125
-0.339347578125,-0.16732452880859375,0.5472888525390625
-0.32475890625,-0.023456503906250002,0.7360376025390625
-0.25862359375,-0.013652890625,0.9557529443359375
-0.33424154296874997,0.14982236083984374,1.18603625
-0.40183572265625,0.059874208984374996,1.221918173828125
-0.2698082421875,0.01845394287109375,1.221918173828125
-0.24622322265625,0.020659755859375,1.12803533203125
-0.33424154296874997,-0.0494360791015625,1.0228472265625
-0.1866528125,0.0294830078125,1.00613509765625
-0.4896108984375,-0.1298257080078125,0.9992536328125
-0.47526537109375,0.13217585693359374,1.0661021484375
-0.333512109375,0.0329142724609375,0.961897109375
-0.38676076171875,-0.0646316796875,1.0393135888671874
-0.40378087890625003,0.1417343798828125,1.0525849853515625
-0.214857578125,0.08560869384765625,0.9972875
-0.23795630859375,0.07727562255859374,1.0516019189453125
-0.3709563671875,-0.1273748046875,1.009084296875
-0.2921775390625,-0.110708662109375,0.9385492822265625
-0.27929087890625,-0.05458297607421875,0.9046334912109375
-0.2357680078125,-0.0837487255859375,1.09657720703125
-0.49860724609375,-0.02174087158203125,1.1400778955078126
-0.35174794921875,-0.16781470947265625,1.030220224609375
-0.15358515625,0.13070531494140625,1.028745625
-0.3651208984375,-0.193059013671875,1.1789090185546875
-0.31527626953125,0.0069346972656249995,1.2295369384765624
-0.23357970703125,0.09296140380859375,1.052830751953125
-0.407428046875,-0.00997653564453125,1.163917255859375
-0.393811953125,-0.159726728515625,1.028745625
-0.26810623046875,-0.169530341796875,0.8284458447265625
-0.14215736328125,-0.042328459472656246,0.747097099609375
-0.27540056640625,-0.12149263671875,0.8328696435546875
-0.24865466796875,-0.0670825830078125,1.0098215966796875
-0.31478998046875,0.026541923828125,1.14376439453125
-0.3942982421875,0.1211467919921875,1.1548238916015625
-0.3865176171875,0.1142842626953125,1.12803533203125
-0.31527626953125,-0.0063001806640625,1.0378389892578126
-0.28950294921874997,0.0848734228515625,1.1567900244140625
-0.25838044921875,-0.077376376953125,1.17718865234375
-0.3904079296875,0.0338946337890625,1.3059703515625
-0.32062544921875,0.03144373046875,1.3652001025390625
-0.35855599609375,0.11747043701171875,1.254359365234375
-0.327676640625,0.14246965087890626,1.1725190869140625
-0.26956509765625,0.1471263671875,1.1636714892578124
-0.4001337109375,0.15962597412109375,1.09264494140625
-0.37071322265625,0.0037485229492187503,1.096085673828125
-0.298499296875,0.05080586669921875,1.048406953125
-0.2902323828125,-0.046004814453125,0.8889044287109376
-0.34591248046875,-0.12909043701171874,0.88226873046875
-0.36341888671875,-0.1053166748046875,0.7915808544921875
-0.32646091796875,-0.1337471533203125,0.8498275390625
-0.33983386718749997,-0.0881603515625,0.951574912109375
-0.36147373046875,-0.1621776318359375,0.8146829150390625
-0.19832375,-0.00581,0.7969877197265625
-0.41593810546875,-0.18938265869140625,0.7790467578125
-0.3164919921875,-0.06977857666015624,0.824759345703125
-0.23698373046875,0.0103659619140625,0.8127167822265625
-0.38676076171875,0.04296297607421875,0.96681244140625
-0.3952708203125,0.018699033203125,0.9297016845703125
-0.2834243359375,-0.05458297607421875,0.7453767333984375
-0.24695265625,0.0985984814453125,0.8569547705078124
-0.35661083984374997,0.07580508056640625,0.9272440185546875
-0.15528716796875,0.03536517578125,1.035135556640625
-0.46213556640625,0.1770273876953125,1.246494833984375
-0.4759948046875,0.13119549560546875,1.3632339697265625
-0.3145468359375,0.030708459472656248,1.2039772119140626
-0.19321771484375,0.06894255126953125,1.219952041015625
-0.31430369140625003,0.03855135009765625,1.3347250439453124
-0.37898013671874997,0.0721287255859375,1.32464861328125
-0.3505322265625,0.05472731201171875,1.23813876953125
-0.44997833984375,-0.06879821533203125,1.1676037548828124
-0.40621232421875,-0.12149263671875,1.094119541015625
-0.2892598046875,-0.100905048828125,0.8997181591796874
-0.23649744140625,-0.17639287109375001,0.8078014501953125
-0.30166017578125,-0.1317864306640625,0.8245135791015625
-0.304334765625,-0.15359947021484374,0.8948028271484375
-0.36098744140625,-0.1337471533203125,0.9970417333984375
-0.483289140625,-0.0612004150390625,1.0909245751953125
-0.37581925781250003,-0.07664110595703125,0.9857364697265625
-0.28561263671875,-0.0371815625,0.8603955029296875
-0.31916658203125,-0.10311086181640625,0.8122252490234375
-0.24427806640625,-0.19207865234375,0.73775796875
-0.20634751953125,-0.0219859619140625,0.8294289111328125
-0.34202216796875,-0.01978014892578125,1.0078554638671875
-0.38627447265625,-0.0798272802734375,1.0427543212890624
-0.20245720703125,-0.052867343750000004,0.9591936767578125
-0.31381740234375,-0.0729647509765625,0.9360916162109375
