ax,ay,az
-0.4108320703125,-0.153844560546875,0.80067421875
-0.5683897265625,-0.0170841552734375,0.9493630126953125
-0.56911916015625,0.216732021484375,1.0865007763671874
-0.33861814453125,0.261828642578125,1.1032129052734374
-0.32597462890625,0.2485937646484375,1.0987891064453126
-0.42615017578125003,0.18707609130859376,1.0845346435546874
-0.45873154296875,0.1466361865234375,0.962388642578125
-0.54529099609375,0.06649164794921875,1.026287958984375
-0.57398205078125,-0.01683906494140625,0.8884128955078126
-0.321841171875,0.05497240234375,0.8515479052734375
-0.2309051171875,-0.1102184814453125,0.851793671875
-0.38457246093749997,-0.1170810107421875,0.9459222802734375
-0.40183572265625,-0.16070708984375,1.0029401318359374
-0.4759948046875,-0.05899460205078125,1.01006736328125
-0.63768591796875,-0.045024453125,0.9336339501953125
-0.5946493359375,-0.050661530761718754,0.6981895458984375
-0.2561921484375,0.11109808837890625,0.6352732958984375
-0.2668905078125,0.15300853515625001,0.577026611328125
-0.214857578125,0.11403917236328125,0.5866115087890625
-0.11857234375,-0.0180645166015625,0.7109694091796875
-0.34493990234375,-0.0553182470703125,0.9238032861328125
-0.55307162109375,-0.09404251953125001,1.02776255859375
-0.7006603515625,-0.1739419677734375,0.984016103515625
-0.5255962890625,-0.09575815185546875,0.8097675830078125
-0.40645546875,0.0299731884765625,0.7930554541015625
-0.20440236328125,0.03757098876953125,0.736283369140625
-0.18081734375,0.13462676025390624,0.8078014501953125
-0.36463460937500003,0.181439013671875,0.8734211328125
-0.4545980859375,0.0686974609375,0.9464138134765625
-0.32354318359375,0.05815857666015625,1.1368829296875
-0.417153828125,0.10570610107421875,1.16342572265625
-0.48815203125,0.0387964404296875,1.1400778955078126
-0.31746457031249997,0.07261890625,1.0751955126953125
-0.4507077734375,-0.0011532836914062497,0.9749227392578125
-0.53896923828125,-0.00801581298828125,0.8721922998046875
-0.545534140625,-0.03595611083984375,0.783470556640625
-0.53167490234375,0.014777587890624999,0.7741314257812499
-0.2882872265625,0.01183650390625,0.7404614013671875
-0.3019033203125,-0.05482806640625,0.89013326171875
-0.41034578125,-0.02615249755859375,0.8648193017578125
-0.392839375,-0.0332601171875,0.694994580078125
-0.35855599609375,-0.055808427734375,0.7630719287109375
-0.39867484375,-0.04428918212890625,0.7778179248046875
-0.29485212890625,-0.09428760986328125,0.80952181640625
-0.39600025390625,-0.095022880859375,0.86064126953125
-0.4866931640625,0.00276816162109375,0.8419630078125
-0.32986494140625,0.11845079833984375,0.844420673828125
-0.23114826171875,-0.0592396923828125,0.9419900146484375
-0.26567478515625,0.16256705810546876,1.21454517578125
-0.55453048828125,0.20423241455078125,1.402310859375
-0.5771429296875,0.04051207275390625,1.38363259765625
-0.633066171875,0.158890703125,1.217002841796875
-0.579574375,0.0789912548828125,1.005643564453125
-0.33667298828125003,-0.03914228515625,0.7468513330078125
-0.3033621875,0.03462990478515625,0.675333251953125
-0.20975154296875,0.14639109619140625,0.802148818359375
-0.35344996093750003,0.06281529296875,1.089204208984375
-0.644737109375,-0.13399224365234375,1.315801015625
-0.7079546875,0.049090234375,1.2998261865234375
-0.6004848046875,0.15300853515625001,1.0314490576171875
-0.54772244140625,-0.10580685546875,0.8603955029296875
-0.36220316406249997,-0.2641352099609375,0.6492819921874999
-0.26081189453125,-0.1111988427734375,0.5556449169921875
-0.09401474609375,-0.09526797119140624,0.5551533837890625
-0.03955037109375,-0.1141399267578125,0.659604189453125
-0.044170117187499996,-0.23104801513671874,1.0235845263671874
-0.65932578125,-0.10115013916015625,1.1907058154296875
-0.76168962890625,-0.010711806640625,1.28532595703125
-0.65762376953125,0.20521277587890624,1.23420650390625
-0.2075632421875,0.224574912109375,1.096085673828125
-0.10519939453125,0.16673359375,1.2354353369140625
-0.426879609375,0.09737302978515625,1.0914161083984375
-0.63209359375,-0.00948635498046875,0.8191067138671875
-0.58370783203125,-0.04968116943359375,0.7753602587890625
-0.444386015625,-0.08154291259765625,0.8358188427734374
-0.22725794921875,0.01649322021484375,1.0058893310546875
-0.25303126953125,0.153988896484375,1.11034013671875
-0.579574375,0.083402880859375,1.1848074169921876
-0.63719962890625,-0.10703230712890625,1.1435186279296874
-0.70819783203125,0.09688284912109375,1.1061621044921874
-0.5927041796875,0.16795904541015624,1.0840431103515624
-0.4079143359375,0.21501638916015625,1.097068740234375
-0.2931501171875,-0.04526954345703125,0.9891772021484375
-0.35612455078125,-0.12124754638671875,0.697943779296875
-0.30749564453125,-0.01978014892578125,0.541636220703125
-0.28512634765625,-0.10016977783203125,0.466923173828125
-0.3116291015625,-0.19526482666015624,0.4563552099609375
-0.3505322265625,-0.18252012939453124,0.67779091796875
-0.45775896484375,-0.068553125,0.9532952783203125
-0.65470603515625,-0.08595453857421875,1.0579918505859376
-0.66710640625,0.01698340087890625,1.0019570654296874
-0.48012826171875,0.04590406005859375,0.896523193359375
-0.4020788671875,0.03364954345703125,0.754961630859375
-0.13802390625,0.0721287255859375,0.8023945849609375
-0.1647698046875,0.09026541015625,0.90782845703125
-0.25789416015625,-0.00777072265625,0.963371708984375
-0.43782111328125,-0.06536695068359374,1.01989802734375
-0.42177357421875,-0.140119501953125,0.827708544921875
-0.4273658984375,0.04345315673828125,0.724486572265625
-0.31916658203125,0.1358522119140625,0.7271900048828125
-0.4098594921875,0.1289896826171875,0.8869382958984375
-0.4750222265625,-0.00458454833984375,1.06806828125
-0.626258125,0.00766996826171875,1.2162655419921875
-0.55842080078125,0.061834931640625,1.165883388671875
-0.514411640625,0.0387964404296875,0.9011927587890625
-0.30506419921875,0.00791505859375,0.762826162109375
-0.14458880859375,0.019434304199218752,0.7515208984375
-0.16404037109375,0.05864875732421875,0.7448852001953125
-0.32840607421875,-0.045024453125,0.7625803955078125
-0.42809533203125,-0.1116890234375,0.78592822265625
-0.516356796875,-0.05164189208984375,0.723503505859375
-0.5353220703125,-0.04428918212890625,0.67385865234375
-0.54067125,0.0368357177734375,0.694503046875
-0.526082578125,0.116735166015625,0.8402426416015625
-0.47404964843749997,0.2054578662109375,1.0228472265625
-0.34445361328125,0.0907555908203125,1.171781787109375
-0.43368765625,0.1593808837890625,1.252393232421875
-0.403537734375,-0.1033559521484375,0.9886856689453125
-0.27831830078124997,-0.1445311279296875,0.961897109375
-0.32840607421875,-0.05262225341796875,1.1017383056640626
-0.3500459375,-0.0308092138671875,1.18308705078125
-0.5606091015625,-0.1210024560546875,1.1381117626953126
-0.61142630859375,-0.09526797119140624,0.9166760546875
-0.6063202734375,-0.04477936279296875,0.7613515625
-0.3009307421875,0.03928662109375,0.703842177734375
-0.2678630859375,0.0451687890625,0.681231650390625
-0.3680386328125,-0.03595611083984375,0.7556989306640625
-0.44949205078125,-0.2151171435546875,0.6908165478515624
-0.40669861328125,-0.13129625,0.63846826171875
-0.3223274609375,-0.0053198193359375,0.6780366845703125
-0.2912049609375,0.011346323242187501,0.823776279296875
-0.5134390625,0.0387964404296875,0.8301662109375
-0.39356880859375,0.17090012939453125,0.85474287109375
-0.470645625,0.179478291015625,0.94715111328125
-0.4079143359375,0.22874144775390626,1.0329236572265625
-0.45240978515625,0.2412410546875,1.02383029296875
-0.408400625,0.181439013671875,1.04349162109375
-0.36536404296875,0.03561026611328125,1.0511103857421875
-0.39891798828125,-0.1053166748046875,1.2177401416015625
-0.4497351953125,-0.05115171142578125,1.293682021484375
-0.6617572265625,0.10399046875,1.1956211474609375
-0.5392123828125,-0.0072805419921875,0.98254150390625
-0.206104375,0.04100225341796875,1.047915419921875
-0.3320532421875,-0.03203466552734375,1.11820466796875
-0.40523974609375,-0.167569619140625,1.04545775390625
-0.56206796875,-0.04477936279296875,0.8117337158203125
-0.46359443359375,-0.12761989501953125,0.687130048828125
-0.3019033203125,-0.14134495361328125,0.8159117480468749
-0.2834243359375,-0.087179990234375,1.034152490234375
-0.6160460546875,-0.05311243408203125,1.090187275390625
-0.42031470703125,-0.1415900439453125,0.983033037109375
-0.362689453125,-0.14183513427734376,0.97074470703125
-0.66443181640625,-0.0033590966796874996,0.881777197265625
-0.44292714843750003,-0.0602200537109375,0.7665126611328125
-0.29387955078125,0.06257020263671875,0.9262609521484375
-0.26178447265625,0.0535018603515625,1.0461950537109375
-0.57106431640625,0.02776737548828125,1.1612138232421876
-0.601943671875,-0.00801581298828125,1.0211268603515624
-0.5615816796875,0.08217742919921875,0.7016302783203126
-0.397702265625,0.10962754638671875,0.704825244140625
-0.339347578125,0.17188049072265624,0.8358188427734374
-0.2795340234375,0.09100068115234375,1.0471781201171875
-0.35904228515625003,-0.0670825830078125,1.20864677734375
-0.6695378515625,-0.09796396484375,1.10837400390625
-0.50979189453125,-0.11095375244140625,0.7286646044921875
-0.374360390625,-0.037916833496093746,0.4605332421875
-0.24427806640625,-0.00948635498046875,0.45561791015625
-0.11346630859375,0.01747358154296875,0.4661858740234375
-0.22750109375,0.12482314697265626,0.8205813134765625
-0.3388612890625,0.04443351806640625,1.0353813232421876
-0.652517734375,-0.11046357177734376,1.2408422021484375
-0.59683763671875,-0.091101435546875,1.3381657763671875
-0.50881931640625,0.04100225341796875,1.0801108447265624
-0.3777644140625,0.02727719482421875,0.8284458447265625
-0.27588685546875,0.09345158447265625,0.79379275390625
-0.3811684375,0.09345158447265625,0.7534870312499999
-0.2022140625,-0.00948635498046875,0.7434106005859376
-0.27685943359375,-0.0033590966796874996,0.9523122119140625
-0.48037140625,0.09394176513671874,1.0820769775390624
-0.63185044921875,-0.10164031982421876,1.04545775390625
-0.61920693359375,-0.013407800292968751,0.98254150390625
-0.5664445703125,0.03806116943359375,0.7242408056640625
-0.30871136718750003,-0.044044091796875,0.621264599609375
-0.170118984375,0.022620478515625,0.675333251953125
-0.23357970703125,0.050070595703125,0.8004284521484375
-0.24768208984375,0.0201695751953125,0.9690243408203125
-0.52097654296875,0.04712951171875,1.1680952880859374
-0.524137421875,-0.0435539111328125,1.185544716796875
-0.54869501953125,0.06796218994140625,1.1705529541015625
-0.4643238671875,0.167713955078125,1.0516019189453125
-0.508576171875,0.08511851318359374,0.9363373828125
-0.54383212890625,0.0289928271484375,0.8569547705078124
-0.47283392578125,-0.09012107421875,0.6436293603515625
-0.18689595703125,-0.0337502978515625,0.54016162109375
-0.27199654296875,0.10913736572265625,0.613400068359375
-0.49982296875,0.057913486328125,0.7542243310546874
-0.43587595703125,0.0760501708984375,1.0584833837890626
-0.40694175781249997,0.1348718505859375,1.2899955224609374
-0.479398828125,0.13413657958984376,1.39837859375
-0.69506802734375,0.079481435546875,1.3258774462890626
-0.55161275390625,0.18168410400390625,1.106899404296875
-0.59489248046875,0.08462833251953125,0.8525309716796875
-0.26567478515625,0.07678544189453125,0.740215634765625
-0.1482359765625,0.0417375244140625,0.6908165478515624
-0.38238416015625,-0.0641414990234375,0.6352732958984375
-0.37606240234375,-0.0803174609375,0.7252238720703125
-0.46991619140625,-0.13693332763671875,0.8734211328125
-0.47477908203125,-0.17712814208984376,0.811979482421875
-0.27929087890625,-0.0612004150390625,0.867031201171875
-0.32451576171875,-0.0906112548828125,0.88620099609375
-0.38457246093749997,-0.1710008837890625,0.781012890625
-0.44292714843750003,-0.1004148681640625,0.7758517919921875
-0.24330548828125,-0.1602169091796875,0.7232577392578124
-0.24962724609375,0.067717099609375,0.8677685009765626
-0.26640421875,-0.13791368896484374,0.8972604931640625
-0.27783201171875,-0.2700173779296875,0.9990078662109375
-0.38967849609375,-0.03203466552734375,1.15949345703125
-0.58322154296875,0.1544790771484375,1.06118681640625
-0.5518558984375,0.1417343798828125,0.9709904736328125
-0.44365658203125,0.1436951025390625,0.9783634716796875
-0.18835482421875,0.1299700439453125,0.9414984814453125
-0.249870390625,0.189281904296875,1.0447204541015624
-0.5090624609375,0.14197947021484375,1.1174673681640626
-0.57933123046875,-0.061690595703125004,0.981066904296875
-0.5946493359375,-0.063651318359375,0.89799779296875
-0.44730375,0.1260485986328125,0.8918536279296875
-0.3835998828125,0.1471263671875,0.9169218212890625
-0.35758341796875,0.21575166015625,0.8984893261718749
-0.3991611328125,-0.0175743359375,0.8667854345703125
-0.308225078125,-0.11585555908203125,0.9365831494140625
-0.3466419140625,-0.0435539111328125,0.9953213671875
-0.51951767578125,0.1044806494140625,0.955507177734375
-0.49714837890625,0.03757098876953125,0.8220559130859375
-0.5751977734375,0.017718671875,0.8790737646484375
-0.5783586523437501,-0.14379585693359376,0.8495817724609375
-0.346155625,-0.27271337158203124,0.7080202099609375
-0.2411171875,-0.2692821069335937,0.5590856494140625
-0.14191421875,-0.05311243408203125,0.671400986328125
-0.1944334375,-0.11193411376953125,0.8982435595703124
-0.5129527734375,-0.175412509765625,1.10247560546875
-0.6870442578125,-0.18497103271484375,1.2251131396484376
-0.46213556640625,-0.046249904785156254,1.0245675927734375
-0.3578265625,0.16697868408203126,0.9835245703125
-0.16841697265625,0.10399046875,0.8761245654296875
-0.13534931640625,0.126538779296875,0.9820499707031249
-0.5051721484375,0.03364954345703125,1.1381117626953126
-0.6520314453125,-0.0494360791015625,1.0444746875
-0.58370783203125,0.0407571630859375,0.7670041943359375
-0.43441708984375,0.10717664306640624,0.7758517919921875
-0.36001486328125,-0.02174087158203125,0.8618701025390625
-0.37338781249999997,0.0008074389648437498,0.9756600390625
-0.526082578125,0.03561026611328125,1.083305810546875
-0.60170052734375,0.03561026611328125,1.066593681640625
-0.551369609375,0.04737460205078125,0.9321593505859375
-0.4108320703125,0.091245771484375,0.733334169921875
-0.20926525390625,0.09835339111328124,0.7817501904296875
-0.33424154296874997,0.05178622802734375,0.8144371484375
-0.489124609375,0.07261890625,0.81640328125
-0.358799140625,0.01845394287109375,0.8026403515625
-0.327676640625,0.00325834228515625,0.8989808593749999
-0.51149390625,0.0456589697265625,1.0751955126953125
-0.54577728515625,-0.0661022216796875,1.2084010107421874
-0.7006603515625,0.08266760986328126,1.2383845361328125
-0.5212196875,-0.0006631030273437505,1.0506188525390625
-0.22385392578125,-0.07124911865234375,0.9449392138671875
-0.218747890625,0.10325519775390625,1.048406953125
-0.28269490234375,-0.030319033203124998,1.05528841796875
-0.35855599609375,-0.15507001220703126,1.024321826171875
-0.341292734375,0.04002189208984375,0.9759058056640625
-0.42420501953125,0.0642858349609375,0.8771076318359375
-0.564013125,-0.05164189208984375,0.914709921875
-0.58273525390625,0.01747358154296875,0.929947451171875
-0.3656071875,0.0858537841796875,0.96877857421875
-0.32159802734375,0.06257020263671875,1.0786362451171876
-0.4409819921875,-0.006790361328125,1.0530765185546875
-0.3962433984375,0.03144373046875,0.9469053466796875
-0.4477900390625,0.05913893798828125,0.9306847509765624
-0.31697828125,0.03659062744140625,0.8576920703124999
-0.39162365234375,-0.02713285888671875,0.8567090039062499
-0.31576255859375,-0.00581,0.8520394384765625
-0.38092529296875,0.0564429443359375,0.796250419921875
-0.4108320703125,-0.011201987304687501,0.6677144873046875
-0.4127772265625,0.05031568603515625,0.714655908203125
-0.40815748046875,0.15227326416015624,0.77806369140625
-0.34834392578125,0.111833359375,0.8603955029296875
-0.4468174609375,-0.00801581298828125,1.132459130859375
-0.47404964843749997,0.20006587890625,1.2595204638671875
-0.442440859375,0.12555841796875,1.283851357421875
-0.52827087890625,0.07457962890625,1.1422897949218749
-0.51805880859375,-0.00752563232421875,0.8549886376953125
-0.3952708203125,-0.06267095703125,0.656654990234375
-0.401592578125,0.009140510253906251,0.6303579638671875
-0.2172890234375,0.0515411376953125,0.5644925146484375
-0.3495596484375,0.0446786083984375,0.610450869140625
-0.43441708984375,0.021885207519531248,0.788877421875
-0.58662556640625,-0.06928839599609375,0.8871840625
-0.64303509765625,-0.008996174316406251,0.9196252539062499
-0.44122513671875,0.040266982421875,0.8078014501953125
-0.32451576171875,-0.08423890625,0.82525087890625
-0.19224513671875,0.00276816162109375,0.8795652978515625
-0.2085358203125,0.08953013916015624,1.0481611865234375
-0.22920310546875,-0.05458297607421875,1.0953483740234375
-0.35806970703125,-0.05899460205078125,1.1666206884765624
-0.625285546875,-0.04526954345703125,1.112797802734375
-0.62941900390625,-0.010711806640625,0.9390408154296875
-0.4662690234375,-0.012672529296875,0.82918314453125
-0.45824525390625,0.046149150390625,0.752012431640625
-0.19516287109375,-0.00360418701171875,0.63846826171875
-0.27272597656249997,-0.0999246875,0.6254426318359375
-0.35393625,-0.11928682373046876,0.6662398876953125
-0.3476144921875,-0.144040947265625,0.7144101416015625
-0.345183046875,0.03119864013671875,0.8500733056640625
-0.53094546875,0.03144373046875,0.9677955078125
-0.4361191015625,0.0878145068359375,1.092153408203125
-0.5431026953125,0.16158669677734375,0.9827872705078124
-0.584437265625,0.10129447509765625,0.8579378369140624
-0.26810623046875,0.028257556152343752,0.8712092333984375
-0.42615017578125003,0.1682041357421875,0.9798380712890625
-0.5800606640625,0.04492369873046875,0.91569298828125
-0.49714837890625,-0.0210056005859375,0.7161305078125
-0.397702265625,0.093206494140625,0.7200627734375
-0.21193984375,0.0505607763671875,0.7515208984375
-0.20537494140625,0.07457962890625,0.9960586669921875
-0.5615816796875,0.09639266845703125,1.1951296142578125
-0.615559765625,0.089285048828125,1.1997991796875
-0.5547736328125,0.0593840283203125,1.0476696533203125
-0.50760359375,0.0809519775390625,0.899472392578125
-0.2056180859375,0.06355056396484375,0.95698177734375
-0.23139140625,0.1456558251953125,1.12213693359375
-0.39405509765625,-0.014633251953124999,1.0346440234375
-0.421044140625,0.01012087158203125,0.9400238818359374
-0.53799666015625,-0.05311243408203125,0.8254966455078125
-0.4721044921875,-0.0670825830078125,0.76626689453125
-0.39697283203125,0.09051050048828126,0.8594124365234375
-0.3111428125,0.12727405029296876,0.8834975634765625
-0.41812640624999997,0.14001874755859375,0.9638632421875
-0.41034578125,0.046149150390625,1.0953483740234375
-0.28998923828125,-0.09134652587890625,1.239613369140625
-0.40183572265625,0.04786478271484375,1.362988203125
-0.46797103515625,0.03021827880859375,1.2339607373046875
-0.4312562109375,-0.10580685546875,0.9665666748046875
-0.41934212890625,0.0123266845703125,0.88620099609375
-0.35199109375,-0.12541408203125,0.770690693359375
-0.29509527343749997,-0.0254172265625,0.81640328125
-0.288773515625,0.07065818359375,0.97271083984375
-0.4186126953125,-0.04772044677734375,1.050864619140625
-0.681695078125,0.0574233056640625,1.00515203125
-0.4555706640625,0.1093824560546875,0.8540055712890625
-0.46748474609375,0.14835181884765625,0.8107506494140625
-0.3028758984375,0.14050892822265626,0.75250396484375
-0.22701480468750002,0.1809488330078125,0.8930824609375
-0.38773333984375,0.06624655761718751,0.972219306640625
-0.4954463671875,0.07776580322265625,1.0250591259765625
-0.65519232421875,0.07727562255859374,0.991880634765625
-0.61142630859375,0.0711483642578125,0.9174133544921875
-0.3904079296875,0.02090484619140625,0.8087845166015625
-0.26227076171875,-0.05703387939453125,0.8761245654296875
-0.31478998046875,0.11379408203125,0.808047216796875
-0.3077387890625,-0.09428760986328125,0.770690693359375
-0.41204779296875,-0.0788469189453125,0.9007012255859375
-0.5559893554687501,-0.087179990234375,0.9503460791015625
-0.48985404296875,-0.08154291259765625,0.9611598095703124
-0.397702265625,-0.13203152099609375,0.9011927587890625
-0.4351465234375,0.008895419921875,0.8254966455078125
-0.1988100390625,-0.0808076416015625,0.7436563671875001
-0.15723232421875,-0.0249270458984375,0.9587021435546875
-0.31187224609374997,-0.06291604736328126,1.156052724609375
-0.51805880859375,-0.03987755615234375,1.162934189453125
-0.57398205078125,0.069677822265625,0.9783634716796875
-0.46456701171875,0.11060790771484375,0.8918536279296875
-0.5304591796875,0.0946770361328125,0.87243806640625
-0.45411179687500003,0.012816865234374999,0.7950215869140624
-0.29436583984375,0.10080429443359375,0.7920723876953125
-0.39794541015625,0.07335417724609375,0.7321053369140624
-0.19078626953125,0.0255615625,0.7456225
-0.3194097265625,-0.008751083984375,0.9820499707031249
-0.57544091796875,0.0012976196289062499,1.0594664501953126
-0.4900971875,0.0309535498046875,0.8736668994140625
-0.370470078125,0.12090170166015625,0.7846993896484376
-0.3344846875,0.0280124658203125,0.7291561376953125
-0.29922873046875,0.032424091796875,0.8328696435546875
-0.42201671875,0.1299700439453125,0.9124980224609375
-0.442440859375,-0.01585870361328125,0.893573994140625
-0.42201671875,0.03413972412109375,0.8284458447265625
-0.19905318359375002,0.03953171142578125,0.759876962890625
-0.1492085546875,0.05105095703125,0.8267254785156251
-0.244034921875,0.18315464599609374,1.0304659912109375
-0.43490337890624997,0.07090327392578125,1.1902142822265624
-0.6675926953125,0.0799716162109375,1.1447474609375
-0.48888146484375,0.17923320068359375,0.95501564453125
-0.3573402734375,0.21550656982421876,0.9110234228515625
-0.41618125,0.21256548583984375,0.8638362353515625
-0.49374435546875,0.14786163818359374,0.828691611328125
-0.4886383203125,0.124578056640625,0.8156659814453124
-0.44851947265625003,0.15692998046875,0.7719195263671875
-0.2931501171875,0.15374380615234376,0.7792925244140625
-0.41107521484375,0.214771298828125,1.0098215966796875
-0.4691867578125,0.17139031005859376,1.0825685107421874
-0.49714837890625,0.18119392333984374,1.2049602783203124
-0.47429279296875,0.20668331787109376,1.2550966650390625
-0.56595828125,0.0417375244140625,1.13393373046875
-0.39745912109375,-0.063651318359375,1.0516019189453125
-0.4254207421875,-0.01438816162109375,0.8997181591796874
-0.41423609375,-0.06487677001953125,0.788877421875
-0.2172890234375,-0.07026875732421875,0.7640549951171876
-0.35709712890625,-0.07051384765625,0.917167587890625
-0.48426171875,-0.08203309326171875,0.9913891015625
-0.28901666015625,-0.076396015625,1.1435186279296874
-0.4118046484375,-0.04085791748046875,1.151137392578125
-0.44292714843750003,-0.044044091796875,0.9021758251953125
-0.5336200585937501,0.10472573974609375,0.839996875
-0.53216119140625,0.01453249755859375,0.8220559130859375
-0.382141015625,-0.04428918212890625,0.7217831396484375
-0.24038775390625,0.08634396484375,0.6205272998046875
-0.212912421875,-0.06144550537109375,0.5600687158203125
-0.11735662109375,-0.136198056640625,0.59521333984375
-0.392839375,-0.095022880859375,0.9292101513671875
-0.6111831640625,-0.083258544921875,1.0373474560546876
-0.5829783984375,-0.05017135009765625,1.097068740234375
-0.436605390625,0.07850107421875,1.041033955078125
-0.31989601562500003,0.205948046875,0.964354775390625
-0.33764556640625,0.06796218994140625,0.9493630126953125
-0.31673513671875,0.0574233056640625,0.938303515625
-0.35199109375,0.0917359521484375,0.9847534033203125
-0.57300947265625,-0.02370159423828125,0.8889044287109376
-0.48450486328125,-0.02762303955078125,0.7281730712890625
-0.41836955078125,0.06060947998046875,0.678282451171875
-0.41058892578125,0.0750698095703125,0.6883588818359375
-0.37898013671874997,0.01110123291015625,0.8026403515625
-0.463837578125,0.01208159423828125,0.9449392138671875
-0.33910443359375,-0.06193568603515625,1.2088925439453124
-0.408400625,-0.04821062744140625,1.397887060546875
-0.570821171875,-0.083258544921875,1.3765053662109374
-0.5304591796875,-0.0494360791015625,1.001219765625
-0.3155194140625,-0.06683749267578125,0.712689775390625
-0.19953947265625,-0.023456503906250002,0.65223119140625
-0.31235853515625,0.06355056396484375,0.72497810546875
-0.4779399609375,0.132420947265625,0.8087845166015625
-0.48693630859375,0.1113431787109375,0.8844806298828125
-0.5601228125,0.1005592041015625,1.0346440234375
-0.62406982421875,0.1054610107421875,1.1056705712890624
-0.415208671875,0.021640117187500002,1.0661021484375
-0.39454138671875,0.08021670654296875,1.0358728564453126
-0.22774423828125,0.11305881103515625,0.951574912109375
-0.216802734375,0.04688442138671875,0.9547698779296875
-0.345183046875,0.05227640869140625,1.1366371630859375
-0.422989296875,-0.00409436767578125,1.1486797265625
-0.5868687109375,0.0289928271484375,1.0019570654296874
-0.52438056640625,0.0329142724609375,0.8223016796875
-0.31770771484375,-0.0013983740234375002,0.6917996142578124
-0.3748466796875,0.089285048828125,0.6917996142578124
-0.38189787109375,-0.00752563232421875,0.7394783349609375
-0.45313921875,0.0476196923828125,0.8422087744140625
-0.47186134765625,-0.02272123291015625,0.79379275390625
-0.3267040625,-0.016593974609375,0.817877880859375
-0.27345541015625,0.161831787109375,0.9626344091796875
-0.47842625,0.1113431787109375,0.954032578125
-0.35855599609375,0.04590406005859375,0.93338818359375
-0.40961634765625,0.083402880859375,0.9975332666015625
-0.459947265625,0.02874773681640625,1.07298361328125
-0.51562736328125,0.09835339111328124,0.9582106103515625
-0.41982841796875,0.019679394531249998,0.9820499707031249
-0.41156150390625,0.13609730224609376,1.002694365234375
-0.50444271484375,0.01747358154296875,0.9245405859375
-0.36974064453125,0.15080272216796875,0.8997181591796874
-0.34931650390625,0.0037485229492187503,0.7790467578125
-0.3797095703125,-0.0680629443359375,0.893573994140625
-0.40937320312500003,-0.0504164404296875,0.9301932177734376
-0.40280830078125,0.04296297607421875,0.957473310546875
-0.45678638671875,0.028502646484374998,0.9070911572265625
-0.3019033203125,0.08021670654296875,1.008592763671875
-0.31430369140625003,-0.0259074072265625,0.9857364697265625
-0.392839375,0.0221302978515625,1.04939001953125
-0.504685859375,0.1025199267578125,1.001219765625
-0.5448047070312501,0.022620478515625,0.7547158642578125
-0.25983931640625,-0.12149263671875,0.7055625439453125
-0.206104375,-0.07517056396484376,0.8136998486328125
-0.38335673828125,0.0976181201171875,0.889641728515625
-0.4759948046875,0.07041309326171875,0.79182662109375
-0.5372672265625,0.087324326171875,0.80362341796875
-0.356853984375,0.05227640869140625,0.8834975634765625
-0.08307324218750001,0.08070688720703124,0.9429730810546875
-0.1842213671875,0.14246965087890626,1.103458671875
-0.43052677734375,0.053992041015625,1.23420650390625
-0.675859609375,0.08242251953125,1.1449932275390624
-0.62455611328125,0.0711483642578125,0.860149736328125
-0.54577728515625,0.103010107421875,0.684180849609375
-0.3057936328125,0.148106728515625,0.69941837890625
-0.09741876953125,0.09737302978515625,0.7306307373046875
-0.11978806640625,0.0956573974609375,0.9154472216796875
-0.551369609375,-0.014633251953124999,1.0633987158203124
-0.65956892578125,0.03536517578125,1.109848603515625
-0.518301953125,0.0446786083984375,0.9953213671875
-0.33472783203125,0.17825283935546876,0.909303056640625
-0.31989601562500003,0.18217428466796876,1.0575003173828126
-0.44997833984375,0.2809456884765625,1.074458212890625
-0.4477900390625,0.22383964111328125,1.1381117626953126
-0.60899486328125,0.0530116796875,1.1798920849609376
-0.564985703125,0.06673673828125,1.1290183984375
-0.47526537109375,0.0289928271484375,0.892590927734375
-0.38238416015625,-0.0651218603515625,0.7163762744140625
-0.33521412109375,-0.09134652587890625,0.6131543017578125
-0.2902323828125,-0.11781628173828125,0.6033236376953125
-0.31284482421875,-0.05360261474609375,0.6883588818359375
-0.41399294921875,0.09737302978515625,0.7851909228515626
-0.30992708984375,0.07531489990234375,0.8065726171875
-0.34931650390625,0.04639424072265625,0.916184521484375
-0.43587595703125,0.0686974609375,1.0643817822265624
-0.56279740234375,0.03953171142578125,1.1435186279296874
-0.53896923828125,0.1211467919921875,1.1911973486328125
-0.40913005859375,0.11796061767578125,1.098051806640625
-0.35369310546875,0.05276658935546875,1.0678225146484375
-0.23844259765625,-0.044044091796875,1.0299744580078125
-0.40767119140625,-0.024436865234375,1.04742388671875
-0.446331171875,0.08266760986328126,0.9206083203125
-0.49179919921875,-0.0337502978515625,0.7994453857421875
-0.47380650390625,0.00987578125,0.7684787939453125
-0.42323244140625,0.07433453857421875,0.772656826171875
-0.3038484765625,-0.0170841552734375,0.8353273095703125
-0.43733482421875003,-0.08056255126953125,0.8289373779296875
-0.4166675390625,-0.07860182861328124,0.71318130859375
-0.3656071875,-0.0533575244140625,0.65419732421875
-0.30652306640625,-0.1259042626953125,0.7050710107421875
-0.37557611328125,0.0348749951171875,0.91765912109375
-0.39989056640625,0.0731090869140625,1.05332228515625
-0.4040240234375,-0.092081796875,1.148188193359375
-0.42274615234375,0.01796376220703125,1.1007552392578126
-0.4137498046875,0.153988896484375,0.9129895556640625
-0.36366203125,0.0515411376953125,0.905370791015625
-0.4020788671875,0.0387964404296875,0.97467697265625
-0.4555706640625,0.13168567626953126,1.0184234277343749
-0.47283392578125,0.04737460205078125,0.9857364697265625
-0.4798851171875,0.0137972265625,0.905370791015625
-0.37557611328125,-0.13717841796875,0.6986810791015625
-0.26421591796875,-0.12761989501953125,0.6217561328125
-0.23357970703125,0.06011929931640625,0.65026505859375
-0.27296912109375,-0.03129939453125,0.6328156298828125
-0.36098744140625,-0.11340465576171875,0.79772501953125
-0.39454138671875,0.0456589697265625,1.0245675927734375
-0.53459263671875,0.015022678222656249,1.163917255859375
-0.42858162109375,0.00963069091796875,1.197833046875
-0.37411724609375,0.11158826904296874,1.211104443359375
-0.35223423828125,0.06845237060546874,1.0884669091796875
-0.48061455078125,-0.12761989501953125,0.999745166015625
-0.41642439453125,-0.071494208984375,0.896523193359375
-0.35806970703125,0.0054641552734375,0.697943779296875
-0.41253408203124997,0.05129604736328125,0.70335064453125
-0.26810623046875,0.05178622802734375,0.713672841796875
-0.253760703125,0.05889384765625,0.818860947265625
-0.53021603515625,0.0633054736328125,0.8913620947265625
-0.5012818359375,0.04002189208984375,0.9793465380859375
-0.49423064453125,0.01110123291015625,1.001711298828125
-0.49228548828125,0.056933125,1.098051806640625
-0.382141015625,0.03217900146484375,1.1420440283203126
-0.46505330078125,0.19442880126953124,1.2265877392578124
-0.53945552734375,0.0010525292968750002,0.9881941357421875
-0.51368220703125,-0.02762303955078125,0.8721922998046875
-0.40937320312500003,-0.02762303955078125,0.8026403515625
-0.349073359375,0.055952763671875,0.7419360009765625
-0.44365658203125,0.0030132519531249997,0.6984353125
-0.38335673828125,-0.00262382568359375,0.7311222705078125
-0.4195852734375,-0.0298288525390625,0.8191067138671875
-0.49277177734375,-0.04821062744140625,0.9459222802734375
-0.475508515625,-0.0009081933593750001,1.0953483740234375
-0.4905834765625,0.10864718505859375,1.2044687451171874
-0.4964189453125,0.059874208984374996,1.1980788134765625
-0.494960078125,-0.06267095703125,1.0506188525390625
-0.39794541015625,-0.01634888427734375,0.929947451171875
-0.3203823046875,0.01183650390625,0.784453623046875
-0.28974609375,0.1079119140625,0.6716467529296875
-0.28123603515625,-0.0001729223632812504,0.7930554541015625
-0.1788721875,-0.0724745703125,0.91569298828125
-0.321841171875,0.06624655761718751,1.1093570703125
-0.473563359375,0.10178465576171875,1.2275708056640624
-0.61288517578125,-0.046004814453125,1.18701931640625
-0.41058892578125,0.126538779296875,1.1268064990234374
-0.41691068359375,0.0505607763671875,1.0604495166015624
-0.315033125,0.11379408203125,1.022355693359375
-0.35612455078125,0.09639266845703125,0.8692431005859375
-0.3544225390625,-0.01830960693359375,0.7869112890625
-0.24695265625,-0.09183670654296874,0.7075286767578125
-0.40937320312500003,-0.07615092529296875,0.7542243310546874
-0.34056330078125,-0.01978014892578125,0.7955131201171874
-0.4312562109375,0.0368357177734375,0.810013349609375
-0.5129527734375,0.02752228515625,0.73087650390625
-0.3889490625,0.1044806494140625,0.7522581982421875
-0.236254296875,0.11354899169921875,0.7724110595703125
-0.4020788671875,0.1250682373046875,0.9395323486328125
-0.45046462890625,0.150067451171875,1.084288876953125
-0.6092380078125,0.161831787109375,1.055779951171875
-0.49520322265625,0.187321181640625,0.9442019140625
-0.33181009765625,0.10766682373046875,0.914709921875
-0.37606240234375,0.104970830078125,1.079865078125
-0.39891798828125,0.0407571630859375,1.1420440283203126
-0.477453671875,0.04051207275390625,1.1789090185546875
-0.34007701171875,-0.10556176513671875,0.963371708984375
-0.39794541015625,-0.10360104248046875,0.8510563720703125
-0.44657431640625,-0.00997653564453125,0.7743771923828124
-0.4701593359375,-0.004829638671875,0.71514744140625
-0.41423609375,-0.0347306591796875,0.7881401220703125
-0.41010263671875,0.036345537109375,0.8323781103515625
-0.44414287109375,0.06502110595703126,0.9179048876953125
-0.34348103515625,-0.048945898437499996,0.954524111328125
-0.33521412109375,0.03144373046875,0.9960586669921875
-0.3933256640625,0.021640117187500002,0.9528037451171875
-0.4487626171875,0.05521749267578125,0.89406552734375
-0.35563826171875,0.00276816162109375,0.93437125
-0.47964197265624997,-0.073454931640625,0.9419900146484375
-0.54188697265625,0.0162481298828125,0.952557978515625
-0.38189787109375,0.02923791748046875,0.8820229638671875
-0.31138595703125,-0.04772044677734375,0.8697346337890625
-0.286828359375,-0.010221625976562499,0.927981318359375
-0.39818855468750003,-0.0415931884765625,0.9282270849609375
-0.43927998046875,-0.08227818359375,0.93338818359375
-0.5197608203125,-0.09722869384765626,0.7665126611328125
-0.4088869140625,-0.0710040283203125,0.6699263867187499
-0.18349193359375,-0.0881603515625,0.6839350830078125
-0.0762651953125,-0.02125069091796875,0.80952181640625
-0.37898013671874997,0.021885207519531248,0.981066904296875
-0.5654719921875,-0.05213207275390625,1.0189149609375
-0.5275414453125,0.05129604736328125,0.97664310546875
-0.4545980859375,0.026296833496093748,0.884726396484375
-0.28269490234375,0.10619628173828125,0.92159138671875
-0.29874244140625,0.13413657958984376,0.99827056640625
-0.45095091796875,0.03806116943359375,1.0594664501953126
-0.53167490234375,0.0652661962890625,1.067576748046875
-0.59148845703125,-0.02419177490234375,0.9002096923828125
-0.43004048828125,-0.02027032958984375,0.8225474462890625
-0.26421591796875,-0.0151234326171875,0.7571735302734375
-0.257651015625,-0.01095689697265625,0.68172318359375
-0.31284482421875,0.00276816162109375,0.7384952685546875
-0.26178447265625,-0.03644629150390625,0.813945615234375
-0.45386865234375,0.004973974609375,0.9936010009765625
-0.4823165625,-0.0906112548828125,1.0240760595703124
-0.43976626953125,0.0956573974609375,1.13589986328125
-0.46116298828125,-0.03497574951171875,1.0184234277343749
-0.41739697265625,-0.1906081103515625,1.005643564453125
-0.37363095703125,-0.1308060693359375,0.8431918408203125
-0.30166017578125,-0.11683592041015625,0.75643623046875
-0.24525064453125,-0.02272123291015625,0.71711357421875
-0.37314466796875,-0.051886982421875,0.7672499609375
-0.3641483203125,0.09026541015625,0.8849721630859375
-0.39089421875,0.06894255126953125,0.992863701171875
-0.47964197265624997,0.0505607763671875,1.1218911669921874
-0.40694175781249997,0.0765403515625,1.173747919921875
-0.31041337890625,0.00865032958984375,1.1110774365234375
-0.25205869140625,-0.044534272460937496,1.1125520361328125
-0.479398828125,-0.06095532470703125,1.065610615234375
-0.42979734375,-0.06095532470703125,0.9223286865234375
-0.44851947265625003,-0.12541408203125,0.86653966796875
-0.46942990234375,-0.016593974609375,0.9164302880859375
-0.3874901953125,-0.010711806640625,0.7925639208984375
-0.26421591796875,-0.06659240234375,0.7070371435546875
-0.31333111328125,0.07678544189453125,0.7679872607421875
-0.42371873046874997,0.0172284912109375,0.791335087890625
-0.43198564453125,-0.044534272460937496,0.80558955078125
-0.4511940625,0.1093824560546875,0.88620099609375
-0.486206875,0.065756376953125,0.889641728515625
-0.41691068359375,0.1133039013671875,0.984999169921875
-0.38384302734375,0.08756941650390625,1.0407881884765624
-0.45678638671875,0.06453092529296875,1.0978060400390626
-0.52146283203125,-0.0033590966796874996,1.03169482421875
-0.4935012109375,-0.02517213623046875,0.842454541015625
-0.387976484375,0.0005623486328125002,0.78592822265625
-0.36366203125,-0.0553182470703125,0.82328474609375
-0.30919765625,-0.0121823486328125,0.8667854345703125
-0.34250845703125,-0.0011532836914062497,0.902421591796875
-0.3967296875,0.11305881103515625,0.9513291455078126
-0.432715078125,-0.09845414550781251,0.868997333984375
-0.3242726171875,-0.049926259765625,0.9213456201171875
-0.26859251953125,0.01257177490234375,0.9867195361328125
-0.29776986328125,-0.018554697265625,1.1351625634765625
-0.37703498046875,-0.057278969726562504,1.252884765625
-0.501768125,-0.06536695068359374,1.2452660009765626
-0.4584883984375,-0.01634888427734375,1.06511908203125
-0.50930560546875,0.0250713818359375,0.9835245703125
-0.5353220703125,0.018699033203125,0.92650671875
-0.42469130859375,-0.1357078759765625,0.7630719287109375
-0.2581373046875,-0.04698517578125,0.6957318798828125
-0.1287844140625,-0.09281706787109376,0.6170865673828125
-0.28585578125,-0.15801109619140624,0.672384052734375
-0.22434021484375,-0.15850127685546875,0.676316318359375
-0.32013916015625,-0.17639287109375001,0.6632906884765625
-0.450221484375,-0.10016977783203125,0.6905707812499999
-0.3573402734375,-0.028113220214843748,0.8151744482421874
-0.4662690234375,0.02090484619140625,0.9614055761718749
-0.40913005859375,-0.0366913818359375,1.0044147314453125
-0.2970404296875,0.1378129345703125,1.13786599609375
-0.36220316406249997,0.0255615625,1.1105859033203125
-0.4750222265625,-0.024436865234375,0.9754142724609375
-0.389921640625,-0.012427438964843749,0.8294289111328125
-0.37338781249999997,0.06158984130859375,0.858183603515625
-0.3612305859375,0.05864875732421875,0.846386806640625
-0.32986494140625,0.048109873046875,0.856217470703125
-0.45143720703125,0.05913893798828125,0.859166669921875
-0.49325806640625003,-0.0180645166015625,0.708757509765625
-0.35077537109375,0.10766682373046875,0.7085117431640625
-0.35855599609375,0.056933125,0.7217831396484375
-0.36536404296875,0.028257556152343752,0.9636174755859375
-0.46991619140625,-0.071494208984375,1.1798920849609376
-0.49423064453125,-0.027868129882812502,1.14966279296875
-0.44924890625,0.0044837939453125,0.990897568359375
-0.28998923828125,-0.01291761962890625,0.8717007666015625
-0.21583015625000002,-0.09379742919921875,0.8879213623046875
-0.35272052734375,-0.03987755615234375,0.9085657568359375
-0.4497351953125,-0.02149578125,0.812962548828125
-0.48353228515625,0.024581201171875,0.7547158642578125
-0.29582470703125,0.08634396484375,0.8761245654296875
-0.37144265625,-0.0406128271484375,0.9940925341796875
-0.3515048046875,-0.0254172265625,1.1680952880859374
-0.5936767578125,0.0319339111328125,1.1445016943359374
-0.57446833984375,-0.09918941650390625,0.92355751953125
-0.50638787109375,0.011346323242187501,0.80755568359375
-0.2581373046875,0.044188427734375,0.7694618603515625
-0.18446451171875,-0.00581,0.910286123046875
-0.384086171875,-0.09526797119140624,0.9297016845703125
-0.4195852734375,-0.01561361328125,0.831640810546875
-0.41156150390625,-0.010711806640625,0.6839350830078125
-0.20294349609375,0.040266982421875,0.8422087744140625
-0.384086171875,0.08217742919921875,1.064136015625
-0.4419545703125,0.0613447509765625,1.1730106201171875
-0.555259921875,0.02090484619140625,1.25780009765625
-0.6111831640625,-0.02076051025390625,1.0663479150390625
-0.48790888671875,0.10031411376953125,0.90193005859375
-0.30409162109375,-0.02419177490234375,0.7783094580078125
-0.27613,-0.120512275390625,0.8382765087890625
-0.3262177734375,-0.042328459472656246,0.885709462890625
-0.3126016796875,-0.04183827880859375,0.77019916015625
-0.39016478515624997,-0.0719843896484375,0.7193254736328125
-0.35661083984374997,-0.03154448486328125,0.764792294921875
-0.386031328125,-0.067572763671875,0.9154472216796875
-0.50687416015625,-0.08154291259765625,0.983033037109375
-0.386031328125,-0.06977857666015624,0.9599309765625
-0.4380642578125,-0.06389640869140625,0.8736668994140625
-0.45411179687500003,-0.155805283203125,0.7566819970703125
-0.374360390625,-0.08154291259765625,0.8301662109375
-0.3028758984375,-0.0710040283203125,0.901438525390625
-0.25254498046875,-0.1121792041015625,1.0103131298828125
-0.2785614453125,-0.076396015625,1.05135615234375
-0.2980130078125,-0.19428446533203125,1.0398051220703124
-0.42858162109375,-0.06683749267578125,1.01596576171875
-0.4137498046875,0.04541387939453125,0.8618701025390625
-0.46310814453125,0.1235976953125,0.890624794921875
-0.5012818359375,0.03413972412109375,0.9835245703125
-0.5000661132812501,-0.06267095703125,1.0034316650390624
-0.41739697265625,-0.0180645166015625,0.9690243408203125
-0.4108320703125,-0.0006631030273437505,0.926015185546875
-0.26129818359375,-0.08546435791015625,0.876861865234375
-0.30700935546875,-0.03987755615234375,0.9169218212890625
-0.242089765625,-0.01046671630859375,1.0004824658203124
-0.37460353515625,-0.0612004150390625,1.1051790380859374
-0.436605390625,0.0686974609375,1.127052265625
-0.35199109375,0.0936966748046875,1.0661021484375
-0.45046462890625,0.0633054736328125,0.9518206787109375
-0.55890708984375,0.11967625,0.90193005859375
-0.5353220703125,0.09541230712890625,0.8053437841796875
-0.4225030078125,0.01992448486328125,0.810013349609375
-0.44365658203125,0.055462583007812497,0.7979707861328125
-0.18592337890625,0.07335417724609375,0.8264797119140626
-0.21947732421875,-0.02272123291015625,1.005643564453125
-0.23601115234375,-0.018554697265625,1.218968974609375
-0.29509527343749997,-0.053847705078125,1.37380193359375
-0.42906791015625,-0.11291447509765624,1.3946920947265624
-0.4200715625,-0.15605037353515624,1.17718865234375
-0.493014921875,-0.11757119140625,0.9744312060546875
-0.36390517578125,0.0012976196289062499,0.80952181640625
-0.27102396484375,0.0608545703125,0.8294289111328125
-0.33375525390625,-0.030319033203124998,0.8412257080078125
-0.432715078125,-0.050661530761718754,0.8544971044921875
-0.323786328125,0.00963069091796875,0.9051250244140625
-0.4156949609375,0.0642858349609375,0.8431918408203125
-0.38311359375,0.12678386962890625,0.8471241064453126
-0.42128728515625,0.0476196923828125,0.9007012255859375
-0.4701593359375,0.03659062744140625,1.0299744580078125
-0.4983641015625,0.0358553564453125,1.1012467724609376
-0.41156150390625,-0.0553182470703125,0.9744312060546875
-0.40037685546875,0.07482471923828125,0.9508376123046876
-0.42177357421875,0.04737460205078125,0.9208540869140625
-0.432715078125,-0.10948321044921874,0.88226873046875
-0.4254207421875,-0.049926259765625,0.929947451171875
-0.421044140625,-0.0175743359375,0.93732044921875
-0.4244481640625,-0.07173929931640625,0.7802755908203125
-0.30871136718750003,0.0201695751953125,0.7375122021484375
-0.33667298828125003,-0.02958376220703125,0.6716467529296875
-0.3495596484375,-0.11364974609375,0.726452705078125
-0.42055785156250003,-0.03522083984375,0.879811064453125
-0.49277177734375,-0.035711020507812496,0.9559987109375
-0.48839517578125,-0.09428760986328125,1.0063808642578125
-0.49909353515625,-0.0631611376953125,0.9874568359375
-0.3320532421875,-0.15359947021484374,0.910286123046875
-0.24330548828125,-0.16854998046875,0.869980400390625
-0.1968648828125,-0.044534272460937496,0.9120064892578125
-0.282938046875,-0.1038461328125,0.9026673583984375
-0.32111173828125,-0.14771730224609375,0.9007012255859375
-0.4370916796875,-0.03644629150390625,0.9007012255859375
-0.40572603515625,-0.0018885546875000003,0.7556989306640625
-0.310170234375,-0.0013983740234375002,0.7144101416015625
-0.20877896484375,0.0456589697265625,0.778555224609375
-0.32889236328125,0.0574233056640625,0.9031588916015625
-0.30895451171875,0.0093856005859375,0.9675497412109375
-0.36341888671875,-0.051886982421875,1.1769428857421875
-0.55355791015625,-0.02713285888671875,1.2349438037109375
-0.5294866015625,-0.02076051025390625,1.0633987158203124
-0.469673046875,-0.01781942626953125,0.8348357763671875
-0.333512109375,-0.011201987304687501,0.7773263916015625
-0.21266927734375,-0.02027032958984375,0.734317236328125
-0.29436583984375,-0.0670825830078125,0.6984353125
-0.30652306640625,-0.045024453125,0.7227662060546876
-0.36828177734375,-0.0308092138671875,0.704825244140625
-0.42712275390625,-0.0023787353515625003,0.7291561376953125
-0.39454138671875,-0.02860340087890625,0.781012890625
-0.4156949609375,0.03659062744140625,0.88423486328125
-0.45727267578124997,-0.03154448486328125,0.8839890966796875
-0.4584883984375,-0.0562986083984375,0.888658662109375
-0.36050115234375,-0.035711020507812496,0.963371708984375
-0.34153587890625,-0.0817880029296875,1.001219765625
-0.42274615234375,-0.05997496337890625,1.1056705712890624
-0.49277177734375,-0.09796396484375,1.014491162109375
-0.44803318359375,-0.0406128271484375,0.850319072265625
-0.40086314453125,-0.12761989501953125,0.7203085400390625
-0.28415376953125,-0.1013952294921875,0.701876044921875
-0.2454937890625,-0.008751083984375,0.7901062548828125
-0.3670660546875,-0.11438501708984375,0.8313950439453125
-0.442440859375,-0.13252170166015625,0.883743330078125
-0.45484123046875,-0.05850442138671875,0.9385492822265625
-0.49714837890625,-0.09428760986328125,0.933879716796875
-0.3811684375,-0.08963089355468751,0.99630443359375
-0.372415234375,-0.10262068115234375,0.956490244140625
-0.24962724609375,-0.12811007568359375,0.926015185546875
-0.22093619140625,-0.09477779052734375,0.9002096923828125
-0.354908828125,-0.0533575244140625,0.9139726220703125
-0.3738741015625,-0.0886505322265625,1.0088385302734375
-0.45678638671875,-0.0259074072265625,1.0594664501953126
-0.34421046875,-0.013652890625,1.038084755859375
-0.277102578125,0.0652661962890625,1.0501273193359375
-0.36050115234375,-0.01953505859375,1.0712632470703125
-0.35223423828125,-0.046740085449218746,0.979100771484375
-0.33959072265625,-0.0254172265625,0.9665666748046875
-0.34931650390625,-0.10850284912109374,0.9827872705078124
-0.284883203125,-0.08595453857421875,0.9808211376953125
-0.27637314453125,-0.00213364501953125,0.9872110693359375
-0.298499296875,-0.0229663232421875,0.9459222802734375
-0.29752671875000003,-0.0097314453125,0.951574912109375
-0.34542619140624997,0.03168882080078125,1.0511103857421875
-0.32208431640625,-0.04183827880859375,1.04545775390625
-0.40134943359374997,-0.00777072265625,1.0307117578125
-0.35661083984374997,0.05374695068359375,0.955507177734375
-0.36196001953125,0.1113431787109375,0.828691611328125
-0.37800755859375,0.0574233056640625,0.7532412646484374
-0.32159802734375,-0.0386521044921875,0.708757509765625
-0.259596171875,-0.04036773681640625,0.6750874853515625
-0.2338228515625,-0.04183827880859375,0.74267330078125
-0.25205869140625,-0.0337502978515625,0.8360646093749999
-0.18932740234375,-0.1023755908203125,0.888658662109375
-0.2338228515625,-0.02664267822265625,1.1037044384765624
-0.3267040625,0.03659062744140625,1.2391218359375
-0.27685943359375,0.0927163134765625,1.32268248046875
-0.27272597656249997,0.0544822216796875,1.3067076513671876
-0.345183046875,-0.0033590966796874996,1.1958669140625
-0.36001486328125,0.01306195556640625,1.155069658203125
-0.4434134375,0.0584036669921875,1.140323662109375
-0.26810623046875,-0.05090662109375,1.1022298388671874
-0.37314466796875,-0.0494360791015625,1.0422627880859374
-0.3777644140625,0.01257177490234375,1.0112961962890625
-0.31576255859375,0.00963069091796875,0.9311762841796875
-0.4370916796875,0.056933125,1.046932353515625
-0.28853037109375,0.0976181201171875,1.2015195458984376
-0.35199109375,-0.08840544189453126,1.212087509765625
-0.42274615234375,0.04051207275390625,1.2233927734375
-0.4049966015625,0.0765403515625,0.9469053466796875
-0.4682141796875,0.11452935302734375,0.8269712451171874
-0.52389427734375,0.0584036669921875,0.8338527099609375
-0.4040240234375,-0.0582593310546875,0.7896147216796875
-0.199296328125,-0.08227818359375,0.771673759765625
-0.21850474609375,-0.06046514404296875,0.697943779296875
-0.20099833984375,-0.10850284912109374,0.6662398876953125
-0.18397822265625,-0.15678564453125,0.7851909228515626
-0.27540056640625,-0.13203152099609375,0.980083837890625
-0.3592854296875,-0.07124911865234375,1.121645400390625
-0.3806821484375,0.06649164794921875,1.2430541015625
-0.31308796875,0.02360083984375,1.187510849609375
-0.39478453125,-0.0327699365234375,1.122628466796875
-0.43344451171875,0.07335417724609375,1.001711298828125
-0.3612305859375,0.01600303955078125,0.88030259765625
-0.3111428125,0.03659062744140625,0.884726396484375
-0.3466419140625,-0.0151234326171875,0.92748978515625
-0.32475890625,0.02335574951171875,0.9331424169921875
-0.38092529296875,0.1240878759765625,0.8952943603515625
-0.39843169921875,0.1427147412109375,0.9120064892578125
-0.37703498046875,0.12090170166015625,0.926998251953125
-0.4526529296875,0.02752228515625,1.0176861279296876
-0.44608802734374997,-0.02909358154296875,1.0570087841796876
-0.444386015625,-0.0788469189453125,0.9537868115234375
-0.44924890625,-0.11487519775390626,0.8154202148437499
-0.38092529296875,-0.163648173828125,0.724486572265625
-0.24573693359375,-0.14428603759765624,0.642892060546875
-0.22920310546875,-0.19183356201171875,0.6706636865234374
-0.2143712890625,-0.18153976806640626,0.7035964111328125
-0.20732009765625,-0.10948321044921874,0.7586481298828125
-0.46091984375,-0.1116890234375,0.8289373779296875
-0.5445615625,-0.13644314697265625,0.8048522509765625
-0.5100350390625,-0.1513936572265625,0.7301392041015625
-0.30627992187499997,-0.09085634521484375,0.8023945849609375
-0.28707150390625,-0.03889719482421875,0.8884128955078126
-0.2552195703125,-0.0915916162109375,0.8972604931640625
-0.32548833984375003,-0.18497103271484375,0.9609140429687499
-0.4745359375,-0.09183670654296874,0.9700074072265625
-0.372415234375,-0.05311243408203125,0.8653108349609375
-0.37557611328125,-0.09183670654296874,0.8245135791015625
-0.21947732421875,-0.07860182861328124,0.9262609521484375
-0.29679728515625,-0.025662316894531252,0.9434646142578125
-0.31381740234375,-0.02713285888671875,0.91372685546875
-0.33618669921875,-0.07762146728515625,0.8427003076171875
-0.3651208984375,-0.0371815625,0.8694888671875
-0.408400625,-0.06340622802734375,0.9360916162109375
-0.41885583984375,-0.0935523388671875,1.00416896484375
-0.361716875,-0.025662316894531252,1.0592206835937499
-0.35320681640625,-0.0332601171875,1.010558896484375
-0.39575710937499997,-0.1004148681640625,0.9577190771484375
-0.40183572265625,-0.123453359375,0.89013326171875
-0.4682141796875,-0.10164031982421876,0.869980400390625
-0.43247193359375,-0.16977543212890625,0.8105048828125
-0.3301080859375,-0.1700205224609375,0.7753602587890625
-0.277102578125,-0.15359947021484374,0.7591396630859375
-0.29436583984375,-0.1611972705078125,0.788385888671875
-0.269321953125,-0.1406096826171875,0.8476156396484374
-0.37314466796875,-0.04428918212890625,0.9370746826171875
-0.40645546875,-0.1415900439453125,1.0049062646484375
-0.48110083984375,-0.0690433056640625,1.0742124462890625
-0.52486685546875,-0.06659240234375,1.0476696533203125
-0.50881931640625,-0.107767578125,0.9537868115234375
-0.3874901953125,-0.034240478515625,0.9061080908203125
-0.317950859375,-0.09183670654296874,0.8608870361328125
-0.34104958984375,-0.10286577148437501,0.909303056640625
-0.347128203125,-0.01193725830078125,0.9975332666015625
-0.3242726171875,-0.06291604736328126,1.000728232421875
-0.3631757421875,-0.07419020263671874,1.007609697265625
-0.4278521875,0.0221302978515625,1.0476696533203125
-0.48985404296875,-0.05090662109375,0.9778719384765625
-0.518301953125,-0.055073156738281254,0.975168505859375
-0.53605150390625,0.028502646484374998,0.9803296044921875
-0.57933123046875,-0.0016434643554687498,0.965829375
-0.5119801953125,-0.0817880029296875,0.955507177734375
-0.3369161328125,-0.0425735498046875,0.942727314453125
-0.343237890625,-0.12075736572265625,0.880794130859375
-0.28026345703125,-0.08840544189453126,0.831640810546875
-0.237226875,-0.1092381201171875,0.7928096875
-0.3223274609375,-0.100905048828125,0.8171405810546875
-0.45289607421875,-0.0523771630859375,0.8419630078125
-0.4059691796875,0.01551285888671875,0.8554801708984375
-0.35028908203125,-0.02419177490234375,0.9154472216796875
-0.403537734375,0.0476196923828125,1.03562708984375
-0.37581925781250003,0.010856142578125,1.0388220556640624
-0.4049966015625,-0.07051384765625,0.975168505859375
-0.392839375,-0.04134809814453125,0.9282270849609375
-0.389921640625,0.0172284912109375,0.942727314453125
-0.35466568359375,-0.149923115234375,0.9206083203125
-0.19856689453125,0.01698340087890625,1.091170341796875
-0.3408064453125,0.0358553564453125,1.0643817822265624
-0.39989056640625,-0.0411030078125,1.00810123046875
-0.38092529296875,-0.07443529296875,0.930438984375
-0.41788326171875,-0.0513968017578125,0.7837163232421875
-0.45046462890625,-0.10580685546875,0.7670041943359375
-0.38627447265625,-0.0464949951171875,0.760860029296875
-0.38287044921875,-0.083258544921875,0.782487490234375
-0.36220316406249997,-0.0631611376953125,0.8363103759765624
-0.40694175781249997,-0.1455114892578125,0.8225474462890625
-0.38481560546875,-0.11757119140625,0.80558955078125
-0.29363640625,-0.04772044677734375,0.81345408203125
-0.3203823046875,-0.013652890625,0.90782845703125
-0.34980279296875,0.049090234375,1.0226014599609374
-0.3942982421875,-0.02174087158203125,1.036118623046875
-0.32889236328125,0.03144373046875,1.0909245751953125
-0.4176401171875,0.1005592041015625,1.0373474560546876
-0.28998923828125,0.0936966748046875,0.9614055761718749
-0.3515048046875,-0.0018885546875000003,0.9972875
-0.3213548828125,-0.030073942871093752,1.0688055810546875
-0.487179453125,0.00717978759765625,1.0987891064453126
-0.48426171875,0.055952763671875,1.0049062646484375
-0.4225030078125,0.1054610107421875,0.8643277685546875
-0.3271903515625,0.0201695751953125,0.8301662109375
-0.174009296875,-0.0055649096679687505,0.97664310546875
-0.27515742187500003,-0.03742665283203125,1.08281427734375
-0.31333111328125,-0.0641414990234375,1.133442197265625
-0.302389609375,-0.063651318359375,1.0781447119140626
-0.27977716796875,-0.07468038330078125,1.007609697265625
-0.3267040625,-0.08105273193359375,1.083305810546875
-0.34056330078125,-0.03301502685546875,1.1843158837890626
-0.3524773828125,0.0270321044921875,1.198324580078125
-0.4322287890625,-0.157766005859375,1.1263149658203124
-0.45824525390625,-0.14894275390625,1.027271025390625
-0.36585033203125,-0.154824921875,0.860149736328125
-0.30749564453125,-0.12565917236328125,0.725961171875
-0.191515703125,-0.1827652197265625,0.7198170068359375
-0.1900568359375,-0.214626962890625,0.8132083154296875
-0.2980130078125,-0.18399067138671876,0.8576920703124999
-0.4434134375,-0.1626678125,0.8871840625
-0.34202216796875,-0.1778634130859375,0.897506259765625
-0.3495596484375,-0.05458297607421875,0.9872110693359375
-0.3203823046875,-0.10311086181640625,0.93535431640625
-0.28974609375,-0.11977700439453125,0.8943112939453125
-0.2630001953125,-0.138158779296875,0.8871840625
-0.2484115234375,-0.11561046875,1.0130165625
-0.2610550390625,-0.12565917236328125,1.111323203125
-0.24136033203125,-0.10360104248046875,1.158018857421875
-0.29971501953125,-0.1210024560546875,1.0393135888671874
-0.308225078125,-0.171491064453125,0.8852179296875
-0.4468174609375,-0.06193568603515625,0.883251796875
-0.3476144921875,-0.03203466552734375,0.9065996240234375
-0.32062544921875,0.01159141357421875,1.0191607275390624
-0.331566953125,-0.02419177490234375,1.0525849853515625
-0.21023783203125002,-0.06634731201171876,0.9847534033203125
-0.14799283203125,-0.046249904785156254,0.9626344091796875
-0.22871681640625,-0.01487834228515625,0.95501564453125
-0.337402421875,0.04345315673828125,0.8943112939453125
-0.28561263671875,0.0221302978515625,0.9144641552734375
-0.3320532421875,0.05325677001953125,1.1100943701171875
-0.43441708984375,0.03928662109375,1.1263149658203124
-0.4020788671875,0.02482629150390625,0.902913125
-0.26810623046875,0.02776737548828125,0.7876485888671875
-0.292663828125,0.00423870361328125,0.76233462890625
-0.26178447265625,-0.024436865234375,0.7947758203124999
-0.19516287109375,-0.12124754638671875,0.8107506494140625
-0.11687033203125,-0.1759026904296875,0.92159138671875
-0.18470765625,-0.17663796142578125,0.9970417333984375
-0.27102396484375,-0.1602169091796875,1.00023669921875
-0.21753216796875,-0.217568046875,0.9542783447265625
-0.3067662109375,-0.11291447509765624,0.9346170166015625
-0.25546271484375,-0.15801109619140624,0.9238032861328125
-0.30068759765624997,-0.21830331787109375,0.92945591796875
-0.35320681640625,-0.15703073486328126,0.7719195263671875
-0.25789416015625,-0.146001669921875,0.6669771875
-0.29776986328125,-0.136198056640625,0.6627991552734375
-0.2523018359375,-0.08203309326171875,0.674350185546875
-0.2163164453125,-0.0759058349609375,0.7753602587890625
-0.13826705078125,-0.012427438964843749,0.8712092333984375
-0.22142248046875002,0.03536517578125,0.9857364697265625
-0.263486484375,-0.018554697265625,1.040542421875
-0.331566953125,0.040266982421875,1.0464408203125
-0.32013916015625,0.06796218994140625,0.99433830078125
-0.3135742578125,0.07090327392578125,0.9513291455078126
-0.3038484765625,-0.051886982421875,0.9763973388671875
-0.31770771484375,0.01649322021484375,1.027271025390625
-0.33229638671875,-0.08350363525390625,0.9365831494140625
-0.16015005859375,-0.10213050048828125,0.9088115234375
-0.08769298828125,-0.051886982421875,1.040050888671875
-0.146777109375,-0.1023755908203125,1.1408151953125
-0.25983931640625,-0.14232531494140624,1.18701931640625
-0.226528515625,-0.13546278564453124,1.11230626953125
-0.20488865234375,-0.0817880029296875,1.0029401318359374
-0.22361078125,-0.03914228515625,0.977134638671875
-0.32159802734375,-0.0808076416015625,0.9739396728515625
-0.24427806640625,-0.1337471533203125,0.965337841796875
-0.2027003515625,-0.04085791748046875,0.93928658203125
-0.22579908203125,-0.07443529296875,0.9636174755859375
-0.25011353515625,-0.046740085449218746,1.019406494140625
-0.23819945312500002,-0.05654369873046875,0.9609140429687499
-0.19419029296875,-0.060710234375,0.8962774267578125
-0.133161015625,-0.0768861962890625,0.883251796875
-0.19224513671875,-0.16046199951171874,0.8879213623046875
-0.15285572265625,-0.06634731201171876,0.9542783447265625
-0.20488865234375,-0.04330882080078125,0.98057537109375
-0.24865466796875,-0.03644629150390625,1.0511103857421875
-0.2532744140625,0.0338946337890625,1.0928907080078125
-0.26567478515625,-0.04723026611328125,1.032186357421875
-0.3135742578125,-0.0455146337890625,0.9365831494140625
-0.20975154296875,-0.0411030078125,0.8360646093749999
-0.20440236328125,0.02360083984375,0.7736398925781249
-0.09887763671875,-0.0016434643554687498,0.827708544921875
-0.10665826171875001,-0.04919098876953125,1.0152284619140626
-0.1258666796875,-0.046004814453125,1.066593681640625
-0.13097271484375,-0.0915916162109375,1.13393373046875
-0.089395,-0.1170810107421875,1.0609410498046874
-0.15966376953125,-0.114630107421875,0.9528037451171875
-0.25497642578125,-0.079337099609375,0.863098935546875
-0.1710915625,-0.1249239013671875,0.78396208984375
-0.2056180859375,-0.11193411376953125,0.8834975634765625
-0.1676875390625,-0.09575815185546875,0.95796484375
-0.140941640625,-0.12026718505859375,0.970253173828125
-0.11322316406249999,-0.09134652587890625,1.042017021484375
-0.09936392578125,-0.0592396923828125,1.05135615234375
-0.1166271875,-0.0141430712890625,0.9717277734375
-0.16306779296875,-0.008996174316406251,0.9604225097656249
-0.1827625,0.024581201171875,1.0661021484375
-0.21850474609375,-0.0097314453125,1.0575003173828126
-0.21266927734375,-0.03693647216796875,0.95108337890625
-0.13024328125,0.02874773681640625,0.8731753662109375
-0.16841697265625,0.02139502685546875,0.812962548828125
-0.16841697265625,-0.05482806640625,0.8422087744140625
-0.0966893359375,-0.0332601171875,0.92159138671875
-0.09693248046875,-0.029338671875,0.980083837890625
-0.1112780078125,-0.02713285888671875,0.952557978515625
-0.07869664062500001,-0.011201987304687501,0.855234404296875
-0.0821006640625,0.00227798095703125,0.8751414990234375
-0.0587587890625,0.01796376220703125,1.052830751953125
-0.07748091796875001,-0.0053198193359375,1.12803533203125
-0.1978374609375,0.0172284912109375,1.1425355615234376
-0.0762651953125,-0.0631611376953125,1.1041959716796874
-0.08574783203125,-0.014633251953124999,0.948625712890625
-0.038577792968749997,-0.06536695068359374,0.87637033203125
-0.066053125,-0.05360261474609375,0.8972604931640625
-0.12440781249999999,-0.03644629150390625,0.9169218212890625
-0.16744439453124998,-0.0161037939453125,0.8864467626953125
-0.13486302734375,-0.0063001806640625,1.000728232421875
-0.177899609375,-0.02419177490234375,1.0550426513671876
-0.18106048828125,0.034384814453125,1.048406953125
-0.13948277343749999,0.0103659619140625,0.9756600390625
-0.1813036328125,-0.02468195556640625,0.9016842919921875
-0.1414279296875,-0.04134809814453125,0.8338527099609375
-0.133161015625,-0.07468038330078125,0.804606484375
-0.109819140625,-0.0778665576171875,0.8363103759765624
-0.1248941015625,-0.0808076416015625,0.9351085498046875
-0.115654609375,-0.06683749267578125,0.991880634765625
-0.16112263671875,-0.08938580322265625,0.9881941357421875
-0.13486302734375,-0.140119501953125,0.985982236328125
-0.0966893359375,-0.128355166015625,1.0255506591796875
-0.0782103515625,-0.1406096826171875,1.048898486328125
-0.1112780078125,-0.10580685546875,1.0953483740234375
-0.17692703125,-0.11732610107421874,1.138357529296875
-0.2065906640625,-0.15948163818359376,1.115747001953125
-0.221665625,-0.1180613720703125,1.118696201171875
-0.207076953125,-0.1219828173828125,1.066593681640625
-0.1735230078125,-0.1062970361328125,1.056763017578125
-0.20926525390625,-0.112669384765625,1.08871267578125
-0.20537494140625,-0.08619962890625,1.0909245751953125
-0.2532744140625,-0.07124911865234375,1.0688055810546875
-0.25157240234375,-0.0670825830078125,1.0294829248046875
-0.168173828125,-0.12860025634765626,0.9609140429687499
-0.15917748046875,-0.124433720703125,0.902913125
-0.16987583984375,-0.1308060693359375,0.89996392578125
-0.2202067578125,-0.1710008837890625,0.9007012255859375
-0.237226875,-0.1886473876953125,0.907336923828125
-0.24865466796875,-0.15507001220703126,0.9815584374999999
-0.25692158203125,-0.15408965087890625,1.0457035205078125
-0.20002576171875,-0.16242272216796874,1.040050888671875
-0.179844765625,-0.12541408203125,1.008592763671875
-0.18227621093750002,-0.07664110595703125,1.003677431640625
-0.23066197265625,-0.120512275390625,0.98450763671875
-0.25838044921875,-0.146001669921875,0.956490244140625
-0.22701480468750002,-0.10311086181640625,1.002694365234375
-0.2231244921875,-0.11046357177734376,1.0712632470703125
-0.22385392578125,-0.09232688720703125,1.1218911669921874
-0.1949197265625,-0.07026875732421875,1.091661875
-0.1978374609375,-0.05556333740234375,1.0759328125
-0.216802734375,-0.065612041015625,1.0643817822265624
-0.2202067578125,-0.06487677001953125,1.040050888671875
-0.2795340234375,-0.061690595703125004,1.0678225146484375
-0.35126166015625,-0.05801424072265625,1.043983154296875
-0.354908828125,-0.06144550537109375,0.993846767578125
-0.32062544921875,-0.06536695068359374,0.96681244140625
-0.27685943359375,-0.06830803466796875,0.9960586669921875
-0.2484115234375,-0.06193568603515625,1.0707717138671875
-0.2095083984375,-0.0562986083984375,1.0904330419921875
-0.2289599609375,-0.0906112548828125,1.07691587890625
-0.2099946875,-0.0960032421875,1.0270252587890625
-0.212912421875,-0.0817880029296875,0.9749227392578125
-0.1633109375,-0.11536537841796875,0.9803296044921875
-0.18081734375,-0.08840544189453126,1.0511103857421875
-0.19637859375,-0.0788469189453125,1.0771616455078126
-0.26056875,-0.09575815185546875,1.0739666796875
-0.25546271484375,-0.1038461328125,1.0398051220703124
-0.28464005859375,-0.0886505322265625,1.0142453955078126
-0.2610550390625,-0.09012107421875,0.99827056640625
-0.19224513671875,-0.122472998046875,0.97664310546875
-0.2085358203125,-0.13717841796875,0.968287041015625
-0.179844765625,-0.11732610107421874,0.9518206787109375
-0.18884111328125,-0.12271808837890624,0.9616513427734374
-0.2099946875,-0.10972830078125,0.9690243408203125
-0.23212083984375,-0.0798272802734375,0.961897109375
-0.237226875,-0.0641414990234375,0.963371708984375
-0.25643529296875,-0.077376376953125,0.9714820068359376
-0.27345541015625,-0.098944326171875,0.9488714794921875
-0.24962724609375,-0.11291447509765624,0.890624794921875
-0.189570546875,-0.107767578125,0.909303056640625
-0.18859796875,-0.10752248779296875,0.977626171875
-0.22531279296875,-0.10850284912109374,0.972219306640625
-0.23649744140625,-0.09281706787109376,0.93928658203125
-0.25084296875,-0.09820905517578125,0.8967689599609375
-0.23698373046875,-0.05850442138671875,0.8871840625
-0.2406308984375,-0.079337099609375,0.8982435595703124
-0.2153438671875,-0.08840544189453126,0.94911724609375
-0.20051205078125,-0.06193568603515625,0.9267524853515625
-0.20245720703125,-0.0288484912109375,0.9542783447265625
-0.22920310546875,-0.0562986083984375,0.977626171875
-0.26956509765625,-0.0435539111328125,1.021372626953125
-0.26324333984375,-0.035711020507812496,1.04545775390625
-0.298499296875,-0.050661530761718754,1.01399962890625
-0.259596171875,-0.04036773681640625,0.9714820068359376
-0.23844259765625,-0.0690433056640625,0.914709921875
-0.20537494140625,-0.09379742919921875,0.9036504248046875
-0.20099833984375,-0.09967959716796874,0.935845849609375
-0.1958923046875,-0.120512275390625,0.967303974609375
-0.205131796875,-0.12541408203125,1.0103131298828125
-0.22579908203125,-0.1082577587890625,0.9567360107421875
-0.249870390625,-0.0960032421875,0.923065986328125
-0.2532744140625,-0.11830646240234374,0.9075826904296875
-0.23941517578125,-0.1013952294921875,0.9213456201171875
-0.245980078125,-0.12075736572265625,0.950591845703125
-0.22482650390625,-0.1116890234375,0.976151572265625
-0.21510072265625,-0.1219828173828125,0.986965302734375
-0.22750109375,-0.15065838623046876,1.024813359375
-0.230418828125,-0.15997181884765624,1.0039231982421875
-0.22142248046875002,-0.1587463671875,0.9547698779296875
-0.19370400390625,-0.19330410400390624,0.9385492822265625
-0.16841697265625,-0.14820748291015626,0.94518498046875
-0.18592337890625,-0.16095218017578125,0.944693447265625
-0.19662173828125,-0.14281549560546875,0.9798380712890625
-0.23357970703125,-0.146001669921875,0.989914501953125
-0.25692158203125,-0.1474722119140625,0.9670582080078125
-0.2785614453125,-0.14575657958984375,0.9631259423828125
-0.2912049609375,-0.151883837890625,0.94911724609375
-0.267376796875,-0.14722712158203125,0.9626344091796875
-0.26372962890625,-0.15163874755859374,0.980083837890625
-0.24087404296875,-0.17663796142578125,0.9886856689453125
-0.2036729296875,-0.13007079833984375,0.9916348681640625
-0.21558701171875,-0.13644314697265625,0.9881941357421875
-0.25740787109375,-0.14281549560546875,0.95108337890625
-0.32086859375,-0.14330567626953125,0.916184521484375
-0.34056330078125,-0.1533543798828125,0.8589209033203125
-0.39478453125,-0.1611972705078125,0.8692431005859375
-0.39016478515624997,-0.1768830517578125,0.8643277685546875
-0.337402421875,-0.12614935302734376,0.8997181591796874
-0.36730919921875,-0.11291447509765624,0.9442019140625
-0.377278125,-0.12516899169921875,0.9847534033203125
-0.42517759765625,-0.14502130859375,0.98254150390625
-0.45240978515625,-0.0724745703125,0.9370746826171875
-0.4356328125,-0.05752406005859375,0.9046334912109375
-0.39745912109375,-0.05899460205078125,0.905370791015625
-0.3991611328125,-0.03203466552734375,0.922574453125
-0.37898013671874997,-0.0435539111328125,0.9336339501953125
-0.39502767578125,-0.071494208984375,0.9375662158203125
-0.4273658984375,-0.03252484619140625,0.9166760546875
-0.4186126953125,-0.01585870361328125,0.9242948193359375
-0.42128728515625,-0.03693647216796875,0.9955671337890625
-0.444386015625,-0.05899460205078125,1.0226014599609374
-0.40864376953125,-0.08154291259765625,1.03661015625
-0.37168580078125,-0.07860182861328124,1.0427543212890624
-0.35272052734375,-0.06977857666015624,1.053813818359375
-0.33253953125,-0.09428760986328125,1.053813818359375
-0.35515197265625,-0.1116890234375,1.0987891064453126
-0.323786328125,-0.0955130615234375,1.0963314404296876
-0.32694720703125,-0.1229631787109375,1.0668394482421875
-0.32694720703125,-0.15899145751953125,1.0751955126953125
-0.3680386328125,-0.17859868408203125,1.0171945947265626
-0.40183572265625,-0.20751934326171875,0.9326508837890625
-0.407428046875,-0.2450181640625,0.8500733056640625
-0.41204779296875,-0.25849813232421875,0.7955131201171874
-0.42371873046874997,-0.2631548486328125,0.782487490234375
-0.41204779296875,-0.2717330102539062,0.78396208984375
-0.42663646484375,-0.2513905126953125,0.827708544921875
-0.39502767578125,-0.22271494384765625,0.8825144970703125
-0.38481560546875,-0.1665892578125,0.915201455078125
-0.38724705078125,-0.15408965087890625,0.9154472216796875
-0.35515197265625,-0.14526639892578125,0.9065996240234375
-0.36098744140625,-0.09232688720703125,0.8859552294921875
-0.39016478515624997,-0.077376376953125,0.8485987060546875
-0.3855450390625,-0.087179990234375,0.840488408203125
-0.4147223828125,-0.05213207275390625,0.8608870361328125
-0.40475345703125,-0.01095689697265625,0.876861865234375
-0.42858162109375,-0.008996174316406251,0.8825144970703125
-0.44146828125,0.008405239257812499,0.9164302880859375
-0.4302836328125,0.00472888427734375,0.943710380859375
-0.41204779296875,0.0172284912109375,0.98647376953125
-0.39575710937499997,-0.0121823486328125,1.0019570654296874
-0.3865176171875,-0.06732767333984375,0.9877026025390625
-0.39454138671875,-0.0239466845703125,0.9351085498046875
-0.39867484375,-0.0298288525390625,0.90782845703125
-0.43101306640625,-0.07271966064453125,0.87931953125
-0.44049570312499997,-0.08693489990234375,0.9075826904296875
-0.44997833984375,-0.11340465576171875,0.909303056640625
-0.448276328125,-0.10507158447265624,0.892590927734375
-0.41836955078125,-0.14281549560546875,0.8466325732421875
-0.397702265625,-0.1626678125,0.82721701171875
-0.3583128515625,-0.15212892822265625,0.86359046875
-0.3388612890625,-0.1587463671875,0.885709462890625
-0.3408064453125,-0.1553151025390625,0.9105318896484375
-0.36439146484375,-0.1553151025390625,0.8997181591796874
-0.38238416015625,-0.14379585693359376,0.8938197607421875
-0.37363095703125,-0.177373232421875,0.8820229638671875
-0.40767119140625,-0.147962392578125,0.8852179296875
-0.40134943359374997,-0.16070708984375,0.8712092333984375
-0.40864376953125,-0.1572758251953125,0.8805483642578125
-0.40062,-0.1719812451171875,0.8790737646484375
-0.4088869140625,-0.13252170166015625,0.884726396484375
-0.4156949609375,-0.144040947265625,0.82525087890625
-0.370470078125,-0.13056097900390626,0.8004284521484375
-0.33083751953125,-0.09281706787109376,0.7952673535156249
-0.32694720703125,-0.085219267578125,0.88423486328125
-0.4059691796875,-0.08350363525390625,0.95108337890625
-0.44292714843750003,-0.0582593310546875,0.9734481396484375
-0.4507077734375,-0.0837487255859375,0.9847534033203125
-0.456056953125,-0.0641414990234375,0.98450763671875
-0.47477908203125,-0.096983603515625,0.97369390625
-0.49909353515625,-0.11732610107421874,0.9481341796875
-0.49325806640625003,-0.18055940673828125,0.9186421875
-0.4594609765625,-0.18521612304687501,0.8930824609375
-0.39794541015625,-0.1847259423828125,0.899472392578125
-0.3991611328125,-0.100905048828125,0.9503460791015625
-0.386031328125,-0.09845414550781251,0.9739396728515625
-0.44317029296875,-0.10164031982421876,0.997779033203125
-0.48353228515625,-0.100905048828125,1.0167030615234376
-0.5041995703125,-0.0670825830078125,0.9773804052734375
-0.49860724609375,-0.0719843896484375,0.9218371533203125
-0.49423064453125,-0.1337471533203125,0.8790737646484375
-0.46942990234375,-0.1827652197265625,0.851793671875
-0.44292714843750003,-0.18521612304687501,0.886692529296875
-0.46797103515625,-0.167569619140625,0.930438984375
-0.45532751953125,-0.18055940673828125,0.9582106103515625
-0.47259078125,-0.1660990771484375,0.92552365234375
-0.4409819921875,-0.1464918505859375,0.8957858935546875
-0.4273658984375,-0.13497260498046876,0.8417172412109375
-0.40475345703125,-0.15997181884765624,0.82131861328125
-0.43538966796875,-0.16928525146484374,0.828200078125
-0.45775896484375,-0.2033528076171875,0.85474287109375
-0.51538421875,-0.2190385888671875,0.88620099609375
-0.4823165625,-0.20604880126953126,0.8830060302734375
-0.41204779296875,-0.1700205224609375,0.9110234228515625
-0.4487626171875,-0.1376685986328125,0.9837703369140625
-0.39502767578125,-0.1259042626953125,1.0511103857421875
-0.42517759765625,-0.07664110595703125,1.11034013671875
-0.40086314453125,-0.09845414550781251,1.113780869140625
-0.403537734375,-0.15212892822265625,1.048898486328125
-0.42274615234375,-0.1572758251953125,0.9877026025390625
-0.43052677734375,-0.1509034765625,0.937811982421875
-0.432715078125,-0.1788437744140625,0.87931953125
-0.47526537109375,-0.22712656982421875,0.8854636962890625
-0.5148979296875,-0.232273466796875,0.8655566015625
-0.526082578125,-0.2371752734375,0.86653966796875
-0.52340798828125,-0.25457668701171876,0.867522734375
-0.483289140625,-0.29526168212890624,0.823776279296875
-0.439523125,-0.318545263671875,0.775606025390625
-0.42712275390625,-0.3398681225585938,0.707774443359375
-0.39697283203125,-0.36070080078125,0.6854096826171875
-0.33132380859375,-0.373445498046875,0.729401904296875
-0.36779548828124997,-0.39133709228515623,0.866048134765625
-0.46019041015625,-0.3660927880859375,0.948625712890625
-0.4779399609375,-0.35604408447265623,0.926998251953125
-0.45386865234375,-0.27859553955078126,0.810996416015625
-0.4147223828125,-0.21977385986328124,0.7679872607421875
-0.316005703125,-0.2043331689453125,0.7994453857421875
-0.361716875,-0.2141367822265625,0.869980400390625
-0.39089421875,-0.2643803002929688,0.9007012255859375
-0.39259623046875003,-0.20359789794921876,0.8741584326171875
-0.45386865234375,-0.242077080078125,0.793301220703125
-0.4798851171875,-0.20310771728515625,0.77019916015625
-0.4380642578125,-0.17026561279296876,0.7298934375
-0.3962433984375,-0.1768830517578125,0.6915538476562499
-0.4643238671875,-0.206784072265625,0.724486572265625
-0.48547744140625,-0.1587463671875,0.705808310546875
-0.5275414453125,-0.15654055419921875,0.6244595654296875
-0.50103869140625,-0.06193568603515625,0.64829892578125
-0.49228548828125,-0.0641414990234375,0.6770536181640625
-0.47429279296875,-0.025662316894531252,0.7478343994140625
-0.50541529296875,0.0358553564453125,0.8102591162109375
-0.4565432421875,0.08634396484375,0.8343442431640625
-0.4468174609375,0.09982393310546875,0.871946533203125
-0.50055240234375,0.1113431787109375,0.91569298828125
-0.52146283203125,0.08266760986328126,0.9110234228515625
-0.44049570312499997,0.06551128662109375,0.92355751953125
-0.280992890625,0.0255615625,0.9021758251953125
-0.18154677734375,-0.0190448779296875,0.8731753662109375
-0.15869119140625,-0.01291761962890625,0.8859552294921875
-0.16306779296875,-0.1111988427734375,0.8997181591796874
-0.1166271875,-0.16781470947265625,0.911269189453125
-0.051464453125000004,-0.1053166748046875,0.963371708984375
-0.03225603515625,-0.1484525732421875,1.0747039794921875
-0.2766162890625,-0.249919970703125,1.05233921875
-0.1832487890625,-0.07443529296875,0.9469053466796875
-0.121490078125,-0.247959248046875,1.1007552392578126
-0.12246265625,-0.0254172265625,1.28139369140625
0.01880431640625,-0.1268846240234375,1.274020693359375
0.01953375,-0.0857094482421875,1.3524202392578124
-0.058272500000000005,-0.304820205078125,1.3666747021484376
-0.1949197265625,-0.4455020556640625,1.076424345703125
-0.20464550781250002,-0.38937636962890626,0.7144101416015625
-0.18154677734375,-0.3396230322265625,0.53819548828125
-0.18008791015625,-0.336191767578125,0.4484906787109375
-0.13486302734375,-0.3484462841796875,0.5777639111328124
-0.0996070703125,-0.37467094970703124,0.7016302783203126
-0.09085386718749999,-0.46143292724609375,1.1037044384765624
-0.08769298828125,-0.5231956909179688,1.26173236328125
-0.15747546875,-0.5423127368164062,1.2762325927734375
-0.172064140625,-0.5075099096679687,1.2978600537109375
-0.42055785156250003,-0.10115013916015625,1.28729208984375
-0.52316484375,-0.079337099609375,1.2413337353515626
-0.4302836328125,-0.006790361328125,1.2673849951171876
-0.39405509765625,0.0476196923828125,1.2550966650390625
-0.29509527343749997,0.004973974609375,1.1852989501953124
-0.252788125,0.0010525292968750002,1.1322133642578125
-0.37411724609375,-0.02125069091796875,1.1803836181640626
-0.5158705078125,0.01257177490234375,1.30302115234375
-0.5956219140625,0.01306195556640625,1.38363259765625
-0.67172615234375,-0.02272123291015625,1.5224907275390624
-0.6119125976562501,-0.16389326416015626,1.4517099462890626
-0.47283392578125,-0.18521612304687501,1.3396403759765625
-0.42274615234375,-0.1700205224609375,1.1233657666015624
-0.37606240234375,-0.1822750390625,1.0629071826171874
-0.34591248046875,-0.26732138427734375,1.1784174853515625
-0.40134943359374997,-0.2160975048828125,1.297614287109375
-0.3680386328125,-0.26585084228515626,1.190460048828125
-0.346155625,-0.22320512451171876,1.070525947265625
-0.424934453125,-0.21536223388671874,0.997779033203125
-0.32548833984375003,-0.21781313720703124,0.9547698779296875
-0.25084296875,-0.20212735595703124,0.934862783203125
-0.2503566796875,-0.2464887060546875,1.072492080078125
-0.22920310546875,-0.2347243701171875,1.127543798828125
-0.2450075,-0.2082546142578125,1.1174673681640626
-0.2027003515625,-0.16462853515625,1.0334151904296875
-0.197351171875,-0.167569619140625,1.0068723974609375
-0.2085358203125,-0.12933552734375,1.0648733154296874
-0.230418828125,-0.14109986328125,1.0127707958984375
-0.177899609375,-0.13497260498046876,0.93142205078125
-0.12246265625,-0.1308060693359375,0.92552365234375
-0.11687033203125,-0.091101435546875,0.9857364697265625
-0.15771861328125,-0.1131595654296875,1.0363643896484376
-0.249870390625,-0.093062158203125,1.004660498046875
-0.251815546875,-0.047965537109375,0.9326508837890625
-0.2678630859375,-0.012427438964843749,0.867522734375
-0.1968648828125,0.0010525292968750002,0.817877880859375
-0.18300564453125,0.01404231689453125,0.80067421875
-0.17960162109375,-0.02370159423828125,0.8122252490234375
-0.197351171875,-0.06977857666015624,0.796741953125
-0.1813036328125,-0.08154291259765625,0.796741953125
-0.19613544921875,-0.1249239013671875,0.8250051123046875
-0.21510072265625,-0.1298257080078125,0.8210728466796875
-0.1725504296875,-0.1357078759765625,0.775606025390625
-0.1667149609375,-0.1484525732421875,0.7674957275390625
-0.19808060546875,-0.20555862060546876,0.7257154052734375
-0.1647698046875,-0.19992154296875,0.6731213525390625
-0.16160892578125,-0.1602169091796875,0.669434853515625
-0.11079171875,-0.18399067138671876,0.66796025390625
-0.10617197265625,-0.22124440185546876,0.7517666650390625
-0.21315556640625,-0.17173615478515625,0.8402426416015625
-0.24719580078125,-0.21144078857421875,0.8458952734375
-0.24038775390625,-0.2435476220703125,0.8161575146484374
-0.18932740234375,-0.20065681396484375,0.78986048828125
-0.14604767578125,-0.1739419677734375,0.7842078564453125
-0.13097271484375,-0.1729616064453125,0.8643277685546875
-0.21364185546875,-0.242077080078125,0.875387265625
-0.22677166015625,-0.2082546142578125,0.840488408203125
-0.22482650390625,-0.20384298828125,0.7593854296875
-0.19078626953125,-0.2308029248046875,0.720554306640625
-0.20099833984375,-0.18840229736328126,0.736283369140625
-0.224583359375,-0.22810693115234376,0.78199595703125
-0.21072412109375,-0.23055783447265624,0.8564632373046875
-0.284883203125,-0.22467566650390625,0.9051250244140625
-0.2566784375,-0.2160975048828125,0.8599039697265625
-0.2532744140625,-0.18938265869140625,0.791335087890625
-0.20537494140625,-0.19771572998046874,0.77609755859375
-0.19273142578125,-0.21536223388671874,0.843437607421875
-0.17084841796875,-0.18006922607421874,0.9631259423828125
-0.205131796875,-0.20310771728515625,1.0452119873046875
-0.2396583203125,-0.19134338134765624,1.04152548828125
-0.207076953125,-0.17957904541015626,0.9857364697265625
-0.2124261328125,-0.14820748291015626,1.0339067236328126
-0.218747890625,-0.19183356201171875,1.1002637060546876
-0.294608984375,-0.19967645263671874,1.060695283203125
-0.30068759765624997,-0.17761832275390624,0.9007012255859375
-0.265431640625,-0.2278618408203125,0.83311541015625
