ax,ay,az
-0.2785614453125,-0.1641383544921875,1.0245675927734375
-0.34226531250000003,-0.20163717529296876,0.916184521484375
-0.30506419921875,-0.22663638916015624,0.8962774267578125
-0.23747001953125,-0.200901904296875,0.922082919921875
-0.27418484375,-0.24281235107421875,0.902913125
-0.1676875390625,-0.1778634130859375,0.96484630859375
-0.22579908203125,-0.2293323828125,0.9196252539062499
-0.22871681640625,-0.171491064453125,0.986965302734375
-0.2386857421875,-0.1587463671875,1.0073639306640625
-0.36366203125,-0.21095060791015624,0.9901602685546875
-0.39502767578125,-0.18521612304687501,0.9660751416015625
-0.4823165625,-0.27222319091796876,0.89209939453125
-0.42225986328125,-0.2141367822265625,0.8136998486328125
-0.34007701171875,-0.269527197265625,0.8223016796875
-0.33375525390625,-0.24477307373046875,0.8618701025390625
-0.25084296875,-0.18006922607421874,0.92552365234375
-0.356853984375,-0.25114542236328125,0.9488714794921875
-0.44292714843750003,-0.18350049072265626,0.9577190771484375
-0.49520322265625,-0.2043331689453125,0.853268271484375
-0.44706060546875,-0.175412509765625,0.79969115234375
-0.4857205859375,-0.15556019287109374,0.8068183837890625
-0.39065107421875,-0.13889405029296875,0.8923451611328125
-0.366579765625,-0.18153976806640626,0.9400238818359374
-0.4244481640625,-0.11487519775390626,0.98647376953125
-0.41885583984375,-0.11634573974609375,0.9818042041015624
-0.4356328125,-0.08007237060546875,0.9601767431640625
-0.43757796875,-0.104826494140625,0.954524111328125
-0.458002109375,-0.134237333984375,0.9901602685546875
-0.4278521875,-0.1749223291015625,0.9739396728515625
-0.45143720703125,-0.2229600341796875,0.8812856640625
-0.39089421875,-0.25874322265625,0.885709462890625
-0.4147223828125,-0.24134180908203126,0.8613785693359375
-0.37703498046875,-0.27957590087890627,0.871946533203125
-0.41739697265625,-0.23153819580078125,0.9129895556640625
-0.40280830078125,-0.27050755859375,0.9186421875
-0.5051721484375,-0.228352021484375,0.9021758251953125
-0.467727890625,-0.22222476318359374,0.9075826904296875
-0.4565432421875,-0.24575343505859376,0.936828916015625
-0.48693630859375,-0.20653898193359374,0.946168046875
-0.36682291015625,-0.25482177734375,0.9316678173828125
-0.39210994140625,-0.21977385986328124,0.9360916162109375
-0.43879369140625,-0.220509130859375,0.9402696484374999
-0.47477908203125,-0.24771415771484376,0.869980400390625
-0.4667553125,-0.22859711181640624,0.82721701171875
-0.49885039062500003,-0.24820433837890626,0.8242678125
-0.46408072265625,-0.2768799072265625,0.8756330322265625
-0.35223423828125,-0.27271337158203124,1.0363643896484376
-0.4419545703125,-0.2288422021484375,1.1073909375
-0.43174250000000003,-0.19869609130859375,1.0982975732421876
-0.4798851171875,-0.196980458984375,1.063644482421875
-0.446331171875,-0.17810850341796874,1.0697886474609375
-0.485234296875,-0.24477307373046875,1.00810123046875
-0.49666208984375,-0.21634259521484375,0.979100771484375
-0.41934212890625,-0.2229600341796875,0.921099853515625
-0.477453671875,-0.22369530517578126,0.87637033203125
-0.403537734375,-0.26658611328125,0.847369873046875
-0.43441708984375,-0.29379114013671875,0.8692431005859375
-0.442440859375,-0.22173458251953124,0.9402696484374999
-0.470645625,-0.3043300244140625,0.8957858935546875
-0.50152498046875,-0.23349891845703125,0.84786140625
-0.46067669921875,-0.21732295654296874,0.8476156396484374
-0.47234763671875,-0.2607039453125,0.891116328125
-0.48985404296875,-0.20997024658203126,0.8859552294921875
-0.45581380859375,-0.20384298828125,0.870963466796875
-0.45702953125,-0.242077080078125,0.8544971044921875
-0.458002109375,-0.2528610546875,0.8230389794921875
-0.42323244140625,-0.2668312036132813,0.8127167822265625
-0.45484123046875,-0.1915884716796875,0.8574463037109374
-0.49617580078125,-0.23153819580078125,0.896523193359375
-0.44851947265625003,-0.19820591064453125,1.0152284619140626
-0.531918046875,-0.16977543212890625,1.0791277783203126
-0.51149390625,-0.198941181640625,1.0501273193359375
-0.4983641015625,-0.18252012939453124,0.9532952783203125
-0.46797103515625,-0.18938265869140625,0.958456376953125
-0.51465478515625,-0.177373232421875,0.99433830078125
-0.55793451171875,-0.196980458984375,1.0063808642578125
-0.54042810546875,-0.1641383544921875,1.01203349609375
-0.51222333984375,-0.233253828125,0.924049052734375
-0.48790888671875,-0.242077080078125,0.8692431005859375
-0.45143720703125,-0.2906049658203125,0.846386806640625
-0.46748474609375,-0.2739388232421875,0.835573076171875
-0.4925286328125,-0.27050755859375,0.809030283203125
-0.5246237109375,-0.24575343505859376,0.784453623046875
-0.5119801953125,-0.25653740966796873,0.75447009765625
-0.4944737890625,-0.30065366943359373,0.7119524755859374
-0.47137505859375,-0.343054296875,0.762826162109375
-0.470645625,-0.39133709228515623,0.9011927587890625
-0.51465478515625,-0.2357047314453125,0.9665666748046875
-0.4847480078125,-0.087179990234375,1.0543053515625
-0.481343984375,-0.18693175537109374,1.096085673828125
-0.47404964843749997,-0.11561046875,1.130492998046875
-0.4273658984375,-0.10972830078125,1.0766701123046876
-0.3816547265625,-0.212666240234375,1.03562708984375
-0.479398828125,-0.2366850927734375,0.94911724609375
-0.38967849609375,-0.18031431640625,0.92159138671875
-0.34445361328125,-0.2955067724609375,0.891116328125
-0.46262185546875,-0.2866835205078125,0.9292101513671875
-0.310170234375,-0.2092349755859375,0.8043607177734375
-0.27831830078124997,-0.25359632568359375,0.7665126611328125
-0.28609892578125,-0.2869286108398437,0.8599039697265625
-0.28074974609375003,-0.2798209912109375,0.9272440185546875
-0.28561263671875,-0.26830174560546877,0.922082919921875
-0.37168580078125,-0.27835044921875,0.94125271484375
-0.3106565234375,-0.200901904296875,0.91372685546875
-0.28707150390625,-0.18742193603515625,0.9601767431640625
-0.33813185546875,-0.20997024658203126,1.09067880859375
-0.354908828125,-0.1435507666015625,1.1479424267578124
-0.28196546875,-0.14281549560546875,1.038084755859375
-0.316005703125,-0.2053135302734375,0.9174133544921875
-0.27685943359375,-0.08644471923828125,0.8930824609375
-0.3913805078125,-0.1778634130859375,0.85277673828125
-0.346155625,-0.20653898193359374,0.89996392578125
-0.37022693359375003,-0.25604722900390625,0.910286123046875
-0.3194097265625,-0.21830331787109375,0.934862783203125
-0.3033621875,-0.23913599609375,0.9277355517578125
-0.4633512890625,-0.1886473876953125,0.955507177734375
-0.33083751953125,-0.1857063037109375,0.9950756005859375
-0.524137421875,-0.25310614501953127,0.983033037109375
-0.41156150390625,-0.18006922607421874,1.024321826171875
-0.405482890625,-0.1822750390625,0.9641090087890625
-0.42225986328125,-0.16928525146484374,0.9056165576171875
-0.3111428125,-0.1660990771484375,0.8989808593749999
-0.36439146484375,-0.2023724462890625,0.959439443359375
-0.4215304296875,-0.195019736328125,0.9815584374999999
-0.4118046484375,-0.14918784423828124,0.8844806298828125
-0.4409819921875,-0.19771572998046874,0.8171405810546875
-0.40621232421875,-0.183255400390625,0.7935469873046875
-0.42128728515625,-0.2033528076171875,0.796250419921875
-0.372415234375,-0.1229631787109375,0.89406552734375
-0.38578818359375,-0.20898988525390624,0.970253173828125
-0.47866939453125,-0.21585241455078125,1.008592763671875
-0.40329458984375,-0.16144236083984376,0.9808211376953125
-0.45168035156249997,-0.21438187255859376,0.871946533203125
-0.35588140625,-0.22320512451171876,0.8576920703124999
-0.29825615234375,-0.2180582275390625,0.976151572265625
-0.40718490234375,-0.2629097583007812,1.009084296875
-0.31673513671875,-0.11830646240234374,1.0503730859375
-0.3826273046875,-0.19036302001953126,0.923065986328125
-0.40815748046875,-0.09012107421875,0.8982435595703124
-0.35199109375,-0.19600009765625,0.9048792578125
-0.3811684375,-0.1288453466796875,0.958456376953125
-0.46067669921875,-0.19281392333984376,0.9950756005859375
-0.41399294921875,-0.2023724462890625,0.96681244140625
-0.37946642578125,-0.1906081103515625,0.9284728515625
-0.42712275390625,-0.19722554931640626,0.84884447265625
-0.32597462890625,-0.17075579345703126,0.849336005859375
-0.2892598046875,-0.220509130859375,0.9242948193359375
-0.386031328125,-0.2033528076171875,0.9449392138671875
-0.2678630859375,-0.14477621826171874,0.9670582080078125
-0.378250703125,-0.18006922607421874,0.9552614111328125
-0.40086314453125,-0.16487362548828124,0.93732044921875
-0.37606240234375,-0.19428446533203125,0.8712092333984375
-0.43538966796875,-0.21438187255859376,0.86850580078125
-0.330594375,-0.15114856689453124,0.9351085498046875
-0.362689453125,-0.16462853515625,1.0358728564453126
-0.3563676953125,-0.19183356201171875,1.0697886474609375
-0.3437241796875,-0.1396293212890625,1.06315294921875
-0.31673513671875,-0.1562954638671875,1.0661021484375
-0.33910443359375,-0.18546121337890625,1.045949287109375
-0.41812640624999997,-0.18104958740234375,0.9891772021484375
-0.38335673828125,-0.144040947265625,0.9346170166015625
-0.44365658203125,-0.19379428466796875,0.81640328125
-0.32086859375,-0.05017135009765625,0.801165751953125
-0.3583128515625,-0.2053135302734375,0.7306307373046875
-0.30895451171875,-0.10213050048828125,0.8564632373046875
-0.3904079296875,-0.1190417333984375,0.9188879541015624
-0.46651216796875,-0.1494329345703125,0.8653108349609375
-0.3719289453125,-0.161687451171875,0.770690693359375
-0.39162365234375,-0.193059013671875,0.7335799365234374
-0.34542619140624997,-0.210705517578125,0.750046298828125
-0.31989601562500003,-0.1768830517578125,0.801165751953125
-0.33181009765625,-0.11757119140625,0.8805483642578125
-0.4030514453125,-0.14869766357421876,0.9501003125
-0.38384302734375,-0.03546593017578125,0.9852449365234375
-0.4137498046875,-0.03252484619140625,1.005643564453125
-0.38530189453125,-0.08619962890625,1.0167030615234376
-0.36050115234375,-0.0886505322265625,1.038084755859375
-0.46505330078125,-0.06144550537109375,1.0304659912109375
-0.4156949609375,-0.035711020507812496,0.990897568359375
-0.39162365234375,-0.075415654296875,0.9127437890625
-0.3578265625,-0.037916833496093746,1.0044147314453125
-0.45240978515625,-0.09722869384765626,1.0491442529296875
-0.36050115234375,-0.083258544921875,0.969761640625
-0.28123603515625,-0.02958376220703125,0.8967689599609375
-0.4565432421875,-0.10580685546875,0.896523193359375
-0.4049966015625,-0.0337502978515625,0.94125271484375
-0.38238416015625,-0.13889405029296875,0.871946533203125
-0.31989601562500003,-0.0803174609375,0.9599309765625
-0.34032015625,-0.05213207275390625,1.099034873046875
-0.44292714843750003,-0.14477621826171874,1.1381117626953126
-0.4857205859375,-0.08350363525390625,1.0319405908203125
-0.38676076171875,-0.11928682373046876,0.98942296875
-0.3330258203125,-0.138158779296875,0.9881941357421875
-0.41010263671875,-0.25114542236328125,0.9193794873046874
-0.42663646484375,-0.23521455078125,0.8721922998046875
-0.3544225390625,-0.11095375244140625,0.807064150390625
-0.37557611328125,-0.296977314453125,0.7429190673828125
-0.26664736328125,-0.1337471533203125,0.8638362353515625
-0.4691867578125,-0.06977857666015624,0.8972604931640625
-0.42371873046874997,-0.0543378857421875,0.8957858935546875
-0.4458448828125,-0.07517056396484376,0.900455458984375
-0.37654869140625,0.05031568603515625,0.958456376953125
-0.38457246093749997,0.0201695751953125,0.983033037109375
-0.40037685546875,0.00791505859375,1.00515203125
-0.3573402734375,0.01698340087890625,1.02088109375
-0.40645546875,0.020659755859375,0.9808211376953125
-0.37654869140625,-0.0415931884765625,0.98942296875
-0.3505322265625,-0.11438501708984375,0.9990078662109375
-0.4589746875,-0.1219828173828125,1.062661416015625
-0.4244481640625,-0.057278969726562504,0.991880634765625
-0.44365658203125,-0.144040947265625,0.8377849755859375
-0.39600025390625,-0.128355166015625,0.82525087890625
-0.2566784375,-0.07958218994140626,0.977134638671875
-0.46067669921875,-0.07860182861328124,1.09067880859375
-0.4409819921875,-0.045024453125,1.1061621044921874
-0.4662690234375,-0.1979608203125,0.9365831494140625
-0.341292734375,-0.10016977783203125,0.8874298291015625
-0.42371873046874997,-0.13056097900390626,0.8839890966796875
-0.42955419921875,-0.20408807861328124,0.95304951171875
-0.45240978515625,-0.1896277490234375,0.902913125
-0.37411724609375,-0.1553151025390625,0.8267254785156251
-0.4511940625,-0.1935491943359375,0.7534870312499999
-0.3096839453125,-0.1435507666015625,0.748080166015625
-0.42760904296875,-0.1082577587890625,0.84491220703125
-0.40475345703125,-0.04919098876953125,0.9783634716796875
-0.40183572265625,-0.08497417724609375,0.999745166015625
-0.43830740234375,-0.03644629150390625,0.9881941357421875
-0.37411724609375,-0.085219267578125,0.9498545458984375
-0.41204779296875,-0.01830960693359375,0.93437125
-0.37606240234375,-0.08644471923828125,0.965337841796875
-0.46942990234375,-0.12075736572265625,0.9591936767578125
-0.3602580078125,-0.06977857666015624,0.9582106103515625
-0.42128728515625,-0.15359947021484374,0.8262339453125
-0.3694975,-0.1347275146484375,0.7940385205078125
-0.37898013671874997,-0.1396293212890625,0.736283369140625
-0.44706060546875,-0.1778634130859375,0.6465785595703125
-0.34299474609375,-0.09771887451171875,0.6539515576171875
-0.34226531250000003,-0.20359789794921876,0.6495277587890624
-0.41399294921875,-0.048945898437499996,0.705808310546875
-0.32305689453124997,-0.00948635498046875,0.8603955029296875
-0.417153828125,-0.1092381201171875,0.9292101513671875
-0.44073884765625,-0.0063001806640625,1.0501273193359375
-0.377278125,-0.02370159423828125,1.075441279296875
-0.403537734375,-0.0661022216796875,0.9714820068359376
-0.35855599609375,0.02482629150390625,0.9717277734375
-0.45240978515625,-0.081297822265625,0.9321593505859375
-0.4127772265625,-0.00948635498046875,0.95501564453125
-0.4059691796875,-0.046740085449218746,0.93142205078125
-0.44608802734374997,-0.10752248779296875,0.951574912109375
-0.40815748046875,-0.0994345068359375,1.0029401318359374
-0.34299474609375,-0.19183356201171875,1.0216183935546874
-0.38919220703125,-0.1719812451171875,1.065610615234375
-0.419098984375,-0.13350206298828124,1.0933822412109375
-0.43684853515625,-0.1641383544921875,1.0427543212890624
-0.45411179687500003,-0.1788437744140625,0.9950756005859375
-0.5236511328125,-0.1749223291015625,0.99040603515625
-0.475508515625,-0.13325697265625,0.9877026025390625
-0.41885583984375,-0.23251855712890626,0.965829375
-0.4691867578125,-0.23938108642578126,0.9717277734375
-0.255705859375,-0.15457983154296875,0.9154472216796875
-0.43733482421875003,-0.275409365234375,0.8500733056640625
-0.40572603515625,-0.1386489599609375,0.9921264013671875
-0.4176401171875,-0.1798241357421875,0.9717277734375
-0.4633512890625,-0.1116890234375,1.06315294921875
-0.44025255859375,-0.1386489599609375,1.216019775390625
-0.479398828125,-0.1435507666015625,1.1533492919921875
-0.44949205078125,-0.09036616455078125,1.0845346435546874
-0.45532751953125,-0.1111988427734375,0.957473310546875
-0.3874901953125,-0.1278649853515625,0.9641090087890625
-0.391866796875,-0.17859868408203125,1.00220283203125
-0.44414287109375,-0.19526482666015624,1.0201437939453124
-0.4730770703125,-0.151883837890625,0.92748978515625
-0.42080099609375,-0.23398909912109375,0.7871570556640625
-0.31284482421875,-0.196980458984375,0.71711357421875
-0.397702265625,-0.1759026904296875,0.810996416015625
-0.35588140625,-0.12860025634765626,0.959439443359375
-0.47380650390625,-0.22467566650390625,0.9559987109375
-0.4730770703125,-0.00581,1.0029401318359374
-0.38457246093749997,-0.0523771630859375,0.9385492822265625
-0.39065107421875,-0.16242272216796874,0.951574912109375
-0.411318359375,-0.035711020507812496,1.0894499755859375
-0.4011062890625,-0.02762303955078125,1.0771616455078126
-0.4798851171875,-0.04698517578125,0.954032578125
-0.29339326171875,-0.029338671875,0.99433830078125
-0.456056953125,-0.045024453125,0.9936010009765625
-0.5071173046875,-0.0121823486328125,0.9911433349609375
-0.459947265625,-0.0533575244140625,0.9365831494140625
-0.30749564453125,-0.1259042626953125,0.8557259375
-0.4915560546875,-0.11242429443359375,0.7554531640625
-0.41447923828125,-0.08546435791015625,0.713672841796875
-0.3578265625,-0.1180613720703125,0.669434853515625
-0.3077387890625,0.04002189208984375,0.758893896484375
-0.30895451171875,-0.091101435546875,0.926015185546875
-0.3967296875,-0.1102184814453125,1.0806023779296874
-0.42615017578125003,-0.045024453125,1.1722733203125
-0.587355,-0.07075893798828126,0.9808211376953125
-0.31697828125,0.02752228515625,0.96484630859375
-0.44730375,0.00325834228515625,1.212087509765625
-0.45532751953125,-0.030073942871093752,1.013508095703125
-0.43636224609375,-0.02762303955078125,0.8485987060546875
-0.2970404296875,-0.0729647509765625,0.75840236328125
-0.2999581640625,-0.0994345068359375,0.68565544921875
-0.2902323828125,-0.08350363525390625,0.6696806201171875
-0.30020130859375,-0.03938737548828125,0.7090032763671875
-0.255705859375,-0.05458297607421875,0.8466325732421875
-0.35904228515625003,-0.00777072265625,0.970253173828125
-0.43295822265625,0.02041466552734375,1.1051790380859374
-0.3811684375,-0.11364974609375,1.1017383056640626
-0.4789125390625,-0.03693647216796875,1.06708521484375
-0.345183046875,-0.124433720703125,1.0447204541015624
-0.31819400390625,-0.10997339111328125,1.0506188525390625
-0.43247193359375,-0.1111988427734375,1.0235845263671874
-0.36755234375,-0.0857094482421875,0.9442019140625
-0.33278267578125,-0.17957904541015626,0.81345408203125
-0.27394169921875,-0.07124911865234375,0.8783364648437499
-0.45411179687500003,-0.04772044677734375,0.9326508837890625
-0.3427516015625,-0.11928682373046876,0.93142205078125
-0.42201671875,-0.01978014892578125,0.98057537109375
-0.3602580078125,-0.10580685546875,0.9287186181640625
-0.2036729296875,-0.0455146337890625,0.8554801708984375
-0.29509527343749997,0.0525214990234375,0.9685328076171875
-0.5100350390625,0.026541923828125,1.2025026123046876
-0.48985404296875,0.04933532470703125,1.2074179443359374
-0.448276328125,0.09884357177734375,1.1558069580078125
-0.47429279296875,0.0535018603515625,1.0407881884765624
-0.372415234375,-0.0474753564453125,0.85474287109375
-0.34348103515625,-0.0327699365234375,0.726452705078125
-0.3884627734375,-0.01732924560546875,0.7276815380859375
-0.321841171875,-0.07051384765625,0.6571465234375
-0.37508982421875,0.015022678222656249,0.63846826171875
-0.31989601562500003,0.04712951171875,0.6411716943359375
-0.34299474609375,0.00178780029296875,0.730384970703125
-0.4589746875,0.00472888427734375,0.791335087890625
-0.34931650390625,0.0530116796875,0.8628531689453125
-0.3889490625,-0.01683906494140625,0.895540126953125
-0.37338781249999997,0.08609887451171874,1.1027213720703124
-0.37144265625,0.0280124658203125,1.1621968896484376
-0.32840607421875,0.05570767333984375,1.174730986328125
-0.36196001953125,0.02923791748046875,1.2054518115234374
-0.3913805078125,-0.03203466552734375,1.0707717138671875
-0.26907880859375,0.010611052246093749,1.0088385302734375
-0.43247193359375,-0.044044091796875,0.9793465380859375
-0.372415234375,-0.05482806640625,0.941744248046875
-0.31868029296875,0.0123266845703125,0.89406552734375
-0.44730375,-0.01291761962890625,0.912252255859375
-0.34810078125,-0.0249270458984375,0.947642646484375
-0.38311359375,-0.0425735498046875,0.9847534033203125
-0.3699837890625,-0.0661022216796875,0.9803296044921875
-0.3583128515625,-0.07566074462890625,0.9621428759765625
-0.44851947265625003,-0.12663953369140624,0.8775991650390624
-0.31333111328125,-0.10580685546875,0.7778179248046875
-0.42080099609375,-0.16438344482421874,0.709740576171875
-0.30214646484375,-0.05899460205078125,0.7571735302734375
-0.36974064453125,-0.0641414990234375,0.7375122021484375
-0.39794541015625,-0.02737794921875,0.8144371484375
-0.36730919921875,0.026541923828125,0.8849721630859375
-0.35855599609375,0.012816865234374999,0.8702261669921875
-0.41496552734375003,0.01845394287109375,0.86653966796875
-0.43879369140625,-0.0055649096679687505,0.861132802734375
-0.36536404296875,0.07825598388671876,0.9700074072265625
-0.38724705078125,-0.03595611083984375,0.9397781152343749
-0.45921783203125,0.0451687890625,0.933879716796875
-0.28998923828125,0.08266760986328126,0.8891501953125
-0.34104958984375,0.0010525292968750002,0.7908435546875
-0.31697828125,0.05031568603515625,0.9284728515625
-0.3262177734375,0.0613447509765625,1.0127707958984375
-0.510521328125,0.023845930175781252,0.9614055761718749
-0.42712275390625,0.0348749951171875,0.84884447265625
-0.29776986328125,-0.10899302978515625,0.7458682666015625
-0.24622322265625,0.00178780029296875,0.88226873046875
-0.38287044921875,0.02286556884765625,1.0368559228515626
-0.37557611328125,0.0451687890625,1.1012467724609376
-0.37533296875,-0.00605509033203125,0.9813126708984374
-0.33472783203125,-0.10507158447265624,0.9188879541015624
-0.2785614453125,0.0789912548828125,1.0063808642578125
-0.45192349609375,-0.081297822265625,0.98647376953125
-0.36050115234375,-0.0406128271484375,1.037101689453125
-0.3116291015625,-0.05311243408203125,0.929947451171875
-0.33813185546875,-0.0011532836914062497,0.8766160986328125
-0.26567478515625,-0.046740085449218746,0.918150654296875
-0.40694175781249997,-0.01438816162109375,0.9695158740234375
-0.279047734375,0.0691876416015625,1.0319405908203125
-0.43879369140625,-0.0464949951171875,1.0309575244140625
-0.41982841796875,0.0348749951171875,1.0584833837890626
-0.35855599609375,-0.14428603759765624,0.9257694189453125
-0.421044140625,0.0515411376953125,0.9700074072265625
-0.29533841796875,0.0294830078125,1.0093300634765625
-0.4098594921875,-0.15556019287109374,1.0346440234375
-0.2707808203125,-0.01830960693359375,1.0759328125
-0.5090624609375,-0.09526797119140624,0.8520394384765625
-0.31478998046875,-0.13301188232421876,0.8117337158203125
-0.36828177734375,-0.10556176513671875,0.8338527099609375
-0.40815748046875,-0.02149578125,0.93142205078125
-0.32548833984375003,-0.0631611376953125,1.007609697265625
-0.4001337109375,-0.13007079833984375,1.048406953125
-0.41934212890625,0.01159141357421875,1.1346710302734375
-0.47332021484375,-0.01389798095703125,1.0201437939453124
-0.37144265625,-0.0009081933593750001,0.865065068359375
-0.36050115234375,0.023845930175781252,0.9980247998046875
-0.33375525390625,-0.0553182470703125,1.0255506591796875
-0.3651208984375,-0.1523740185546875,1.012525029296875
-0.3369161328125,0.073599267578125,1.1258234326171874
-0.43830740234375,0.05325677001953125,1.02579642578125
-0.42955419921875,0.0103659619140625,0.9582106103515625
-0.30895451171875,0.0897752294921875,1.067576748046875
-0.42858162109375,-0.1111988427734375,1.041033955078125
-0.310170234375,0.09737302978515625,0.941744248046875
-0.29752671875000003,-0.110708662109375,0.7891231884765625
-0.33035123046875,0.015022678222656249,0.8471241064453126
-0.2104809765625,0.0299731884765625,0.9203625537109374
-0.31624884765625,-0.04134809814453125,0.9582106103515625
-0.34883021484375,0.010856142578125,1.1233657666015624
-0.40256515625,0.02237538818359375,1.217002841796875
-0.41107521484375,-0.04575972412109375,1.0511103857421875
-0.3077387890625,-0.02174087158203125,0.9127437890625
-0.23917203125,-0.06438658935546875,0.924049052734375
-0.37508982421875,-0.06879821533203125,1.05233921875
-0.31916658203125,0.00717978759765625,1.0801108447265624
-0.51951767578125,-0.11683592041015625,0.91077765625
-0.27880458984375,-0.029338671875,0.8301662109375
-0.263486484375,-0.05654369873046875,0.7699533935546875
-0.34226531250000003,-0.0788469189453125,0.8943112939453125
-0.27418484375,-0.03742665283203125,0.983033037109375
-0.3262177734375,-0.10507158447265624,0.9429730810546875
-0.36974064453125,-0.01585870361328125,0.980083837890625
-0.47842625,-0.0411030078125,0.8997181591796874
-0.421044140625,-0.03914228515625,0.8132083154296875
-0.4302836328125,0.01894412353515625,0.86260740234375
-0.44997833984375,0.01747358154296875,0.9262609521484375
-0.2143712890625,0.07457962890625,0.9144641552734375
-0.2834243359375,0.05129604736328125,0.9213456201171875
-0.44657431640625,0.11403917236328125,0.972219306640625
-0.28950294921874997,0.15717507080078125,0.94911724609375
-0.4234755859375,0.083402880859375,0.8967689599609375
-0.5022544140625,0.09443194580078125,0.904387724609375
-0.31308796875,-0.02664267822265625,0.912252255859375
-0.4545980859375,0.04320806640625,0.8987350927734374
-0.2970404296875,-0.07566074462890625,0.8589209033203125
-0.399647421875,-0.13007079833984375,0.902421591796875
-0.31965287109375,0.06698182861328125,0.954524111328125
-0.386031328125,-0.008751083984375,0.903404658203125
-0.40086314453125,-0.057769150390625,0.9144641552734375
-0.33764556640625,0.0162481298828125,0.8692431005859375
-0.21996361328125,-0.0006631030273437505,0.8569547705078124
-0.2814791796875,-0.0249270458984375,0.9614055761718749
-0.337402421875,-0.06267095703125,0.9877026025390625
-0.21899103515625,0.10399046875,1.1356540966796875
-0.54261640625,0.03144373046875,1.205206044921875
-0.51222333984375,0.06796218994140625,1.1447474609375
-0.346155625,0.09100068115234375,1.05528841796875
-0.2221519140625,-0.05556333740234375,0.9965502001953125
-0.51270962890625,0.05619785400390625,0.98843990234375
-0.3660934765625,0.0711483642578125,0.9061080908203125
-0.37703498046875,0.06109966064453125,0.7507835986328125
-0.3096839453125,0.01992448486328125,0.6947488134765625
-0.27442798828125,-0.00458454833984375,0.638959794921875
-0.25084296875,0.06624655761718751,0.7276815380859375
-0.19078626953125,0.00619942626953125,0.8087845166015625
-0.3009307421875,-0.1729616064453125,0.8839890966796875
-0.24719580078125,0.0848734228515625,1.11230626953125
-0.52535314453125,0.044188427734375,1.1602307568359376
-0.59708078125,-0.075415654296875,1.1427813281249999
-0.4614061328125,-0.0097314453125,1.1690783544921874
-0.35904228515625003,-0.1621776318359375,0.9820499707031249
-0.27029453125,-0.191098291015625,0.84491220703125
-0.1560166015625,-0.1582561865234375,0.8078014501953125
-0.15042427734375,-0.03448556884765625,0.888658662109375
-0.226528515625,0.0348749951171875,1.087729609375
-0.37508982421875,0.04712951171875,1.323665546875
-0.48255970703125,0.1201664306640625,1.3455387744140626
-0.308225078125,0.06698182861328125,1.2246216064453126
-0.44754689453125,0.028502646484374998,1.024321826171875
-0.48596373046875,0.11305881103515625,0.9837703369140625
-0.3962433984375,-0.006790361328125,0.8970147265625
-0.430769921875,0.0878145068359375,0.819844013671875
-0.26081189453125,0.13217585693359374,0.78396208984375
-0.24525064453125,-0.01830960693359375,0.7866655224609375
-0.20877896484375,-0.01683906494140625,0.856217470703125
-0.20732009765625,0.015022678222656249,0.9542783447265625
-0.26907880859375,0.0250713818359375,1.111323203125
-0.3656071875,0.01796376220703125,1.2649273291015626
-0.43441708984375,0.07972652587890625,1.2418252685546876
-0.3427516015625,0.127519140625,1.109848603515625
-0.467727890625,0.02531647216796875,0.9498545458984375
-0.3656071875,0.0682072802734375,0.93732044921875
-0.33959072265625,0.04443351806640625,0.8368019091796874
-0.29582470703125,-0.09232688720703125,0.769707626953125
-0.1949197265625,-0.07713128662109375,0.8019030517578125
-0.304334765625,-0.076396015625,0.7952673535156249
-0.27929087890625,-0.12026718505859375,0.864082001953125
-0.329621796875,-0.1092381201171875,0.9759058056640625
-0.31770771484375,-0.07664110595703125,1.00416896484375
-0.1501811328125,-0.01169216796875,1.0137538623046876
-0.07407689453124999,-0.028358310546875,1.1779259521484375
-0.4195852734375,0.0927163134765625,1.3883021630859376
-0.62261095703125,0.15227326416015624,1.4192687548828125
-0.5217059765625,0.09296140380859375,1.0624156494140624
-0.32743349609375,0.15276344482421875,0.914709921875
-0.2600824609375,0.09884357177734375,0.8245135791015625
-0.247925234375,0.01575794921875,0.7534870312499999
-0.30311904296875003,-0.1170810107421875,0.663044921875
-0.3194097265625,-0.12271808837890624,0.5512211181640625
-0.24695265625,0.0010525292968750002,0.601603271484375
-0.27442798828125,-0.05311243408203125,0.71318130859375
-0.209022109375,-0.06683749267578125,0.8183694140625
-0.33861814453125,0.02139502685546875,0.8970147265625
-0.37898013671874997,-0.0768861962890625,0.837539208984375
-0.34810078125,-0.00507472900390625,0.891116328125
-0.376305546875,0.06502110595703126,1.0117877294921875
-0.3631757421875,0.046149150390625,1.1017383056640626
-0.31673513671875,0.04737460205078125,1.093136474609375
-0.245980078125,0.175556845703125,0.8773533984374999
-0.14750654296875,0.1701648583984375,0.823776279296875
-0.18203306640625,0.16011615478515626,0.9493630126953125
-0.2800203125,0.1510478125,1.242562568359375
-0.51222333984375,-0.02027032958984375,1.3720815673828124
-0.57252318359375,0.021885207519531248,1.252393232421875
-0.42906791015625,-0.11242429443359375,0.8105048828125
-0.337402421875,-0.059729873046875,0.6043067041015625
-0.25983931640625,-0.0023787353515625003,0.5477803857421875
-0.22823052734375,-0.006790361328125,0.575060478515625
-0.22044990234375,-0.0411030078125,0.748080166015625
-0.31308796875,0.01747358154296875,0.9734481396484375
-0.38238416015625,-0.068553125,1.144255927734375
-0.2999581640625,-0.015368522949218751,1.1774344189453125
-0.40232201171875,0.0515411376953125,1.0545511181640626
-0.32597462890625,-0.04968116943359375,0.9478884130859375
-0.31089966796875,-0.07370002197265625,0.8984893261718749
-0.40475345703125,-0.09477779052734375,1.0049062646484375
-0.3583128515625,-0.1543347412109375,1.0112961962890625
-0.51173705078125,-0.20016663330078124,0.864082001953125
-0.34056330078125,-0.02370159423828125,0.944693447265625
-0.31381740234375,-0.08595453857421875,0.8407341748046875
-0.35661083984374997,-0.0386521044921875,0.8431918408203125
-0.24670951171875,0.10227483642578125,0.9311762841796875
-0.26907880859375,0.0319339111328125,0.965337841796875
-0.36633662109375,0.14639109619140625,1.0063808642578125
-0.36974064453125,0.114774443359375,0.9992536328125
-0.28974609375,0.11599989501953126,0.914218388671875
-0.36463460937500003,0.09100068115234375,0.8495817724609375
-0.31819400390625,0.01992448486328125,0.875387265625
-0.34104958984375,-0.0210056005859375,0.9026673583984375
-0.4098594921875,-0.057278969726562504,0.8820229638671875
-0.39454138671875,-0.059729873046875,0.829674677734375
-0.30919765625,-0.110708662109375,0.7606142626953125
-0.34810078125,-0.0592396923828125,0.8510563720703125
-0.24087404296875,0.08217742919921875,0.9832788037109375
-0.46286499999999997,-0.02860340087890625,0.9085657568359375
-0.11687033203125,0.0613447509765625,0.933879716796875
-0.21266927734375,0.10521592041015625,0.987948369140625
-0.4643238671875,0.132420947265625,1.086255009765625
-0.40378087890625003,0.21060476318359375,1.0899415087890625
-0.47842625,0.0373258984375,0.8918536279296875
-0.23698373046875,0.042227705078125,0.799199619140625
-0.42031470703125,-0.02370159423828125,0.8127167822265625
-0.14118478515625,-0.0621807763671875,0.8171405810546875
-0.4195852734375,-0.1739419677734375,0.752012431640625
-0.35612455078125,-0.059484782714843754,0.698926845703125
-0.195406015625,-0.151883837890625,0.8987350927734374
-0.24330548828125,0.1044806494140625,1.1317218310546875
-0.4468174609375,0.21011458251953125,1.389039462890625
-0.34737134765625,0.152028173828125,1.650535126953125
-0.49204234375,0.324571767578125,1.5342875244140626
-0.34591248046875,0.103010107421875,1.2315030712890624
-0.21218298828125,-0.10556176513671875,0.9960586669921875
-0.2260422265625,-0.25506686767578124,0.7298934375
-0.1492085546875,-0.09526797119140624,0.476753837890625
-0.1141957421875,-0.1337471533203125,0.356819736328125
-0.12221951171875,-0.1651187158203125,0.3425652734375
-0.1929745703125,-0.0121823486328125,0.541636220703125
-0.23649744140625,-0.006790361328125,0.83311541015625
-0.30409162109375,0.1015395654296875,1.3312843115234374
-0.339347578125,0.175556845703125,1.874674267578125
-0.2639727734375,0.080461796875,2.032947958984375
-0.53021603515625,-0.012672529296875,1.923827587890625
-0.4589746875,-0.05090662109375,1.3964124609375
-0.4886383203125,-0.08840544189453126,0.9936010009765625
-0.33132380859375,0.0368357177734375,0.7625803955078125
-0.16063634765625,-0.1043363134765625,0.61880693359375
-0.2756437109375,-0.00409436767578125,0.7502920654296875
-0.37119951171875,-0.13840386962890625,0.7711822265625
-0.3126016796875,-0.05164189208984375,0.554416083984375
-0.20537494140625,-0.01095689697265625,0.419244453125
-0.16015005859375,-0.0964934228515625,0.3049629833984375
-0.074806328125,-0.07909200927734375,0.3118444482421875
-0.1783858984375,-0.09796396484375,0.47921150390625
-0.121490078125,-0.13595296630859374,0.736283369140625
-0.1832487890625,-0.0386521044921875,1.1931634814453125
-0.428824765625,0.0883046875,1.6473401611328125
-0.5304591796875,0.150067451171875,1.724756640625
-0.27029453125,0.03757098876953125,1.4733374072265626
-0.28950294921874997,0.16158669677734375,1.3524202392578124
-0.40086314453125,0.02237538818359375,1.146222060546875
-0.28561263671875,0.093206494140625,0.858183603515625
-0.092312734375,-0.00654527099609375,0.605535537109375
-0.0383346484375,-0.0043394580078125,0.40646458984375
-0.06435111328125,0.0564429443359375,0.3482179052734375
-0.13145900390625,-0.07173929931640625,0.5418819873046875
-0.36779548828124997,-0.06193568603515625,0.6500192919921874
-0.4049966015625,-0.07443529296875,0.862115869140625
-0.33132380859375,-0.10286577148437501,1.00810123046875
-0.1949197265625,0.11599989501953126,1.378717265625
-0.40232201171875,0.2927100244140625,1.5057785986328125
-0.4614061328125,0.2338883447265625,1.332021611328125
-0.2357680078125,0.09688284912109375,1.2791817919921875
-0.517329375,0.018699033203125,1.1223827001953124
-0.195406015625,-0.08227818359375,0.90782845703125
-0.14458880859375,-0.23349891845703125,0.6623076220703125
-0.1297569921875,-0.226391298828125,0.5369666552734375
-0.04246810546875,-0.18153976806640626,0.6028321044921875
-0.032499179687500004,-0.12663953369140624,0.751029365234375
-0.22579908203125,0.0868341455078125,0.97860923828125
-0.40864376953125,0.11403917236328125,1.191443115234375
-0.44268400390625,0.10570610107421875,1.37970033203125
-0.4302836328125,0.0652661962890625,1.313343349609375
-0.39745912109375,-0.0327699365234375,1.1211538671875
-0.32500205078125,0.0010525292968750002,1.189476982421875
-0.30992708984375,-0.10065995849609374,1.1005094726562499
-0.18446451171875,-0.19403937500000001,1.1189419677734376
-0.33618669921875,-0.04330882080078125,0.9655836083984375
-0.2396583203125,0.016738310546875,0.752012431640625
-0.13802390625,-0.11879664306640625,0.5254156249999999
-0.004780703125000001,-0.110708662109375,0.4691350732421875
-0.0067258593750000005,-0.03350520751953125,0.6060270703125
-0.10908970703125,0.026541923828125,0.8643277685546875
-0.2231244921875,0.03119864013671875,1.103458671875
-0.4030514453125,0.1079119140625,1.2501813330078124
-0.3811684375,0.1191860693359375,1.268122294921875
-0.329621796875,0.0044837939453125,1.2315030712890624
-0.3369161328125,0.0887948681640625,1.3204705810546875
-0.2464663671875,0.03315936279296875,1.2644357958984376
-0.23649744140625,0.0574233056640625,1.2280623388671874
-0.3096839453125,-0.0337502978515625,1.0943653076171875
-0.3028758984375,0.08168724853515624,0.9439561474609375
-0.22677166015625,0.021885207519531248,0.8360646093749999
-0.20148462890625,0.046149150390625,0.8105048828125
-0.12465095703125,0.013552136230468751,0.8132083154296875
-0.14458880859375,-0.13448242431640625,0.74070716796875
-0.17133470703125,-0.1116890234375,0.8451579736328125
-0.37265837890625,-0.10458140380859375,0.9051250244140625
-0.23990146484375,-0.23153819580078125,0.8323781103515625
-0.08963814453125,-0.05874951171875,1.149171259765625
-0.424934453125,0.049090234375,1.45637951171875
-0.4662690234375,-0.01585870361328125,1.285817490234375
-0.09839134765625,-0.020515419921875,1.023338759765625
-0.21193984375,-0.12909043701171874,0.902421591796875
-0.20440236328125,-0.0768861962890625,0.9331424169921875
-0.19516287109375,0.04933532470703125,0.959439443359375
-0.314060546875,0.02482629150390625,0.925032119140625
-0.27807515625,0.08364797119140625,0.89406552734375
-0.35126166015625,-0.03840701416015625,0.787402822265625
-0.1958923046875,0.12727405029296876,0.802148818359375
-0.3155194140625,0.16624341308593749,0.838522275390625
-0.39551396484375,0.09933375244140626,0.936828916015625
-0.2250696484375,0.05962911865234375,1.024321826171875
-0.31697828125,0.04051207275390625,1.148188193359375
-0.39794541015625,0.0750698095703125,1.3121145166015624
-0.50103869140625,-0.0038492773437499997,1.2708257275390624
-0.47477908203125,-0.02223105224609375,1.0466865869140625
-0.34056330078125,-0.0038492773437499997,0.769707626953125
-0.2668905078125,-0.12026718505859375,0.6514938916015625
-0.1025248046875,-0.04821062744140625,0.651739658203125
-0.14458880859375,-0.03056412353515625,0.8102591162109375
-0.3738741015625,0.069677822265625,0.973202373046875
-0.38092529296875,0.04982550537109375,1.0363643896484376
-0.27151025390625,0.0015427099609375003,0.96288017578125
-0.30214646484375,0.0476196923828125,0.902913125
-0.13826705078125,-0.076396015625,0.904387724609375
-0.27685943359375,0.00276816162109375,0.984016103515625
-0.48547744140625,0.0201695751953125,1.032186357421875
-0.206104375,-0.07860182861328124,0.984999169921875
-0.4555706640625,-0.00213364501953125,0.9965502001953125
-0.30457791015625,-0.0955130615234375,0.9095488232421876
-0.1579617578125,-0.1308060693359375,0.8505648388671875
-0.14799283203125,-0.07664110595703125,0.8537598046875
-0.12659611328125,-0.1474722119140625,0.79772501953125
-0.26032560546875,-0.05115171142578125,0.8948028271484375
-0.14264365234375,-0.00581,0.9169218212890625
-0.244034921875,0.0936966748046875,0.9606682763671874
-0.28074974609375003,0.10619628173828125,1.12410306640625
-0.28901666015625,-0.03987755615234375,1.1882481494140624
-0.25351755859375,0.0760501708984375,1.162934189453125
-0.40256515625,0.12090170166015625,1.003677431640625
-0.3515048046875,0.06281529296875,0.871946533203125
-0.23528171875,0.19638952392578124,0.8891501953125
-0.3271903515625,0.15815543212890626,0.822793212890625
-0.09134015625,0.0152677685546875,0.7861739892578125
-0.226528515625,0.09198104248046875,0.827708544921875
-0.2163164453125,0.15570452880859376,0.7817501904296875
-0.11395259765625,0.14050892822265626,0.8741584326171875
-0.21072412109375,-0.0415931884765625,1.0692971142578125
-0.09158330078125,0.03168882080078125,1.322190947265625
-0.3777644140625,0.14908708984375,1.4435996484375
-0.45824525390625,-0.08595453857421875,1.3878106298828126
-0.30214646484375,0.01159141357421875,1.2187232080078125
-0.52535314453125,-0.139139140625,1.0078554638671875
-0.28853037109375,-0.1690401611328125,1.048898486328125
-0.2085358203125,-0.12614935302734376,0.9616513427734374
-0.2143712890625,-0.20310771728515625,0.8223016796875
-0.11784291015625001,-0.2219796728515625,0.8122252490234375
-0.19637859375,-0.19036302001953126,0.924049052734375
-0.15139685546875,-0.08154291259765625,0.905370791015625
-0.2445212109375,-0.06095532470703125,0.8864467626953125
-0.32208431640625,-0.0170841552734375,0.900455458984375
-0.29096181640625,0.0535018603515625,0.9803296044921875
-0.22968939453125,0.02360083984375,0.96877857421875
-0.3485870703125,0.05129604736328125,1.01989802734375
-0.27102396484375,0.14124419921875,1.11820466796875
-0.4176401171875,0.12139188232421876,1.05528841796875
-0.38189787109375,0.12482314697265626,1.0663479150390625
-0.25740787109375,0.111833359375,0.9955671337890625
-0.28853037109375,0.1314405859375,0.946659580078125
-0.2027003515625,0.055462583007812497,0.9808211376953125
-0.26154132812499997,0.042227705078125,0.8957858935546875
-0.24427806640625,0.08511851318359374,0.7542243310546874
-0.30555048828125,0.0819323388671875,0.6910623144531249
-0.37703498046875,0.1064413720703125,0.7129355419921874
-0.2989855859375,0.13266603759765624,0.839996875
-0.26810623046875,0.1446754638671875,1.04545775390625
-0.45095091796875,0.11796061767578125,1.064627548828125
-0.33715927734375,0.080461796875,0.8815314306640625
-0.0859909765625,0.03536517578125,0.7370206689453125
-0.242089765625,0.0008074389648437498,0.847369873046875
-0.2386857421875,0.05423713134765625,1.051847685546875
-0.41642439453125,-0.028113220214843748,1.2509186328125
-0.35272052734375,0.11011772705078125,1.29515662109375
-0.2912049609375,0.0182088525390625,1.057746083984375
-0.3116291015625,0.01404231689453125,0.8616243359375
-0.30944080078125,0.06453092529296875,0.72301197265625
-0.1803310546875,-0.11561046875,0.68368931640625
-0.0607039453125,-0.1935491943359375,0.77019916015625
-0.0704297265625,-0.05311243408203125,0.9970417333984375
-0.43174250000000003,-0.060710234375,1.1346710302734375
-0.27442798828125,-0.19820591064453125,1.19881611328125
-0.18932740234375,-0.0170841552734375,1.288766689453125
-0.35661083984374997,-0.05703387939453125,1.3701154345703126
-0.31381740234375,-0.10948321044921874,1.305478818359375
-0.3641483203125,0.124578056640625,1.15949345703125
-0.32840607421875,0.04247279541015625,0.9945840673828125
-0.35344996093750003,-0.02419177490234375,0.8338527099609375
-0.18543708984375,0.0819323388671875,0.8289373779296875
-0.18057419921875,0.04541387939453125,0.78789435546875
-0.13534931640625,0.14148928955078124,0.91569298828125
-0.22142248046875002,0.0927163134765625,1.0240760595703124
-0.26518849609375,0.11256863037109376,1.158510390625
-0.33570041015625,0.12188206298828125,1.2398591357421875
-0.40378087890625003,-0.012672529296875,1.0668394482421875
-0.31916658203125,0.103010107421875,1.028254091796875
-0.310170234375,0.0701680029296875,1.1700614208984375
-0.3690112109375,0.03806116943359375,1.230765771484375
-0.35174794921875,0.022620478515625,1.132459130859375
-0.41545181640625,0.018699033203125,1.0348897900390626
-0.48766574218750003,-0.006790361328125,0.9414984814453125
-0.308225078125,-0.05605351806640625,0.80067421875
-0.1803310546875,-0.052867343750000004,0.6991726123046875
-0.22701480468750002,-0.05605351806640625,0.69548611328125
-0.23819945312500002,-0.06879821533203125,0.636993662109375
-0.1735230078125,0.0593840283203125,0.721537373046875
-0.36536404296875,-0.00311400634765625,0.79772501953125
-0.41156150390625,-0.01144707763671875,0.7891231884765625
-0.37533296875,-0.030319033203124998,0.78494515625
-0.2022140625,0.021885207519531248,0.9198710205078124
-0.36439146484375,-0.0651218603515625,1.009575830078125
-0.32086859375,0.0010525292968750002,1.2324861376953125
-0.37363095703125,0.0358553564453125,1.301546552734375
-0.36341888671875,-0.02713285888671875,1.1243488330078124
-0.25862359375,0.0584036669921875,0.988931435546875
-0.24816837890625,-0.1357078759765625,0.8820229638671875
-0.1268392578125,-0.0268877685546875,0.8869382958984375
-0.35563826171875,-0.02517213623046875,0.8210728466796875
-0.21461443359375,-0.0974737841796875,0.813945615234375
-0.25449013671875,-0.0602200537109375,0.78199595703125
-0.27613,0.00619942626953125,0.847369873046875
-0.23114826171875,0.12041152099609376,0.97860923828125
-0.325731484375,0.130460224609375,1.1479424267578124
-0.24695265625,0.0936966748046875,1.1801378515625
-0.28074974609375003,0.0451687890625,1.271071494140625
-0.3320532421875,0.12237224365234375,1.2206893408203126
-0.39478453125,-0.0700236669921875,0.9815584374999999
-0.2411171875,0.09345158447265625,0.9955671337890625
-0.24525064453125,0.111833359375,0.95698177734375
-0.23139140625,-0.05899460205078125,0.8908705615234375
-0.33472783203125,0.015022678222656249,0.9169218212890625
-0.28026345703125,0.08364797119140625,0.9100403564453124
-0.23357970703125,0.015022678222656249,0.7330884033203124
-0.190543125,-0.06291604736328126,0.728418837890625
-0.1501811328125,-0.0523771630859375,0.915201455078125
-0.2902323828125,-0.069533486328125,1.10444173828125
-0.50371328125,0.0436982470703125,1.230765771484375
-0.3344846875,0.03119864013671875,1.0791277783203126
-0.35977171875,-0.053847705078125,0.8928366943359375
-0.401592578125,0.05178622802734375,1.103950205078125
-0.31041337890625,-0.03522083984375,1.20864677734375
-0.44803318359375,0.0574233056640625,1.1626884228515626
-0.30798193359375,0.1182057080078125,1.01989802734375
-0.36633662109375,0.04296297607421875,0.7947758203124999
-0.2484115234375,0.02433611083984375,0.661570322265625
-0.158448046875,-0.044044091796875,0.5998829052734375
-0.17376615234375,-0.03840701416015625,0.6657483544921875
-0.3709563671875,-0.059729873046875,0.8028861181640625
-0.28196546875,-0.0006631030273437505,0.9090572900390625
-0.4059691796875,0.03119864013671875,0.9316678173828125
-0.362689453125,0.0299731884765625,1.0171945947265626
-0.3126016796875,0.01992448486328125,1.1297556982421875
-0.3651208984375,0.09786321044921875,1.242562568359375
-0.23528171875,0.08021670654296875,1.2762325927734375
-0.27296912109375,-0.06487677001953125,1.1931634814453125
-0.2620276171875,0.03144373046875,1.1749767529296875
-0.36196001953125,-0.08938580322265625,1.0658563818359374
-0.20877896484375,0.02727719482421875,1.0914161083984375
-0.32646091796875,0.00276816162109375,0.9631259423828125
-0.36366203125,-0.06340622802734375,0.888658662109375
-0.21072412109375,-0.08448399658203125,0.9085657568359375
-0.3291355078125,0.00570924560546875,0.8751414990234375
-0.19808060546875,0.0037485229492187503,0.79379275390625
-0.2892598046875,-0.0425735498046875,0.73480876953125
-0.230418828125,0.00521906494140625,0.7935469873046875
-0.3417790234375,-0.08423890625,0.943710380859375
-0.25935302734375,0.01012087158203125,1.166374921875
-0.41107521484375,-0.0161037939453125,1.2806563916015625
-0.40062,0.028502646484374998,1.2332234375
-0.330594375,0.0486000537109375,1.0894499755859375
-0.352963671875,0.01306195556640625,0.931913583984375
-0.1920019921875,0.14737145751953126,0.924049052734375
-0.23163455078125,0.0780108935546875,0.8810398974609375
-0.2338228515625,0.0544822216796875,0.8097675830078125
-0.228473671875,0.03953171142578125,0.7984623193359375
-0.29169125,-0.0612004150390625,0.768724560546875
-0.18495080078125,-0.1415900439453125,0.93437125
-0.31989601562500003,-0.03056412353515625,1.1164843017578125
-0.41350666015625,0.00325834228515625,1.167849521484375
-0.39308251953125,0.04002189208984375,1.1499085595703125
-0.436605390625,-0.03301502685546875,1.0860092431640624
-0.4108320703125,0.08242251953125,1.027271025390625
-0.31965287109375,0.08364797119140625,0.9375662158203125
-0.2309051171875,0.01845394287109375,0.812471015625
-0.18349193359375,0.101049384765625,0.875878798828125
-0.27102396484375,0.04712951171875,0.8970147265625
-0.25157240234375,-0.06046514404296875,0.931913583984375
-0.32889236328125,0.0348749951171875,0.9493630126953125
-0.36390517578125,-0.0866898095703125,0.87047193359375
-0.30360533203125,0.008895419921875,0.9097945898437501
-0.3408064453125,0.07482471923828125,0.8387680419921875
-0.3466419140625,-0.2004117236328125,0.783470556640625
-0.40062,0.0035034326171875,0.83704767578125
-0.31916658203125,-0.12909043701171874,0.8014115185546875
-0.28123603515625,0.00227798095703125,1.0122792626953125
-0.30311904296875003,0.0037485229492187503,1.165883388671875
-0.27272597656249997,-0.00752563232421875,1.1980788134765625
-0.32257060546875,0.05178622802734375,1.1602307568359376
-0.2377131640625,-0.03497574951171875,1.0117877294921875
-0.29971501953125,0.011346323242187501,0.9218371533203125
-0.2800203125,0.04786478271484375,0.9641090087890625
-0.28366748046875,0.02923791748046875,0.9036504248046875
-0.230418828125,0.05889384765625,1.0845346435546874
-0.358799140625,0.06355056396484375,1.2079094775390624
-0.240144609375,-0.03203466552734375,1.167849521484375
-0.317950859375,0.1446754638671875,1.080356611328125
-0.401592578125,0.08217742919921875,0.9370746826171875
-0.22142248046875002,0.11158826904296874,0.8889044287109376
-0.315033125,0.030463369140625002,0.9444476806640625
-0.30506419921875,0.05570767333984375,1.061678349609375
-0.3344846875,-0.048455717773437504,1.071509013671875
-0.2591098828125,0.07384435791015626,1.013508095703125
-0.29339326171875,0.07727562255859374,0.8594124365234375
-0.25084296875,0.0858537841796875,0.8382765087890625
-0.2386857421875,0.0574233056640625,0.8436833740234375
-0.24427806640625,-0.0641414990234375,0.9159387548828125
-0.2824517578125,-0.130315888671875,0.9601767431640625
-0.10203851562499999,-0.1273748046875,1.0442289208984374
-0.44754689453125,-0.15359947021484374,1.0820769775390624
-0.46164927734375,0.0373258984375,1.0997721728515626
-0.3738741015625,-0.0097314453125,0.8790737646484375
-0.3767918359375,0.07850107421875,0.8333611767578125
-0.2795340234375,0.0672269189453125,0.9316678173828125
-0.32840607421875,-0.01732924560546875,1.0044147314453125
-0.15528716796875,0.0995788427734375,1.02972869140625
-0.2386857421875,-0.0009081933593750001,1.0112961962890625
-0.18738224609375,0.07237381591796875,0.9872110693359375
-0.25108611328125,0.0535018603515625,1.0211268603515624
-0.16501294921875,0.08413815185546875,1.181612451171875
-0.41399294921875,0.12629368896484375,1.2958939208984375
-0.48815203125,0.167713955078125,1.130492998046875
-0.20804953125,0.057668395996093746,0.9665666748046875
-0.24038775390625,0.026296833496093748,0.9724650732421874
-0.28172232421875,0.0878145068359375,1.0343982568359376
-0.411318359375,0.0368357177734375,0.952557978515625
-0.3670660546875,0.0137972265625,0.86359046875
-0.27029453125,-0.13105115966796876,0.686638515625
-0.11541146484375,-0.19232374267578126,0.671400986328125
-0.1278118359375,-0.23055783447265624,0.822793212890625
-0.21899103515625,-0.25016506103515623,0.9547698779296875
-0.263486484375,0.00619942626953125,1.0543053515625
-0.228473671875,0.05080586669921875,0.977626171875
-0.35563826171875,0.028502646484374998,0.9188879541015624
-0.411318359375,0.01110123291015625,0.8262339453125
-0.27029453125,-0.0097314453125,0.7212916064453125
-0.30506419921875,0.0309535498046875,0.6672229541015625
-0.25011353515625,0.08364797119140625,0.719571240234375
-0.271267109375,-0.09281706787109376,0.82525087890625
-0.32986494140625,0.06158984130859375,1.0621698828125
-0.3578265625,0.0456589697265625,1.0860092431640624
-0.32257060546875,-0.027868129882812502,1.0385762890625
-0.34421046875,0.042227705078125,1.0412797216796874
-0.20683380859375,0.0750698095703125,0.938795048828125
-0.19419029296875,0.01575794921875,0.79379275390625
-0.25594900390624997,0.02041466552734375,0.8569547705078124
-0.228473671875,0.079481435546875,0.9886856689453125
-0.38700390625000003,-0.00777072265625,1.014491162109375
-0.2980130078125,0.138303115234375,1.1014925390624999
-0.26761994140625,0.097127939453125,1.1051790380859374
-0.36876806640625,0.030463369140625002,1.0786362451171876
-0.21655958984375,0.16550814208984374,1.0884669091796875
-0.26616107421875,0.0397768017578125,1.0307117578125
-0.448276328125,0.0789912548828125,1.0850261767578124
-0.341292734375,0.1172253466796875,1.053813818359375
-0.4263933203125,0.0152677685546875,0.9233117529296875
-0.29290697265625,0.1309504052734375,0.872929599609375
-0.13291787109375,-0.0219859619140625,0.8141913818359375
-0.288773515625,-0.1141399267578125,0.718588173828125
-0.32864921874999997,-0.008751083984375,0.70728291015625
-0.1900568359375,-0.1229631787109375,0.6106966357421875
-0.29339326171875,-0.0724745703125,0.59717947265625
-0.29825615234375,-0.07958218994140626,0.6446124267578125
-0.1287844140625,-0.248939609375,0.763809228515625
-0.36536404296875,-0.04919098876953125,1.030220224609375
-0.3777644140625,-0.0415931884765625,1.093136474609375
-0.35369310546875,0.04149243408203125,1.1093570703125
-0.40232201171875,0.11060790771484375,1.0511103857421875
-0.26470220703125,0.05472731201171875,1.03562708984375
-0.236254296875,0.08168724853515624,1.0137538623046876
-0.3485870703125,0.02874773681640625,0.99040603515625
-0.15066742187499998,0.02972809814453125,0.869980400390625
-0.20804953125,-0.0190448779296875,0.9439561474609375
-0.4555706640625,-0.00581,1.0855177099609374
-0.2722396875,0.02237538818359375,1.19291771484375
-0.3500459375,-0.10458140380859375,1.08281427734375
-0.33813185546875,-0.0053198193359375,0.92945591796875
-0.18300564453125,0.0003172583007812497,0.875387265625
-0.29825615234375,-0.01683906494140625,0.936828916015625
-0.28415376953125,0.0966377587890625,1.0975602734375
-0.45873154296875,0.0495804150390625,1.11525546875
-0.41739697265625,0.0103659619140625,1.0201437939453124
-0.23114826171875,0.150067451171875,1.0240760595703124
-0.2406308984375,0.0133070458984375,1.032186357421875
-0.25205869140625,0.057668395996093746,1.0329236572265625
-0.16720125,0.01183650390625,0.958456376953125
-0.32086859375,0.02972809814453125,0.970253173828125
-0.2902323828125,-0.05605351806640625,1.0427543212890624
-0.32743349609375,0.08462833251953125,1.153103525390625
-0.376305546875,0.02482629150390625,1.0796193115234376
-0.39405509765625,0.012816865234374999,0.9896687353515625
-0.3267040625,0.05105095703125,0.9324051171875
-0.29290697265625,0.04394333740234375,0.9144641552734375
-0.23212083984375,0.08634396484375,1.0314490576171875
-0.32257060546875,0.03315936279296875,1.075441279296875
-0.22336763671875,0.049090234375,1.0053977978515625
-0.24525064453125,-0.0612004150390625,0.92650671875
-0.22482650390625,0.0966377587890625,0.9660751416015625
-0.26129818359375,-0.02027032958984375,0.993355234375
-0.31235853515625,0.06747200927734374,1.0889584423828125
-0.2999581640625,0.03659062744140625,1.1336879638671875
-0.34007701171875,-0.0028689160156250004,1.0840431103515624
-0.24865466796875,0.11747043701171875,1.057746083984375
-0.4079143359375,-0.0023787353515625003,0.9196252539062499
-0.3252451953125,-0.047965537109375,0.881777197265625
-0.2411171875,-0.05262225341796875,0.8402426416015625
-0.41496552734375003,-0.0190448779296875,0.8151744482421874
-0.2523018359375,-0.16438344482421874,0.8471241064453126
-0.17230728515625,-0.08840544189453126,0.8712092333984375
-0.2318776953125,-0.06095532470703125,0.9424815478515625
-0.24087404296875,-0.14428603759765624,1.0098215966796875
-0.2425760546875,-0.03546593017578125,1.040050888671875
-0.25157240234375,0.08953013916015624,1.1093570703125
-0.27685943359375,-0.044534272460937496,1.065610615234375
-0.2255559375,0.053992041015625,1.166866455078125
-0.28415376953125,0.10962754638671875,1.262223896484375
-0.36147373046875,0.091245771484375,1.33841154296875
-0.42055785156250003,0.2133007568359375,1.2177401416015625
-0.37508982421875,0.04443351806640625,0.994829833984375
-0.37581925781250003,0.03855135009765625,0.94518498046875
-0.19321771484375,0.140263837890625,0.9009469921875
-0.218747890625,0.0466393310546875,0.7797840576171875
-0.21461443359375,-0.03154448486328125,0.7483259326171875
-0.218747890625,0.03610044677734375,0.743164833984375
-0.209022109375,-0.0327699365234375,0.8702261669921875
-0.25692158203125,0.00178780029296875,0.9690243408203125
-0.2163164453125,-0.0001729223632812504,1.073475146484375
-0.362689453125,-0.0004180126953125,1.0919076416015625
-0.26227076171875,-0.032279755859375,1.005643564453125
-0.23892888671875,0.0652661962890625,0.936828916015625
-0.41982841796875,0.09026541015625,0.9820499707031249
-0.294608984375,0.04100225341796875,0.9621428759765625
-0.22677166015625,0.06306038330078124,0.9599309765625
-0.2532744140625,0.01110123291015625,0.9370746826171875
-0.26275705078125,-0.01953505859375,0.8874298291015625
-0.27029453125,0.055462583007812497,0.9218371533203125
-0.292663828125,0.0133070458984375,0.9272440185546875
-0.207076953125,0.024091020507812498,0.880794130859375
-0.23455228515625,-0.05605351806640625,0.8694888671875
-0.25473328125,-0.02517213623046875,0.868997333984375
-0.2027003515625,-0.04330882080078125,0.851302138671875
-0.2328502734375,0.0008074389648437498,0.9881941357421875
-0.3339983984375,0.04492369873046875,1.0722463134765625
-0.3189234375,-0.05654369873046875,1.091661875
-0.236254296875,0.0731090869140625,1.1263149658203124
-0.25886673828125,-0.00458454833984375,1.0491442529296875
-0.2795340234375,0.0584036669921875,1.107882470703125
-0.19856689453125,0.14835181884765625,1.13000146484375
-0.32402947265625,-0.0396324658203125,0.94911724609375
-0.23503857421875,-0.04723026611328125,1.0412797216796874
-0.2279873828125,-0.01830960693359375,1.0393135888671874
-0.32937865234375,0.023845930175781252,0.9009469921875
-0.1365650390625,0.00399361328125,0.8694888671875
-0.23819945312500002,0.00816014892578125,0.8132083154296875
-0.21655958984375,0.07850107421875,0.799199619140625
-0.28464005859375,0.04002189208984375,0.838522275390625
-0.26616107421875,0.032424091796875,0.8992266259765624
-0.27880458984375,0.0780108935546875,0.9439561474609375
-0.24330548828125,0.01404231689453125,0.971236240234375
-0.2591098828125,0.09100068115234375,0.980083837890625
-0.2912049609375,0.04051207275390625,0.957473310546875
-0.25303126953125,0.04712951171875,0.9985163330078125
-0.1540714453125,0.04394333740234375,0.983033037109375
-0.34421046875,0.026051743164062502,0.9813126708984374
-0.11152115234375,0.0338946337890625,0.9498545458984375
-0.1521262890625,0.08217742919921875,0.89013326171875
-0.30992708984375,0.05080586669921875,1.023338759765625
-0.16695810546875,0.07188363525390624,1.0329236572265625
-0.27418484375,0.02580665283203125,0.9616513427734374
-0.25546271484375,0.01551285888671875,1.074458212890625
-0.195406015625,0.019434304199218752,1.0267794921875
-0.17036212890625,0.0172284912109375,0.9744312060546875
-0.20342978515625,0.05105095703125,1.0953483740234375
-0.2542469921875,0.0059543359375,1.1046875048828124
-0.312115390625,0.0486000537109375,1.0496357861328125
-0.2542469921875,0.05325677001953125,0.991880634765625
-0.20440236328125,-0.006790361328125,0.8891501953125
-0.10374052734375,0.026296833496093748,0.8687515673828125
-0.14507509765624998,0.020659755859375,0.93928658203125
-0.22774423828125,0.05080586669921875,0.97369390625
-0.263486484375,0.00791505859375,0.9936010009765625
-0.20488865234375,0.056933125,1.001711298828125
-0.2027003515625,-0.0308092138671875,1.006626630859375
-0.31333111328125,0.030708459472656248,1.1169758349609376
-0.1813036328125,0.0069346972656249995,1.0771616455078126
-0.24573693359375,-0.012672529296875,0.98647376953125
-0.280992890625,0.0544822216796875,1.0196522607421874
-0.2581373046875,-0.04330882080078125,0.9469053466796875
-0.22871681640625,-0.0082609033203125,0.86850580078125
-0.21607330078125,-0.0018885546875000003,0.8584293701171875
-0.24670951171875,-0.0254172265625,0.798216552734375
-0.18397822265625,0.00865032958984375,0.8653108349609375
-0.2766162890625,0.1084020947265625,1.009575830078125
-0.20804953125,0.13070531494140625,1.0575003173828126
-0.22823052734375,0.065756376953125,1.0226014599609374
-0.3894353515625,0.06673673828125,1.040050888671875
-0.22725794921875,0.0780108935546875,1.024813359375
-0.28950294921874997,0.06796218994140625,0.97271083984375
-0.27807515625,0.0515411376953125,1.009084296875
-0.26640421875,0.00178780029296875,1.01006736328125
-0.25886673828125,-0.04183827880859375,0.984016103515625
-0.21266927734375,0.0530116796875,0.98647376953125
-0.23260712890625002,0.016738310546875,0.9572275439453125
-0.216802734375,-0.03889719482421875,0.99237216796875
-0.26178447265625,0.06649164794921875,1.0117877294921875
-0.27880458984375,0.0093856005859375,0.9385492822265625
-0.30117388671875,-0.03203466552734375,0.9341254833984375
-0.3038484765625,0.0750698095703125,1.026287958984375
-0.15528716796875,-0.015368522949218751,1.001711298828125
-0.31381740234375,-0.00262382568359375,0.9835245703125
-0.26810623046875,0.0686974609375,1.038084755859375
-0.2299325390625,-0.0592396923828125,0.9164302880859375
-0.27442798828125,-0.02149578125,0.9483799462890625
-0.230418828125,-0.0043394580078125,0.9734481396484375
-0.23455228515625,-0.0396324658203125,0.933879716796875
-0.24719580078125,0.03806116943359375,0.9120064892578125
-0.24184662109375,-0.014633251953124999,0.8785822314453124
-0.2785614453125,-0.0406128271484375,0.95698177734375
-0.271267109375,0.07972652587890625,1.0179318945312499
-0.20804953125,0.0037485229492187503,0.9798380712890625
-0.3019033203125,0.05178622802734375,0.999745166015625
-0.2639727734375,-0.013652890625,1.0221099267578124
-0.28391062499999997,0.0691876416015625,0.9488714794921875
-0.302389609375,-0.0023787353515625003,0.9503460791015625
-0.30700935546875,0.0064445166015625,0.9759058056640625
-0.294608984375,0.018699033203125,0.9552614111328125
-0.29096181640625,-0.00458454833984375,0.9026673583984375
-0.24184662109375,0.00987578125,0.92552365234375
-0.25983931640625,0.0770305322265625,0.9734481396484375
-0.36098744140625,-0.106787216796875,0.9124980224609375
-0.216802734375,0.1142842626953125,1.05528841796875
-0.25157240234375,0.030708459472656248,0.9926179345703126
-0.372415234375,-0.0523771630859375,0.974185439453125
-0.224583359375,0.02090484619140625,0.9520664453125
-0.3811684375,-0.01732924560546875,0.910286123046875
-0.24816837890625,0.0025230712890624996,0.9763973388671875
-0.27053767578125,0.03364954345703125,1.0108046630859375
-0.32840607421875,0.091245771484375,1.044966220703125
-0.166228671875,-0.0268877685546875,0.9272440185546875
-0.21169669921875,0.020659755859375,0.9188879541015624
-0.27418484375,0.04394333740234375,1.0260421923828125
-0.26810623046875,0.02090484619140625,1.0621698828125
-0.20099833984375,0.01747358154296875,1.08478041015625
-0.37946642578125,-0.02174087158203125,1.0444746875
-0.2882872265625,0.03904153076171875,1.008592763671875
-0.16063634765625,0.05227640869140625,0.9788550048828125
-0.32062544921875,0.0008074389648437498,1.0255506591796875
-0.33326896484375,-0.0175743359375,1.015474228515625
-0.11541146484375,-0.0915916162109375,0.9665666748046875
-0.3349709765625,-0.083258544921875,0.8972604931640625
-0.20926525390625,-0.03154448486328125,0.94321884765625
-0.25983931640625,-0.036201201171875,0.88423486328125
-0.2941226953125,-0.08546435791015625,0.886692529296875
-0.212912421875,0.004973974609375,0.94125271484375
-0.2124261328125,-0.0366913818359375,0.904387724609375
-0.294608984375,-0.011201987304687501,1.0147369287109376
-0.21072412109375,0.0922261328125,1.0692971142578125
-0.24038775390625,-0.00458454833984375,1.0339067236328126
-0.4234755859375,0.0338946337890625,1.041033955078125
-0.29144810546875,0.0495804150390625,1.01399962890625
-0.25084296875,0.026296833496093748,1.00220283203125
-0.38505875,-0.03056412353515625,1.0196522607421874
-0.221665625,0.04492369873046875,1.00810123046875
-0.220693046875,-0.05409279541015625,0.930438984375
-0.4215304296875,-0.05850442138671875,0.9245405859375
-0.13607875,-0.0602200537109375,0.864082001953125
-0.20732009765625,-0.05605351806640625,0.8734211328125
-0.29436583984375,0.01110123291015625,0.9582106103515625
-0.2333365625,-0.04085791748046875,1.0643817822265624
-0.343237890625,0.04051207275390625,1.151137392578125
-0.31041337890625,0.06404074462890624,1.1523662255859375
-0.29971501953125,-0.01193725830078125,1.0845346435546874
-0.3641483203125,0.01404231689453125,0.987948369140625
-0.34542619140624997,0.05227640869140625,0.9690243408203125
-0.30263275390625,0.03536517578125,0.9011927587890625
-0.245980078125,0.019434304199218752,0.7252238720703125
-0.20488865234375,-0.06928839599609375,0.7139186083984375
-0.2834243359375,-0.0646316796875,0.8422087744140625
-0.3009307421875,-0.07173929931640625,0.943710380859375
-0.28074974609375003,-0.0151234326171875,0.9646005419921875
-0.36633662109375,-0.06291604736328126,0.91372685546875
-0.28220861328125,-0.03644629150390625,0.8938197607421875
-0.2328502734375,-0.00777072265625,0.9188879541015624
-0.2104809765625,0.00178780029296875,0.98647376953125
-0.2814791796875,-0.0523771630859375,1.00613509765625
-0.3267040625,0.0162481298828125,1.0801108447265624
-0.26956509765625,0.0182088525390625,1.064136015625
-0.3699837890625,0.0030132519531249997,1.0378389892578126
-0.27831830078124997,0.07457962890625,0.9992536328125
-0.25059982421875,0.02776737548828125,0.9238032861328125
-0.32062544921875,0.0005623486328125002,0.9179048876953125
-0.19467658203125,0.09100068115234375,0.874895732421875
-0.2425760546875,0.01600303955078125,0.8267254785156251
-0.3057936328125,0.06404074462890624,0.9724650732421874
-0.26664736328125,0.06624655761718751,1.019406494140625
-0.35101851562499997,-0.0268877685546875,0.984999169921875
-0.36196001953125,-0.038161923828125,0.95698177734375
-0.28172232421875,0.0172284912109375,0.9213456201171875
-0.17133470703125,-0.092081796875,0.8751414990234375
-0.2688356640625,-0.0082609033203125,0.9016842919921875
-0.29096181640625,-0.108747939453125,0.9009469921875
-0.31576255859375,-0.120512275390625,0.96288017578125
-0.384086171875,-0.02149578125,0.9906518017578125
-0.28464005859375,-0.0141430712890625,0.9164302880859375
-0.25740787109375,-0.0670825830078125,0.825742412109375
-0.2513292578125,0.01747358154296875,0.9326508837890625
-0.269321953125,0.04884514404296875,0.8368019091796874
-0.21801845703125,-0.03154448486328125,0.842454541015625
-0.32597462890625,0.048109873046875,0.98647376953125
-0.3203823046875,-0.03840701416015625,1.0179318945312499
-0.28026345703125,-0.02737794921875,1.0186691943359376
-0.2999581640625,0.02360083984375,1.0063808642578125
-0.39405509765625,-0.0582593310546875,0.9341254833984375
-0.292663828125,0.01183650390625,0.945676513671875
-0.36536404296875,0.08119706787109375,0.9913891015625
-0.28366748046875,0.09394176513671874,0.9970417333984375
-0.20197091796875,0.10399046875,1.02088109375
-0.24695265625,0.128499501953125,1.033169423828125
-0.2474389453125,0.03855135009765625,1.0919076416015625
-0.27345541015625,0.136342392578125,1.128526865234375
-0.31746457031249997,0.1672237744140625,1.182595517578125
-0.44317029296875,-0.00654527099609375,1.1268064990234374
-0.3339983984375,-0.014633251953124999,1.0781447119140626
-0.31989601562500003,-0.015368522949218751,0.9577190771484375
-0.316005703125,-0.0151234326171875,0.930930517578125
-0.2591098828125,-0.065612041015625,0.8613785693359375
-0.2843969140625,-0.096983603515625,0.7940385205078125
-0.2289599609375,-0.08595453857421875,0.7832247900390625
-0.30360533203125,-0.0759058349609375,0.8520394384765625
-0.17814275390625,-0.08227818359375,0.8731753662109375
-0.28026345703125,-0.1219828173828125,0.8254966455078125
-0.26907880859375,-0.0808076416015625,0.9287186181640625
-0.2377131640625,-0.03914228515625,0.9183964208984375
-0.25789416015625,0.0858537841796875,1.04742388671875
-0.20732009765625,0.1103628173828125,1.2010280126953126
-0.259596171875,0.08903995849609375,1.26369849609375
-0.33813185546875,0.0059543359375,1.2526389990234374
-0.2960678515625,0.06673673828125,1.2378930029296875
-0.3563676953125,0.02360083984375,1.08084814453125
-0.4030514453125,-0.03889719482421875,0.977626171875
-0.24768208984375,0.011346323242187501,0.9341254833984375
-0.399647421875,-0.15678564453125,0.8156659814453124
-0.28585578125,-0.122472998046875,0.73775796875
-0.13291787109375,-0.02713285888671875,0.6367478955078125
-0.19613544921875,-0.05997496337890625,0.7075286767578125
-0.164283515625,0.0799716162109375,0.9095488232421876
-0.1944334375,0.0008074389648437498,1.11034013671875
-0.31527626953125,0.09345158447265625,1.3637255029296875
-0.3767918359375,0.08119706787109375,1.2349438037109375
-0.3096839453125,0.08217742919921875,1.2005364794921876
-0.41399294921875,0.11379408203125,1.1046875048828124
-0.408400625,0.1427147412109375,1.1130435693359375
-0.36755234375,0.1691844970703125,1.1125520361328125
-0.29047552734375,0.0059543359375,0.9990078662109375
-0.11103486328125,0.0721287255859375,1.01203349609375
-0.2532744140625,-0.065612041015625,0.9901602685546875
-0.28464005859375,-0.01193725830078125,1.03366095703125
-0.33667298828125003,-0.079337099609375,1.032677890625
-0.321841171875,-0.153844560546875,1.0132623291015626
-0.2931501171875,-0.0317895751953125,1.071509013671875
-0.37217208984375,-0.1038461328125,1.043000087890625
-0.36147373046875,-0.10311086181640625,0.8756330322265625
-0.16355408203125,-0.21046042724609376,0.7736398925781249
-0.07115916015625,-0.212666240234375,0.7674957275390625
-0.24476435546875,-0.10507158447265624,0.9724650732421874
-0.1881116796875,-0.0641414990234375,1.02972869140625
-0.23406599609375,0.0436982470703125,1.0761785791015626
-0.39405509765625,0.0843832421875,1.1562984912109375
-0.34202216796875,0.0299731884765625,1.1538408251953125
-0.31746457031249997,-0.01487834228515625,1.08871267578125
-0.21364185546875,0.0182088525390625,0.95894791015625
-0.16987583984375,-0.0033590966796874996,0.76823302734375
-0.12756869140625,-0.06977857666015624,0.71121517578125
-0.0859909765625,-0.05090662109375,0.7593854296875
-0.224583359375,0.0299731884765625,0.9351085498046875
-0.290718671875,-0.11879664306640625,1.0250591259765625
-0.26154132812499997,0.04345315673828125,1.0747039794921875
-0.3320532421875,7.216796875000007e-05,0.993355234375
-0.28415376953125,-0.0023787353515625003,0.8623616357421875
-0.23844259765625,0.01159141357421875,0.816894814453125
-0.23649744140625,0.077520712890625,0.99827056640625
-0.2338228515625,0.1495772705078125,1.0280083251953125
-0.22142248046875002,0.03462990478515625,1.073475146484375
-0.179844765625,0.1515379931640625,1.0948568408203125
-0.16185207031249998,-0.0229663232421875,1.04545775390625
-0.213885,0.0348749951171875,1.076424345703125
-0.22385392578125,-0.023456503906250002,1.1204165673828126
-0.34445361328125,0.1211467919921875,1.192426181640625
-0.45143720703125,0.08021670654296875,1.098051806640625
-0.26421591796875,-0.06585713134765625,0.8557259375
-0.18932740234375,-0.07958218994140626,0.71907970703125
-0.16841697265625,-0.20972515625,0.6598499560546875
-0.1287844140625,-0.11781628173828125,0.7672499609375
-0.21583015625000002,0.0231106591796875,1.0093300634765625
-0.45143720703125,-0.1190417333984375,1.09657720703125
-0.12805498046875,0.05080586669921875,1.1607222900390626
-0.3417790234375,-0.11683592041015625,1.0987891064453126
-0.17571130859375,0.00570924560546875,0.9921264013671875
-0.1530988671875,-0.008996174316406251,0.78986048828125
-0.0344443359375,0.0397768017578125,0.831640810546875
-0.3077387890625,0.04296297607421875,1.01203349609375
-0.17303671874999998,-0.07271966064453125,1.081339677734375
-0.296554140625,-0.0033590966796874996,0.9700074072265625
-0.13875333984375,-0.08938580322265625,0.8559717041015625
-0.12562353515625,-0.12149263671875,0.803131884765625
-0.15674603515625,0.0358553564453125,0.8092760498046875
-0.1210037890625,0.0682072802734375,1.003677431640625
-0.1599069140625,0.0608545703125,1.213562109375
-0.24306234375,0.00987578125,1.2890124560546874
-0.33108066406250003,0.07678544189453125,1.1607222900390626
-0.228473671875,0.09688284912109375,0.95894791015625
-0.1890842578125,0.03119864013671875,0.7945300537109374
-0.19273142578125,0.1358522119140625,0.9238032861328125
-0.2843969140625,0.05668803466796875,1.058729150390625
-0.27929087890625,-0.00458454833984375,0.878827998046875
-0.119544921875,-0.0288484912109375,0.70924904296875
-0.1832487890625,-0.191098291015625,0.6807401171875
-0.234309140625,-0.15948163818359376,0.6721382861328125
-0.170118984375,-0.27222319091796876,0.76036849609375
-0.2834243359375,-0.061690595703125004,0.9754142724609375
-0.26664736328125,-0.00801581298828125,0.9105318896484375
-0.21364185546875,0.09639266845703125,0.8485987060546875
-0.27637314453125,0.10031411376953125,1.047915419921875
-0.22190876953125,0.13707766357421874,1.19390078125
-0.28366748046875,0.106931552734375,1.11230626953125
-0.28318119140625,-0.042083369140625,1.0103131298828125
-0.17960162109375,0.01551285888671875,0.9953213671875
-0.2124261328125,-0.144040947265625,0.8692431005859375
-0.37022693359375003,-0.08742508056640624,0.9562444775390625
-0.25692158203125,0.0270321044921875,0.9061080908203125
-0.34445361328125,-0.09624833251953124,0.7554531640625
0.0010547656249999988,0.02678701416015625,0.8825144970703125
-0.34299474609375,0.05227640869140625,1.07494974609375
-0.2970404296875,0.05570767333984375,1.1073909375
-0.29387955078125,0.1549692578125,1.016457294921875
-0.2678630859375,0.099088662109375,0.9960586669921875
-0.31235853515625,0.1549692578125,1.090187275390625
-0.347128203125,0.024091020507812498,1.1046875048828124
-0.17182099609375,-0.07615092529296875,1.1464678271484374
-0.37119951171875,-0.01732924560546875,1.1695698876953124
-0.2921775390625,0.0231106591796875,1.165883388671875
-0.3267040625,-0.071494208984375,1.1012467724609376
-0.32062544921875,0.12163697265625,1.1504000927734375
-0.42201671875,0.00717978759765625,0.9473968798828125
-0.2386857421875,-0.1430605859375,0.8879213623046875
-0.2231244921875,-0.08742508056640624,0.8908705615234375
-0.31308796875,-0.195019736328125,0.86064126953125
-0.1696326953125,-0.16781470947265625,1.0545511181640626
-0.49593265625,-0.0288484912109375,1.1845616503906249
-0.53264748046875,-0.079337099609375,1.0319405908203125
-0.32451576171875,-0.051886982421875,0.8407341748046875
-0.25084296875,-0.06095532470703125,0.6460870263671875
-0.10544253906250001,-0.12418863037109375,0.7424275341796875
-0.23212083984375,-0.0827683642578125,0.882760263671875
-0.3223274609375,-0.07713128662109375,0.850319072265625
-0.31868029296875,0.010611052246093749,0.8702261669921875
-0.3009307421875,0.099088662109375,0.8171405810546875
-0.12367837890625,0.14639109619140625,0.902421591796875
-0.22701480468750002,0.2113400341796875,1.1194335009765626
-0.16720125,0.23021198974609375,1.1838243505859376
-0.33424154296874997,0.0740894482421875,1.2211808740234376
-0.41496552734375003,0.07457962890625,1.2609950634765625
-0.299471875,-0.030319033203124998,1.23617263671875
-0.39600025390625,-0.0161037939453125,1.1621968896484376
-0.22239505859375,-0.0670825830078125,0.9478884130859375
-0.1968648828125,0.02531647216796875,0.8372934423828124
-0.24670951171875,-0.05556333740234375,0.914218388671875
-0.18592337890625,-0.1308060693359375,1.03661015625
-0.23698373046875,-0.09820905517578125,1.234698037109375
-0.29387955078125,0.021885207519531248,1.270088427734375
-0.346155625,-0.0592396923828125,1.04939001953125
-0.23892888671875,-0.1062970361328125,0.7729025927734375
-0.1326747265625,-0.1817848583984375,0.6854096826171875
-0.1521262890625,0.017718671875,0.7630719287109375
-0.02131453125,-0.0964934228515625,1.088221142578125
-0.34493990234375,0.0142874072265625,1.4534303125
-0.489124609375,-0.01487834228515625,1.47800697265625
-0.29874244140625,0.00987578125,1.2084010107421874
-0.34445361328125,0.0255615625,0.9542783447265625
-0.172064140625,-0.0018885546875000003,0.88423486328125
-0.2099946875,0.0003172583007812497,0.985982236328125
-0.3359435546875,0.0525214990234375,1.09067880859375
-0.20586123046875,0.0054641552734375,1.0334151904296875
-0.28658521484375,-0.02860340087890625,1.0117877294921875
-0.2581373046875,0.01183650390625,1.0058893310546875
-0.11492517578125,-0.0063001806640625,0.9198710205078124
-0.3033621875,-0.00777072265625,0.9419900146484375
-0.205131796875,0.022620478515625,0.9591936767578125
-0.29047552734375,-0.05874951171875,0.9363373828125
-0.33083751953125,0.0010525292968750002,1.0130165625
-0.37363095703125,0.02874773681640625,1.0162115283203126
-0.20026890625,0.0711483642578125,1.040542421875
-0.3291355078125,-0.03522083984375,1.0700344140625
-0.25886673828125,0.01600303955078125,1.119679267578125
-0.18057419921875,0.0358553564453125,0.9518206787109375
-0.2406308984375,0.07041309326171875,0.873912666015625
-0.1832487890625,0.0809519775390625,0.9572275439453125
-0.2474389453125,-0.07370002197265625,0.93338818359375
-0.34980279296875,-0.00311400634765625,0.9813126708984374
-0.35855599609375,-0.04134809814453125,0.8461410400390625
-0.13583560546875,-0.17810850341796874,0.767741494140625
-0.31284482421875,-0.14330567626953125,0.8933282275390625
-0.29922873046875,-0.1131595654296875,0.8412257080078125
-0.0821006640625,-0.0847290869140625,0.8712092333984375
-0.36925435546875,-0.0396324658203125,1.032677890625
-0.386031328125,0.1358522119140625,1.1447474609375
-0.17571130859375,-0.05017135009765625,1.1997991796875
-0.36536404296875,0.0917359521484375,1.14671359375
-0.30749564453125,-0.0033590966796874996,0.9616513427734374
-0.1365650390625,0.0613447509765625,0.8972604931640625
-0.3203823046875,0.2113400341796875,0.9587021435546875
-0.352963671875,0.13119549560546875,0.94715111328125
-0.237226875,0.161831787109375,1.02776255859375
-0.3972159765625,-0.1111988427734375,1.015474228515625
-0.27540056640625,-0.08840544189453126,0.8984893261718749
-0.16404037109375,-0.060710234375,0.7827332568359375
-0.27005138671875,-0.07026875732421875,0.8392595751953125
-0.19832375,0.02041466552734375,1.024321826171875
-0.372415234375,0.15325362548828125,1.13000146484375
-0.47648109375000003,0.108892275390625,1.102967138671875
-0.25886673828125,-0.0170841552734375,0.93338818359375
-0.19564916015625,-0.02762303955078125,0.7987080859375
-0.214857578125,-0.057769150390625,0.746114033203125
-0.082586953125,-0.163648173828125,0.810013349609375
-0.1900568359375,-0.15703073486328126,0.89504859375
-0.14993798828125,-0.1621776318359375,0.881777197265625
-0.21558701171875,-0.1121792041015625,0.854251337890625
-0.23649744140625,-0.04281864013671875,0.859658203125
-0.17303671874999998,-0.01634888427734375,0.729401904296875
-0.28950294921874997,-0.08742508056640624,0.722520439453125
-0.12246265625,-0.106787216796875,0.820827080078125
-0.24938410156250002,0.087324326171875,0.9513291455078126
-0.251815546875,0.0740894482421875,1.0938737744140625
-0.24573693359375,0.06943273193359376,1.103458671875
-0.3048210546875,0.09345158447265625,1.06020375
-0.2921775390625,0.0701680029296875,1.0830600439453124
-0.226528515625,0.0966377587890625,1.025304892578125
-0.2873146484375,0.080461796875,0.9375662158203125
-0.3019033203125,-0.110708662109375,0.868997333984375
-0.10811712890625,-0.01634888427734375,0.744147900390625
-0.13534931640625,-0.02517213623046875,0.6807401171875
-0.22701480468750002,0.01306195556640625,0.850319072265625
-0.2221519140625,0.11796061767578125,1.081339677734375
-0.33375525390625,-0.0141430712890625,1.1174673681640626
-0.26032560546875,0.08854977783203125,1.2548508984375
-0.22531279296875,7.216796875000007e-05,1.3106399169921874
-0.30166017578125,-0.0543378857421875,1.3701154345703126
-0.3942982421875,0.013552136230468751,1.3334962109375
-0.53070232421875,0.05913893798828125,1.1125520361328125
-0.31430369140625003,0.0025230712890624996,0.9021758251953125
-0.16112263671875,-0.13448242431640625,0.742181767578125
-0.17911533203125,-0.0739451123046875,0.636993662109375
-0.159420625,-0.13889405029296875,0.737266435546875
-0.18543708984375,-0.1415900439453125,0.8967689599609375
-0.316005703125,0.0378160791015625,1.043983154296875
-0.4983641015625,0.05497240234375,0.9473968798828125
-0.27272597656249997,0.085363603515625,0.8127167822265625
-0.27929087890625,0.07041309326171875,0.79969115234375
-0.33083751953125,0.143204921875,0.9120064892578125
-0.13778076171875,0.0691876416015625,0.9626344091796875
-0.3155194140625,-0.01732924560546875,1.0368559228515626
-0.43004048828125,-0.02125069091796875,1.0997721728515626
-0.252788125,-0.02615249755859375,0.8928366943359375
-0.40645546875,0.00619942626953125,0.75053783203125
-0.16452666015625,-0.0072805419921875,0.6807401171875
