ax,ay,az
-0.1044699609375,-0.00409436767578125,1.24108796875
-0.23552486328125,0.11011772705078125,1.300563486328125
-0.4040240234375,-0.1151202880859375,1.151137392578125
-0.2999581640625,-0.07271966064453125,0.830657744140625
-0.22093619140625,0.05423713134765625,0.689096181640625
-0.20829267578125,0.061834931640625,0.83901380859375
-0.33181009765625,0.0373258984375,0.9097945898437501
-0.20804953125,-0.07909200927734375,0.84687833984375
-0.2231244921875,0.1780077490234375,0.8156659814453124
-0.22944625,0.110852998046875,0.7611057958984375
-0.0305540234375,-0.00581,0.8264797119140626
-0.09206958984375,-0.0494360791015625,1.0053977978515625
-0.3942982421875,-0.018554697265625,1.4330316845703126
-0.56085224609375,0.1407540185546875,1.6601200244140626
-0.4896108984375,0.038306259765625,1.522736494140625
-0.4361191015625,0.1456558251953125,1.2781987255859375
-0.23357970703125,0.12286242431640625,0.959439443359375
-0.14312994140625,0.05619785400390625,0.88620099609375
-0.29776986328125,0.008895419921875,0.8023945849609375
-0.26154132812499997,-0.05311243408203125,0.8731753662109375
-0.3330258203125,0.0505607763671875,0.8923451611328125
-0.224583359375,-0.050661530761718754,0.8340984765625
-0.0310403125,-0.1082577587890625,0.75447009765625
-0.084532109375,-0.04526954345703125,0.8274627783203125
-0.24670951171875,-0.0955130615234375,0.827708544921875
-0.35709712890625,-0.16928525146484374,1.097068740234375
-0.31089966796875,0.0152677685546875,1.4261502197265625
-0.4798851171875,0.0074248779296875,1.37183580078125
-0.23892888671875,-0.07517056396484376,1.3445557080078125
-0.27685943359375,0.09982393310546875,1.16145958984375
-0.24525064453125,-0.09820905517578125,0.99827056640625
-0.24038775390625,0.0289928271484375,0.913235322265625
-0.17279357421875,0.010856142578125,0.8775991650390624
-0.1633109375,-0.06487677001953125,1.177680185546875
-0.21850474609375,-0.0386521044921875,1.3524202392578124
-0.205131796875,0.0020328906249999995,1.2595204638671875
-0.1929745703125,-0.04526954345703125,0.9795923046875
-0.2357680078125,-0.10850284912109374,0.979100771484375
-0.24306234375,-0.13742350830078126,0.9405154150390624
-0.24330548828125,-0.13203152099609375,1.084288876953125
-0.3544225390625,-0.11536537841796875,1.111323203125
-0.2775888671875,-0.11340465576171875,1.0329236572265625
-0.25473328125,-0.09477779052734375,0.8505648388671875
-0.19273142578125,0.059874208984374996,0.8301662109375
-0.224583359375,0.01698340087890625,0.710723642578125
-0.04344068359375,-0.0533575244140625,0.812962548828125
-0.1569891796875,0.0623251123046875,0.8825144970703125
-0.18203306640625,0.02580665283203125,0.632078330078125
-0.162338359375,-0.04772044677734375,0.6652568212890625
-0.19759431640625,-0.0259074072265625,0.75053783203125
-0.292663828125,-0.05703387939453125,0.7212916064453125
-0.23917203125,0.06281529296875,0.93437125
-0.37338781249999997,0.01796376220703125,0.91176072265625
-0.24233291015625,0.03855135009765625,0.8970147265625
-0.269321953125,0.16869431640625,0.8908705615234375
-0.22044990234375,-0.03129939453125,0.95796484375
-0.35028908203125,0.06109966064453125,0.8805483642578125
-0.10179537109375,-0.029338671875,0.8928366943359375
-0.1112780078125,0.03364954345703125,0.9164302880859375
-0.27418484375,0.062080021972656246,1.0368559228515626
-0.17960162109375,-0.07443529296875,1.0130165625
-0.33278267578125,-0.05556333740234375,0.86359046875
-0.17619759765625,-0.08448399658203125,0.617332333984375
-0.054868476562500004,-0.09526797119140624,0.7198170068359375
-0.17084841796875,-0.10605194580078126,0.8572005371093749
-0.3189234375,0.0843832421875,1.15752732421875
-0.41934212890625,0.2240847314453125,1.3479964404296876
-0.40280830078125,0.2642795458984375,1.179646318359375
-0.4594609765625,0.2231043701171875,0.9360916162109375
-0.442440859375,0.1907524462890625,0.7004014453125
-0.09693248046875,0.06453092529296875,0.5939845068359375
-0.11200744140625,-0.1352176953125,0.3831167626953125
-0.07456318359375,-0.18644157470703124,0.3010307177734375
-0.0840458203125,-0.0827683642578125,0.3032426171875
-0.043683828125000004,-0.1474722119140625,0.4435753466796875
-0.07869664062500001,-0.1631579931640625,0.7674957275390625
-0.3699837890625,-0.046004814453125,1.111323203125
-0.52632572265625,0.12727405029296876,1.323174013671875
-0.524137421875,0.2610933715820313,1.3084280175781249
-0.30141703125,0.35275715576171873,1.2816394580078125
-0.42566388671875,0.31109179931640624,1.075441279296875
-0.247925234375,-0.048455717773437504,0.6728755859375
-0.0714023046875,-0.17271651611328126,0.5305767236328125
-0.059245078125,-0.04036773681640625,0.3241327783203125
-0.0218008203125,0.0069346972656249995,0.4015492578125
-0.00502384765625,-0.089140712890625,0.5477803857421875
-0.0855046875,-0.159726728515625,0.7163762744140625
-0.0752926171875,-0.03644629150390625,0.8284458447265625
-0.0490330078125,-0.10997339111328125,1.0860092431640624
-0.07213173828125,0.0843832421875,1.55468615234375
-0.28123603515625,0.2074185888671875,1.9373447509765624
-0.48936775390625,0.1485969091796875,2.039829423828125
-0.55209904296875,0.316728876953125,1.6330856982421875
-0.55355791015625,0.026541923828125,1.1054248046875
-0.23990146484375,-0.022476142578125,0.6768078515625
-0.09352845703125,-0.013652890625,0.4996101318359375
-0.0699434375,-0.0915916162109375,0.402040791015625
0.0307183984375,-0.11683592041015625,0.33003117675781246
0.0008116210937499993,-0.11291447509765624,0.4008119580078125
-0.16452666015625,-0.126394443359375,0.707774443359375
-0.07893978515625,-0.232273466796875,0.9144641552734375
-0.18397822265625,-0.06144550537109375,1.466701708984375
-0.5965944921875,0.15325362548828125,1.7579351318359375
-0.701146640625,0.12678386962890625,1.5269145263671875
-0.2260422265625,0.24981921630859374,1.4735831738281249
-0.442440859375,0.15913579345703124,1.1447474609375
-0.37654869140625,0.17482157470703125,0.793301220703125
-0.341292734375,0.1613416064453125,0.722520439453125
-0.21266927734375,-0.09379742919921875,0.654688857421875
-0.1141957421875,-0.05017135009765625,0.7711822265625
-0.16914640625,-0.09967959716796874,0.8427003076171875
-0.09790505859375,-0.030319033203124998,0.7060540771484375
-0.27296912109375,-0.046004814453125,0.3767268310546875
-0.2488978125,-0.1013952294921875,0.4101510888671875
-0.1988100390625,-0.06683749267578125,0.789368955078125
-0.2999581640625,0.0789912548828125,1.154578125
-0.40572603515625,0.2211436474609375,1.3347250439453124
-0.4900971875,0.093206494140625,1.678060986328125
-0.31089966796875,0.01012087158203125,1.79062208984375
-0.24330548828125,0.01183650390625,1.722298974609375
-0.41204779296875,0.1270289599609375,1.3519287060546874
-0.4915560546875,0.09835339111328124,1.0196522607421874
-0.46286499999999997,-0.03693647216796875,0.902913125
-0.143859375,-0.095022880859375,0.8014115185546875
0.0365538671875,-0.1327667919921875,0.8230389794921875
0.0093216796875,-0.17957904541015626,0.909303056640625
-0.111764296875,0.0020328906249999995,1.2875378564453124
-0.38238416015625,-0.09820905517578125,1.2580458642578125
-0.54188697265625,-0.09330724853515625,1.3067076513671876
-0.46262185546875,0.11747043701171875,1.2310115380859374
-0.19029998046875,-0.08987598388671875,1.081339677734375
-0.2912049609375,0.10913736572265625,1.0884669091796875
-0.212912421875,0.0012976196289062499,1.053813818359375
-0.19224513671875,0.02678701416015625,1.0923991748046875
-0.25011353515625,0.0530116796875,1.105916337890625
-0.23795630859375,-0.045024453125,1.1680952880859374
-0.103983671875,-0.0425735498046875,1.401819326171875
-0.1141957421875,-0.00605509033203125,1.453921845703125
-0.1628246484375,0.0515411376953125,1.3804376318359375
-0.27053767578125,0.07286399658203124,1.2093840771484374
-0.33253953125,0.06673673828125,1.087238076171875
-0.3485870703125,0.20766367919921874,1.10837400390625
-0.33229638671875,0.17482157470703125,1.1621968896484376
-0.3028758984375,0.10202974609375,1.2344522705078125
-0.2513292578125,0.09737302978515625,1.19095158203125
-0.3651208984375,0.05668803466796875,1.01989802734375
-0.21899103515625,-0.0268877685546875,0.9186421875
-0.17036212890625,-0.09012107421875,0.903404658203125
-0.05122130859375,-0.09673851318359375,0.93338818359375
-0.03760521484375,-0.004829638671875,1.0661021484375
-0.35393625,-0.032279755859375,1.0464408203125
-0.33715927734375,0.15080272216796875,1.0592206835937499
-0.0733474609375,0.038306259765625,1.0963314404296876
-0.1832487890625,0.05497240234375,1.0324321240234375
-0.209022109375,-0.044044091796875,1.104933271484375
-0.2542469921875,-0.0582593310546875,1.06511908203125
-0.34883021484375,0.0985984814453125,1.0643817822265624
-0.4468174609375,0.1691844970703125,1.0071181640625
-0.37168580078125,0.06698182861328125,0.912252255859375
-0.2698082421875,0.11967625,0.840488408203125
-0.27296912109375,0.06698182861328125,0.7768348583984375
-0.11103486328125,0.1554594384765625,0.689096181640625
-0.0821006640625,0.130460224609375,0.65616345703125
-0.174981875,0.12874459228515625,0.735300302734375
-0.29752671875000003,0.032424091796875,0.7463597998046875
-0.24695265625,0.00276816162109375,0.7950215869140624
-0.14629082031250001,0.09835339111328124,0.8028861181640625
-0.1949197265625,-0.0425735498046875,0.75053783203125
-0.16160892578125,0.14688127685546876,0.6893419482421875
-0.2488978125,0.138303115234375,0.7200627734375
-0.27199654296875,0.1623219677734375,0.845403740234375
-0.265431640625,0.17384121337890626,0.9442019140625
-0.18640966796875,0.09247122314453125,0.9795923046875
-0.22044990234375,0.124578056640625,1.0727378466796875
-0.14653396484375,0.16011615478515626,1.001711298828125
-0.26640421875,0.10987263671875,0.8648193017578125
-0.23017568359375,0.128499501953125,0.9503460791015625
-0.3339983984375,0.22383964111328125,0.9557529443359375
-0.23357970703125,0.15766525146484375,0.8220559130859375
-0.07796720703125,0.021640117187500002,0.75053783203125
-0.1248941015625,0.03561026611328125,0.734317236328125
-0.23819945312500002,0.1863408203125,0.7837163232421875
-0.247925234375,0.08634396484375,0.914709921875
-0.121490078125,0.08634396484375,1.0722463134765625
-0.21510072265625,0.18045865234375,1.14671359375
-0.45702953125,0.01845394287109375,1.157035791015625
-0.30457791015625,0.0731090869140625,1.06315294921875
-0.30068759765624997,0.20080114990234374,0.7507835986328125
-0.13486302734375,0.16697868408203126,0.6937657470703125
-0.11784291015625001,0.06845237060546874,0.814928681640625
-0.1725504296875,0.03757098876953125,0.8471241064453126
-0.2581373046875,-0.0332601171875,0.99827056640625
-0.43441708984375,0.05668803466796875,1.260257763671875
-0.50492900390625,-0.06242586669921875,0.9272440185546875
-0.29874244140625,-0.11340465576171875,0.51263576171875
-0.097175625,-0.046740085449218746,0.4986270654296875
-0.1229489453125,0.09443194580078125,0.5266444580078125
-0.07261802734375,0.13217585693359374,0.6905707812499999
-0.166228671875,0.171635400390625,1.14769666015625
-0.56668771484375,0.190262265625,1.4318028515625
-0.510521328125,0.1819291943359375,1.304495751953125
-0.28901666015625,-0.1553151025390625,1.2005364794921876
-0.13680818359375,-0.19869609130859375,0.8989808593749999
-0.27685943359375,-0.1886473876953125,0.6291291308593749
-0.13291787109375,-0.16144236083984376,0.682214716796875
-0.17765646484375,-0.063651318359375,0.6583753564453125
-0.08185751953125,0.080461796875,0.9306847509765624
-0.23503857421875,0.036345537109375,1.4104211572265626
-0.38457246093749997,0.20521277587890624,1.6006445068359376
-0.43174250000000003,0.38118763427734376,1.5185584619140624
-0.53070232421875,0.2191829248046875,1.1381117626953126
-0.44560173828125,0.08634396484375,0.9842618701171875
-0.34883021484375,-0.1219828173828125,1.001711298828125
-0.09985021484375001,-0.11438501708984375,1.159001923828125
0.03387927734375,-0.128355166015625,1.2211808740234376
-0.4536255078125,-0.0837487255859375,1.2531305322265625
-0.179844765625,-0.179333955078125,1.0978060400390626
-0.174009296875,-0.2102153369140625,1.19095158203125
-0.58224896484375,-0.13644314697265625,1.378225732421875
-0.376305546875,-0.10016977783203125,1.1710444873046875
-0.3267040625,-0.3151139990234375,1.036118623046875
-0.2075632421875,-0.30065366943359373,0.8200897802734375
-0.1088465625,0.0172284912109375,0.8783364648437499
-0.044899550781250006,0.07433453857421875,1.4475319140625
-0.72327279296875,0.14001874755859375,1.6994426806640626
-0.6889894140625,0.159871064453125,1.2575543310546875
-0.46019041015625,-0.0268877685546875,0.61290853515625
0.021965195312499998,-0.045024453125,0.63650212890625
-0.0237459765625,-0.2386458154296875,0.7733941259765625
-0.205131796875,-0.3486913745117188,1.0629071826171874
-0.524137421875,-0.267566474609375,1.1803836181640626
-0.4215304296875,-0.0866898095703125,0.9695158740234375
-0.24622322265625,0.16746886474609374,0.9677955078125
-0.0016198242187499996,-0.00213364501953125,1.2374014697265625
-0.14604767578125,0.07580508056640625,1.409683857421875
-0.4030514453125,0.05325677001953125,1.415582255859375
-0.35515197265625,-0.04306373046875,1.1140266357421875
-0.48790888671875,-0.17565760009765624,1.0284998583984375
-0.39818855468750003,-0.24036144775390625,0.89504859375
-0.26713365234374997,-0.20997024658203126,0.880794130859375
-0.06191966796875,-0.1239435400390625,0.902421591796875
-0.07115916015625,-0.19085320068359374,0.99630443359375
-0.29776986328125,0.0584036669921875,1.259274697265625
-0.421044140625,0.18462518798828126,1.3912513623046876
-0.0855046875,0.09688284912109375,1.48587150390625
-0.49617580078125,0.1642826904296875,1.4281163525390626
-0.65859634765625,0.10815700439453126,1.192426181640625
-0.013290761718750002,-0.118551552734375,1.051847685546875
-0.017181074218750002,-0.32148634765625,1.007609697265625
-0.23455228515625,-0.03914228515625,0.9454307470703125
-0.1861665234375,-0.151883837890625,0.7252238720703125
-0.04246810546875,-0.24305744140625,0.8481071728515625
-0.25740787109375,-0.280311171875,1.091661875
-0.366579765625,-0.10507158447265624,1.1801378515625
-0.31284482421875,-0.14673694091796874,1.1882481494140624
-0.4098594921875,0.0289928271484375,1.1587561572265626
-0.34153587890625,-0.08203309326171875,0.9085657568359375
-0.10544253906250001,-0.27026246826171874,0.8775991650390624
-0.17327986328125,-0.07811164794921875,0.7969877197265625
-0.17279357421875,-0.004829638671875,0.5045254638671874
-0.213885,-0.091101435546875,0.313564814453125
-0.1851939453125,-0.022476142578125,0.23319913574218748
-0.0018629687499999992,0.00717978759765625,0.273750625
0.03339298828125,-0.01928996826171875,0.5217291259765625
-0.12708240234375,0.12555841796875,0.9070911572265625
-0.4186126953125,0.10521592041015625,1.0624156494140624
-0.48255970703125,0.23511379638671875,1.4507268798828126
-0.3505322265625,0.091245771484375,1.7235278076171876
-0.39356880859375,0.09688284912109375,1.449989580078125
-0.061190234375,0.13854820556640626,1.032186357421875
-0.0772377734375,0.11109808837890625,0.9990078662109375
-0.3388612890625,-0.0063001806640625,0.9572275439453125
-0.352963671875,-0.220509130859375,1.117713134765625
-0.33181009765625,-0.07222947998046875,0.871455
-0.1433730859375,0.04933532470703125,0.5168137939453125
-0.1268392578125,0.116735166015625,0.3713199658203125
-0.10422681640625,-0.076396015625,0.343056806640625
-0.10665826171875001,-0.12516899169921875,0.368125
-0.33035123046875,-0.09134652587890625,0.51066962890625
-0.296554140625,-0.15703073486328126,0.4258801513671875
-0.1550440234375,-0.1366882373046875,0.4720842724609375
-0.113709453125,0.02090484619140625,0.592264140625
-0.31089966796875,-0.1602169091796875,0.7021218115234376
-0.327676640625,-0.2200189501953125,0.9609140429687499
-0.3271903515625,-0.061690595703125004,0.9719735400390626
-0.1725504296875,-0.11879664306640625,0.868014267578125
-0.26275705078125,7.216796875000007e-05,0.81640328125
-0.24427806640625,0.0319339111328125,0.5802215771484375
-0.07310431640625001,-0.071494208984375,0.52639869140625
-0.16185207031249998,0.0201695751953125,0.6937657470703125
-0.3417790234375,0.0280124658203125,0.58341654296875
-0.203186640625,-0.04379900146484375,0.51460189453125
-0.0286088671875,-0.10409122314453124,0.64436666015625
-0.15480087890625,-0.24109671875,0.8785822314453124
-0.32548833984375003,-0.2920755078125,1.06315294921875
-0.18300564453125,-0.28153662353515624,1.2452660009765626
-0.2566784375,0.13732275390625,1.4743204736328126
-0.603888828125,0.14443037353515625,1.3887936962890626
-0.37557611328125,0.13560712158203125,1.2634527294921876
-0.1555303125,-0.04772044677734375,0.854251337890625
-0.23309341796875,0.1064413720703125,1.009575830078125
-0.2192341796875,-0.00507472900390625,0.9481341796875
8.218750000000066e-05,-0.151883837890625,0.888658662109375
-0.10665826171875001,-0.07051384765625,1.048406953125
-0.25546271484375,0.02360083984375,1.163917255859375
-0.49714837890625,-0.1337471533203125,1.187510849609375
-0.4935012109375,0.0456589697265625,0.97369390625
-0.31624884765625,0.07457962890625,0.5920183740234375
-0.2022140625,-0.0803174609375,0.41334605468749996
-0.20148462890625,-0.04428918212890625,0.466923173828125
-0.0947441796875,0.11649007568359375,0.535737822265625
-0.24914095703125,0.1240878759765625,0.7940385205078125
-0.39210994140625,0.1329111279296875,1.0737209130859375
-0.4614061328125,0.22040837646484374,1.2378930029296875
-0.54237326171875,0.2936903857421875,1.3612678369140625
-0.3602580078125,-0.0371815625,1.156052724609375
-0.26907880859375,0.2427115966796875,1.0457035205078125
-0.24768208984375,-0.15016820556640625,0.7999369189453125
-0.0859909765625,-0.10409122314453124,0.635027529296875
-0.312115390625,-0.04723026611328125,0.7640549951171876
-0.2853694921875,-0.2058037109375,0.719571240234375
-0.2279873828125,-0.06683749267578125,0.9188879541015624
-0.190543125,-0.03840701416015625,1.1356540966796875
-0.3223274609375,-0.069533486328125,1.1504000927734375
-0.378250703125,0.114774443359375,1.168832587890625
-0.34785763671875003,0.09639266845703125,1.075441279296875
-0.3388612890625,-0.027868129882812502,0.854251337890625
-0.28026345703125,0.077520712890625,0.6741044189453125
-0.08185751953125,-0.0371815625,0.4976439990234375
0.010780546874999998,-0.12369844970703125,0.3418279736328125
-0.007941582031250002,-0.1298257080078125,0.3290481103515625
-0.019369375,-0.10065995849609374,0.49666093261718747
-0.02009880859375,-0.10948321044921874,0.5772723779296876
-0.31697828125,0.034384814453125,0.8726838330078125
-0.333512109375,0.0887948681640625,1.0584833837890626
-0.40864376953125,0.095167216796875,1.069542880859375
-0.31381740234375,0.22334946044921875,1.0663479150390625
-0.331566953125,0.2083989501953125,1.08084814453125
-0.25692158203125,0.024581201171875,0.9159387548828125
-0.205131796875,0.01747358154296875,0.7478343994140625
-0.061676523437500005,-0.06659240234375,0.6967149462890625
-0.02155767578125,-0.1759026904296875,0.6957318798828125
-0.092312734375,-0.18815720703125,0.8112421826171875
-0.14458880859375,-0.06977857666015624,0.97467697265625
-0.2542469921875,-0.08987598388671875,1.0294829248046875
-0.3388612890625,0.0123266845703125,1.0638902490234374
-0.34931650390625,0.01894412353515625,1.01596576171875
-0.189570546875,0.02433611083984375,1.1032129052734374
-0.11152115234375,-0.01732924560546875,1.200290712890625
-0.37800755859375,0.111833359375,1.2452660009765626
-0.33083751953125,0.09149086181640625,1.1644087890625
-0.24938410156250002,-0.11193411376953125,1.0014655322265624
-0.34639876953125,0.07261890625,0.9228202197265625
-0.1788721875,-0.05164189208984375,0.6677144873046875
-0.09450103515625,0.08805959716796875,0.5256613916015624
-0.057299921875,-0.0033590966796874996,0.4175240869140625
-0.16015005859375,-0.13056097900390626,0.4725758056640625
-0.27685943359375,-0.03987755615234375,0.49641516601562496
-0.16258150390625,0.04320806640625,0.6736128857421875
-0.16841697265625,0.02776737548828125,1.0179318945312499
-0.39162365234375,0.1613416064453125,1.4121415234375
-0.37581925781250003,0.050070595703125,1.528634892578125
-0.3252451953125,0.09933375244140626,1.6628234570312501
-0.35320681640625,0.07678544189453125,1.3676577685546876
-0.33667298828125003,-0.159726728515625,1.07691587890625
-0.30457791015625,-0.0710040283203125,1.12312
-0.4682141796875,-0.01830960693359375,1.029237158203125
-0.2824517578125,-0.09036616455078125,0.7350545361328125
-0.20732009765625,-0.18350049072265626,0.7104778759765625
-0.11322316406249999,-0.1680597998046875,0.5662128808593749
-0.0597313671875,-0.067572763671875,0.53328015625
-0.1555303125,-0.006790361328125,0.63256986328125
-0.19224513671875,0.0427178857421875,0.823776279296875
-0.3267040625,0.03855135009765625,1.165883388671875
-0.461892421875,0.0427178857421875,1.389039462890625
-0.4633512890625,0.0780108935546875,1.4556422119140624
-0.39551396484375,0.18560554931640624,1.2949108544921875
-0.308225078125,-0.068553125,1.0393135888671874
-0.21364185546875,0.04002189208984375,0.9832788037109375
-0.21583015625000002,-0.12320826904296875,1.1194335009765626
-0.20026890625,-0.0621807763671875,1.17325638671875
-0.13632189453125,-0.08938580322265625,1.1845616503906249
-0.296554140625,-0.0513968017578125,1.1528577587890625
-0.35174794921875,0.010611052246093749,1.000728232421875
-0.2523018359375,-0.07835673828125,0.962388642578125
-0.23601115234375,0.1074217333984375,0.9756600390625
-0.3135742578125,0.06158984130859375,0.9744312060546875
-0.33618669921875,0.063795654296875,1.0712632470703125
-0.32937865234375,-0.02664267822265625,1.1054248046875
-0.354908828125,-0.02076051025390625,1.291715888671875
-0.36487775390625,0.020659755859375,1.358564404296875
-0.35077537109375,-0.045024453125,1.3366911767578125
-0.3578265625,-0.0092412646484375,1.2703341943359374
-0.2775888671875,0.0883046875,1.150154326171875
-0.3033621875,-0.08546435791015625,0.9036504248046875
-0.296554140625,-0.0494360791015625,0.8731753662109375
-0.25303126953125,-0.02321141357421875,0.824759345703125
-0.25862359375,-0.0411030078125,0.84491220703125
-0.16793068359375,-0.0406128271484375,0.8301662109375
-0.185680234375,0.059874208984374996,0.9822957373046874
-0.2878009375,-0.075415654296875,1.068559814453125
-0.36585033203125,0.0020328906249999995,1.192426181640625
-0.304334765625,0.0427178857421875,1.13786599609375
-0.3359435546875,-0.00507472900390625,1.1120605029296875
-0.28074974609375003,0.02580665283203125,1.1368829296875
-0.22968939453125,0.0593840283203125,1.1484339599609374
-0.339347578125,0.0544822216796875,1.0221099267578124
-0.08817927734375,0.00987578125,0.9916348681640625
-0.22142248046875002,0.015022678222656249,0.9449392138671875
-0.20634751953125,0.03217900146484375,0.9960586669921875
-0.20342978515625,0.0020328906249999995,1.0865007763671874
-0.3213548828125,0.07972652587890625,0.9798380712890625
-0.1788721875,7.216796875000007e-05,0.82721701171875
-0.25108611328125,0.038306259765625,0.82721701171875
-0.29339326171875,0.02727719482421875,0.763809228515625
-0.17765646484375,-0.0190448779296875,0.824759345703125
-0.31673513671875,0.0446786083984375,1.0324321240234375
-0.31965287109375,0.00178780029296875,1.148188193359375
-0.244034921875,-0.0200252392578125,1.116730068359375
-0.30409162109375,-0.0474753564453125,0.9857364697265625
-0.1599069140625,-0.05409279541015625,0.9129895556640625
-0.2022140625,-0.01487834228515625,0.8161575146484374
-0.20975154296875,-0.01928996826171875,0.7439021337890624
-0.12367837890625,0.0074248779296875,0.7729025927734375
-0.25254498046875,0.01894412353515625,0.8825144970703125
-0.23528171875,-0.0004180126953125,1.103950205078125
-0.3106565234375,0.00865032958984375,1.131476064453125
-0.26372962890625,-0.01585870361328125,0.929947451171875
-0.21266927734375,0.063795654296875,0.820827080078125
-0.2172890234375,-0.01732924560546875,0.8648193017578125
-0.20683380859375,0.0486000537109375,0.9341254833984375
-0.21193984375,0.0152677685546875,0.879811064453125
-0.2600824609375,-0.00850599365234375,0.859166669921875
-0.24306234375,-0.0009081933593750001,0.9587021435546875
-0.24476435546875,-0.091101435546875,0.8923451611328125
-0.1550440234375,0.0515411376953125,0.9174133544921875
-0.224583359375,-0.053847705078125,0.946659580078125
-0.26324333984375,-0.028113220214843748,1.0393135888671874
-0.25473328125,0.032424091796875,1.090187275390625
-0.39065107421875,0.00619942626953125,1.1518746923828125
-0.23357970703125,-0.05850442138671875,0.970253173828125
-0.15625974609374998,-0.06683749267578125,0.7473428662109375
-0.15334201171875,-0.02125069091796875,0.6102051025390625
-0.16258150390625,-0.0768861962890625,0.686146982421875
-0.14458880859375,-0.02615249755859375,0.7534870312499999
-0.26421591796875,-0.0055649096679687505,0.8009199853515625
-0.22531279296875,0.036345537109375,0.942727314453125
-0.3116291015625,0.00668960693359375,0.9700074072265625
-0.27248283203125,0.0427178857421875,0.9134810888671875
-0.35174794921875,0.0044837939453125,0.9609140429687499
-0.22944625,0.07874616455078125,1.0442289208984374
-0.17303671874999998,0.05374695068359375,1.1567900244140625
-0.23528171875,0.12629368896484375,0.946168046875
-0.1385101953125,0.00521906494140625,0.7679872607421875
-0.22434021484375,-0.032279755859375,0.8186151806640625
-0.26421591796875,0.07286399658203124,1.0845346435546874
-0.26616107421875,0.008405239257812499,1.1189419677734376
-0.25546271484375,0.020659755859375,1.109848603515625
-0.423961875,0.0701680029296875,1.09264494140625
-0.36487775390625,0.02335574951171875,1.0850261767578124
-0.38457246093749997,0.016738310546875,1.0486527197265625
-0.302389609375,0.009140510253906251,1.019406494140625
-0.111764296875,-0.0661022216796875,0.9191337207031249
-0.24306234375,-0.05090662109375,1.111814736328125
-0.29874244140625,-0.00948635498046875,1.28532595703125
-0.37363095703125,-0.01144707763671875,1.0948568408203125
-0.2853694921875,-0.0190448779296875,0.926015185546875
-0.2785614453125,0.00178780029296875,0.8264797119140626
-0.32889236328125,-0.08227818359375,0.74070716796875
-0.25789416015625,-0.16585398681640626,0.7483259326171875
-0.259596171875,-0.0190448779296875,0.766758427734375
-0.23114826171875,-0.0464949951171875,0.6342902294921875
-0.2075632421875,-0.0513968017578125,0.6750874853515625
-0.224583359375,-0.0043394580078125,0.9031588916015625
-0.15139685546875,0.0012976196289062499,1.0963314404296876
-0.28026345703125,0.091245771484375,1.1073909375
-0.32840607421875,-0.00311400634765625,1.1911973486328125
-0.3019033203125,0.07874616455078125,1.2398591357421875
-0.29728357421875,-0.0028689160156250004,1.17817171875
-0.212912421875,0.04247279541015625,1.0894499755859375
-0.28755779296875,0.0525214990234375,1.07101748046875
-0.26178447265625,0.0765403515625,1.0712632470703125
-0.257651015625,-0.016593974609375,1.112797802734375
-0.35563826171875,0.08070688720703124,1.1661291552734374
-0.2425760546875,0.1113431787109375,1.0427543212890624
-0.2133987109375,-0.03350520751953125,0.965829375
-0.20586123046875,0.0035034326171875,1.1164843017578125
-0.26470220703125,-0.05409279541015625,1.1430270947265626
-0.22531279296875,-0.0631611376953125,1.064627548828125
-0.21947732421875,-0.03448556884765625,1.067576748046875
-0.2513292578125,0.12139188232421876,1.2312573046875
-0.4122909375,-0.008996174316406251,1.2757410595703125
-0.18446451171875,-0.02762303955078125,1.2831140576171876
-0.3835998828125,-0.00262382568359375,1.096085673828125
-0.4020788671875,-0.116590830078125,0.8485987060546875
-0.15334201171875,-0.13129625,0.668451787109375
-0.11468203125,-0.15752091552734376,0.5566279833984376
-0.14167107421875,-0.1298257080078125,0.5551533837890625
-0.14750654296875,-0.10213050048828125,0.6264256982421875
-0.187625390625,0.0642858349609375,0.784453623046875
-0.27394169921875,0.01600303955078125,0.923065986328125
-0.2357680078125,0.06624655761718751,1.0692971142578125
-0.3344846875,0.18609572998046875,1.0582376171875
-0.2824517578125,0.206928408203125,1.109848603515625
-0.38238416015625,0.08658905517578125,1.221426640625
-0.20002576171875,0.0642858349609375,1.2115959765625
-0.2775888671875,0.05031568603515625,1.07101748046875
-0.23066197265625,-0.006790361328125,0.9798380712890625
-0.185680234375,-0.07909200927734375,0.9523122119140625
-0.25011353515625,-0.104826494140625,1.0638902490234374
-0.32281375,-0.035711020507812496,1.2718087939453124
-0.1851939453125,0.008895419921875,1.3268605126953126
-0.325731484375,0.07286399658203124,1.2226554736328126
-0.40961634765625,0.0025230712890624996,0.901438525390625
-0.2542469921875,-0.14722712158203125,0.65026505859375
-0.0247185546875,-0.11561046875,0.6554261572265625
-0.140941640625,0.138303115234375,0.8205813134765625
-0.37849384765625,0.12531332763671876,0.9395323486328125
-0.19564916015625,-0.03546593017578125,1.0874838427734375
-0.30871136718750003,0.09786321044921875,1.1526119921875
-0.47283392578125,-0.0011532836914062497,1.0643817822265624
-0.26810623046875,-0.00213364501953125,0.936828916015625
-0.2970404296875,0.05080586669921875,0.8574463037109374
-0.1968648828125,-0.09281706787109376,0.8599039697265625
-0.22044990234375,-0.03203466552734375,0.893573994140625
-0.24476435546875,-0.01585870361328125,0.9277355517578125
-0.09109701171875,-0.006790361328125,0.9972875
-0.3330258203125,-0.00213364501953125,0.9513291455078126
-0.23819945312500002,0.04982550537109375,0.9808211376953125
-0.2902323828125,0.15300853515625001,1.0717547802734375
-0.36828177734375,-0.0239466845703125,1.1150097021484375
-0.32402947265625,-0.010221625976562499,1.2074179443359374
-0.317950859375,-0.01095689697265625,1.0417712548828124
-0.2017277734375,-0.0121823486328125,0.9483799462890625
-0.22725794921875,0.0093856005859375,0.9041419580078125
-0.31235853515625,-0.1033559521484375,0.9695158740234375
-0.20464550781250002,0.00791505859375,1.0471781201171875
-0.022287109375,-0.1195319140625,1.024321826171875
-0.29752671875000003,0.063795654296875,1.0560257177734376
-0.32646091796875,0.220653466796875,1.0402966552734374
-0.27540056640625,-0.12860025634765626,0.9547698779296875
-0.25254498046875,0.10399046875,1.0884669091796875
-0.2873146484375,0.2172222021484375,1.17325638671875
-0.35101851562499997,-0.10899302978515625,1.21061291015625
-0.23698373046875,0.201046240234375,1.1715360205078125
-0.18592337890625,0.23315307373046876,1.049881552734375
-0.33667298828125003,-0.07811164794921875,1.0619241162109374
-0.25059982421875,-0.085219267578125,1.0923991748046875
-0.26907880859375,0.0495804150390625,1.132459130859375
-0.2834243359375,0.0270321044921875,1.1189419677734376
-0.22434021484375,0.00766996826171875,0.9228202197265625
-0.10374052734375,-0.0200252392578125,0.825742412109375
-0.2878009375,-0.0739451123046875,0.89209939453125
-0.3267040625,-0.09281706787109376,0.8304119775390625
-0.20294349609375,0.03266918212890625,0.8372934423828124
-0.14361623046875,-0.1062970361328125,0.8122252490234375
-0.13291787109375,-0.08399381591796876,0.9149556884765625
-0.2805066015625,0.0329142724609375,1.060695283203125
-0.34810078125,-0.19330410400390624,1.012525029296875
-0.290718671875,0.0037485229492187503,1.008592763671875
-0.27151025390625,-0.02149578125,0.9459222802734375
-0.34007701171875,-0.0190448779296875,1.112797802734375
-0.2182616015625,0.087324326171875,0.9940925341796875
-0.1424005078125,0.00766996826171875,0.6942572802734375
-0.13948277343749999,0.1221271533203125,0.8082929833984375
-0.22968939453125,-0.028113220214843748,0.930438984375
-0.27296912109375,0.0172284912109375,1.1066536376953124
-0.42809533203125,-0.0332601171875,1.11820466796875
-0.2659179296875,-0.0023787353515625003,0.9424815478515625
-0.2386857421875,-0.0631611376953125,0.813945615234375
-0.23892888671875,0.0642858349609375,0.824759345703125
-0.17814275390625,0.08953013916015624,0.9665666748046875
-0.28026345703125,0.06698182861328125,1.010558896484375
-0.277102578125,0.15668489013671874,1.0520934521484375
-0.33253953125,-0.03399538818359375,1.0329236572265625
-0.32062544921875,0.17776265869140626,0.973202373046875
-0.34056330078125,0.10521592041015625,0.8849721630859375
-0.1657423828125,0.1740863037109375,0.8092760498046875
-0.20975154296875,0.0985984814453125,0.8938197607421875
-0.3291355078125,-0.05458297607421875,1.0619241162109374
-0.30214646484375,0.0093856005859375,1.072492080078125
-0.2454937890625,-0.146001669921875,0.92748978515625
-0.3048210546875,-0.0960032421875,1.022355693359375
-0.30214646484375,-0.08105273193359375,1.0992806396484376
-0.300444453125,-0.0004180126953125,1.06806828125
-0.382141015625,-0.153844560546875,1.01596576171875
-0.24670951171875,-0.030319033203124998,0.91077765625
-0.14969484375,-0.0016434643554687498,0.7065456103515625
-0.14410251953125,-0.0288484912109375,0.7340714697265625
-0.28658521484375,-0.051886982421875,0.87931953125
-0.17522501953125,0.01453249755859375,0.9650920751953125
-0.07699462890625,0.06894255126953125,1.015474228515625
-0.31624884765625,0.10521592041015625,1.1484339599609374
-0.448276328125,0.2593777392578125,1.2890124560546874
-0.33570041015625,0.15472416748046874,1.1671122216796874
-0.25594900390624997,0.0162481298828125,0.98450763671875
-0.2999581640625,0.0731090869140625,0.8382765087890625
-0.1190586328125,-0.1626678125,0.8451579736328125
-0.0422249609375,-0.06585713134765625,0.8952943603515625
-0.30652306640625,0.10864718505859375,0.8889044287109376
-0.13802390625,-0.18153976806640626,0.9822957373046874
-0.26907880859375,0.01404231689453125,1.066593681640625
-0.341292734375,-0.12222790771484375,1.1872650830078124
-0.14264365234375,-0.09183670654296874,1.2162655419921875
-0.316005703125,0.14197947021484375,1.109848603515625
-0.26227076171875,0.10766682373046875,1.013508095703125
-0.19613544921875,0.01649322021484375,0.9097945898437501
-0.13194529296875,0.0564429443359375,0.83901380859375
-0.30749564453125,0.01012087158203125,0.924049052734375
-0.37898013671874997,-0.1195319140625,1.0597122167968749
-0.2639727734375,0.00963069091796875,1.1022298388671874
-0.144831953125,0.06011929931640625,0.9616513427734374
-0.271267109375,-0.0562986083984375,0.8279543115234375
-0.02131453125,-0.03350520751953125,0.9100403564453124
-0.4137498046875,0.08021670654296875,0.9582106103515625
-0.3602580078125,0.0956573974609375,1.1700614208984375
-0.1929745703125,0.122617333984375,1.30400421875
-0.3797095703125,0.04590406005859375,1.0835515771484374
-0.14167107421875,0.20178151123046875,0.9501003125
-0.43587595703125,-0.06683749267578125,0.76823302734375
-0.11443888671875,-0.08007237060546875,0.6873758154296875
-0.10130908203125,-0.004829638671875,0.576535078125
-0.2172890234375,0.019434304199218752,0.576043544921875
-0.07164544921875,-0.00654527099609375,0.6249510986328125
-0.237226875,0.049090234375,1.0009739990234374
-0.34104958984375,0.15300853515625001,1.33447927734375
-0.35661083984374997,0.12947986328125,1.38756486328125
-0.39697283203125,0.24197632568359376,1.447040380859375
-0.44608802734374997,0.19614443359375,1.3307927783203124
-0.30895451171875,-0.09575815185546875,1.1071451708984374
-0.0179105078125,0.11796061767578125,1.1636714892578124
-0.2639727734375,0.065756376953125,0.903404658203125
-0.2600824609375,0.0505607763671875,0.6399428613281251
-0.052680175781250005,-0.03938737548828125,0.953541044921875
-0.4147223828125,0.16477287109375,1.2624696630859376
-0.31770771484375,0.1510478125,1.320224814453125
-0.27345541015625,-0.0033590966796874996,1.11427240234375
-0.177899609375,0.17923320068359375,0.9341254833984375
-0.25789416015625,-0.0097314453125,0.68368931640625
-0.35393625,-0.08546435791015625,0.7672499609375
-0.2902323828125,0.0466393310546875,0.9400238818359374
-0.3748466796875,0.0015427099609375003,0.822793212890625
-0.154557734375,0.08266760986328126,0.8871840625
-0.1949197265625,-0.01634888427734375,1.028254091796875
-0.13291787109375,0.20129133056640625,1.114763935546875
-0.33181009765625,0.08168724853515624,1.1287726318359375
-0.298499296875,0.03659062744140625,1.0978060400390626
-0.28391062499999997,0.1329111279296875,1.1091113037109375
-0.30919765625,-0.093062158203125,0.8852179296875
-0.277102578125,0.02286556884765625,0.748080166015625
0.012968847656250001,-0.024436865234375,0.777080625
0.012725703124999998,0.02776737548828125,1.0250591259765625
-0.22677166015625,0.08609887451171874,1.30695341796875
-0.36779548828124997,0.01453249755859375,1.345784541015625
-0.3252451953125,-0.0072805419921875,1.236664169921875
-0.4098594921875,-0.13791368896484374,0.950591845703125
-0.17911533203125,-0.07664110595703125,0.6259341650390625
-0.0937716015625,-0.02909358154296875,0.4509483447265625
-0.1088465625,-0.13252170166015625,0.4637282080078125
-0.12659611328125,-0.139139140625,0.4701181396484375
-0.1044699609375,0.0721287255859375,0.5667044140624999
-0.041495527343750005,0.1368325732421875,0.862115869140625
-0.18884111328125,0.26648535888671876,1.175714052734375
-0.35272052734375,0.3231012255859375,1.4674390087890625
-0.12270580078125,0.2765340625,1.4610490771484375
-0.30263275390625,0.17629211669921874,1.5298637255859375
-0.37557611328125,0.2005560595703125,1.461786376953125
-0.3923530859375,0.1623219677734375,1.2806563916015625
-0.43538966796875,0.09198104248046875,1.24403716796875
-0.41204779296875,0.030708459472656248,1.1022298388671874
-0.17668388671875,0.2098694921875,0.926998251953125
-0.1725504296875,0.030463369140625002,0.8397511083984375
-0.080641796875,0.0427178857421875,0.977626171875
-0.4059691796875,0.18462518798828126,1.0560257177734376
-0.26810623046875,-0.055073156738281254,0.830657744140625
-0.21023783203125002,-0.1430605859375,0.7050710107421875
-0.1793584765625,-0.12149263671875,0.6337986962890625
-0.21753216796875,-0.0817880029296875,0.67385865234375
-0.3111428125,-0.00997653564453125,0.8864467626953125
-0.479398828125,0.07580508056640625,0.9341254833984375
-0.37533296875,0.0008074389648437498,0.8557259375
-0.415208671875,-0.0631611376953125,0.71121517578125
-0.199296328125,0.00791505859375,0.62667146484375
-0.0067258593750000005,-0.0621807763671875,0.7328426367187499
-0.22968939453125,0.00276816162109375,0.8943112939453125
-0.1939471484375,-0.0646316796875,0.950591845703125
-0.2450075,-0.0018885546875000003,0.9700074072265625
-0.3417790234375,0.09418685546875,0.8498275390625
-0.22871681640625,0.16158669677734375,0.8210728466796875
-0.21169669921875,0.18217428466796876,0.8544971044921875
-0.22677166015625,0.0883046875,1.182103984375
-0.3748466796875,0.046149150390625,1.3300554785156251
-0.4108320703125,0.04933532470703125,1.430328251953125
-0.5224354101562501,-0.0259074072265625,1.096085673828125
-0.146777109375,0.06747200927734374,0.8874298291015625
-0.31989601562500003,-0.05213207275390625,0.8810398974609375
-0.07602205078125,-0.12149263671875,1.119679267578125
-0.26470220703125,0.1235976953125,1.19684998046875
-0.28998923828125,0.00865032958984375,0.9208540869140625
-0.1355924609375,0.10521592041015625,0.7085117431640625
-0.02520484375,0.07335417724609375,0.6190527001953126
-0.117599765625,-0.1533543798828125,0.828200078125
-0.290718671875,-0.07517056396484376,1.208155244140625
-0.40280830078125,0.0603643896484375,1.4118957568359374
-0.4156949609375,-0.106787216796875,1.3275978125
-0.38627447265625,0.06992291259765625,1.1936550146484375
-0.34104958984375,0.12727405029296876,0.9994993994140625
-0.1492085546875,0.0407571630859375,0.9874568359375
-0.39210994140625,0.09933375244140626,1.0535680517578125
-0.097175625,0.0201695751953125,1.0481611865234375
-0.1633109375,0.1397736572265625,0.809030283203125
-0.14604767578125,0.00472888427734375,0.7082659765625
-0.10228166015625,-0.05458297607421875,0.71514744140625
-0.15066742187499998,-0.075415654296875,0.8859552294921875
-0.2931501171875,0.02482629150390625,0.92748978515625
-0.34591248046875,-0.0396324658203125,0.858183603515625
-0.25643529296875,-0.046004814453125,0.9346170166015625
-0.34007701171875,0.1897720849609375,1.0201437939453124
-0.21193984375,0.07776580322265625,1.1958669140625
-0.286828359375,0.11845079833984375,1.2639442626953126
-0.1725504296875,0.07678544189453125,1.0673309814453125
-0.21023783203125002,0.011346323242187501,0.9862280029296875
-0.36828177734375,0.09002031982421875,1.024321826171875
-0.16015005859375,0.120656611328125,1.0181776611328126
-0.277102578125,0.0878145068359375,0.876861865234375
-0.16452666015625,0.016738310546875,0.756927763671875
-0.089395,7.216796875000007e-05,0.65616345703125
-0.14021220703125,0.00987578125,0.67582478515625
-0.30944080078125,-0.01953505859375,0.9228202197265625
-0.3116291015625,-0.06095532470703125,1.089204208984375
-0.24622322265625,-0.00360418701171875,1.119679267578125
-0.339347578125,0.012816865234374999,1.0778989453125
-0.32062544921875,0.0770305322265625,0.99237216796875
-0.30311904296875003,0.1329111279296875,0.834590009765625
-0.29874244140625,-0.0028689160156250004,0.75250396484375
-0.1978374609375,0.12188206298828125,0.689096181640625
-0.22142248046875002,-0.04698517578125,0.5753062451171875
0.030232109375,0.07433453857421875,0.8004284521484375
0.0025136328124999996,-0.09918941650390625,1.1290183984375
-0.38043900390625,-0.0857094482421875,1.2312573046875
-0.4857205859375,0.1711452197265625,1.16244265625
-0.3855450390625,-0.03301502685546875,0.9862280029296875
-0.358799140625,0.19050735595703125,0.89406552734375
-0.23114826171875,0.2731027978515625,0.842454541015625
-0.19029998046875,0.22947671875,0.8387680419921875
-0.13437673828125,0.10619628173828125,0.94715111328125
-0.25084296875,0.2348687060546875,1.12606919921875
-0.3719289453125,0.0231106591796875,1.24108796875
-0.27588685546875,0.17090012939453125,1.3460303076171876
-0.35126166015625,0.138303115234375,1.22830810546875
-0.374360390625,0.1123235400390625,1.134425263671875
-0.382141015625,0.09884357177734375,0.9606682763671874
-0.1414279296875,0.0770305322265625,0.9532952783203125
-0.302389609375,0.0843832421875,1.1164843017578125
-0.112736875,0.0809519775390625,1.14769666015625
-0.20683380859375,0.08021670654296875,0.99237216796875
-0.234309140625,0.169674677734375,0.9134810888671875
-0.14896541015625,0.080461796875,0.926015185546875
-0.4555706640625,0.08462833251953125,1.057746083984375
-0.2756437109375,-0.00948635498046875,1.117713134765625
-0.17182099609375,-0.0006631030273437505,1.058729150390625
-0.27029453125,0.09149086181640625,1.0181776611328126
-0.19078626953125,-0.035711020507812496,1.0314490576171875
0.07035095703125,-0.0504164404296875,1.1329506640625
-0.07942607421875,0.0897752294921875,1.5566522851562499
-0.64011736328125,0.1182057080078125,1.5052870654296875
-0.37995271484375,0.18217428466796876,1.03759322265625
-0.34226531250000003,0.06649164794921875,0.89013326171875
-0.2027003515625,-0.0464949951171875,1.0191607275390624
-0.1628246484375,0.07041309326171875,1.134425263671875
-0.12562353515625,0.0721287255859375,1.0697886474609375
-0.11832919921875,0.10080429443359375,0.8053437841796875
-0.24379177734375002,0.064776015625,0.69745224609375
-0.35515197265625,-0.055808427734375,0.8658023681640625
-0.2163164453125,-0.044044091796875,1.075441279296875
-0.197351171875,0.0378160791015625,1.0909245751953125
-0.16355408203125,-0.00703545166015625,0.9363373828125
-0.12829812499999999,-0.03914228515625,0.7960046533203124
-0.2736985546875,-0.03497574951171875,0.925032119140625
-0.30992708984375,0.0427178857421875,1.1843158837890626
-0.33083751953125,0.174576484375,1.242562568359375
-0.2873146484375,0.21844765380859374,1.3519287060546874
-0.244034921875,0.148106728515625,1.3003177197265625
-0.25108611328125,0.11747043701171875,1.0503730859375
-0.2309051171875,0.071638544921875,0.889641728515625
-0.22385392578125,-0.004829638671875,0.7704449267578125
-0.2688356640625,-0.07958218994140626,0.7321053369140624
-0.24087404296875,-0.1151202880859375,0.7350545361328125
-0.19273142578125,-0.08889562255859375,0.83213234375
-0.29387955078125,-0.1219828173828125,0.7080202099609375
-0.28366748046875,-0.06977857666015624,0.718588173828125
-0.253760703125,0.008895419921875,0.62470533203125
-0.1667149609375,-0.06242586669921875,0.6347817626953125
-0.23844259765625,0.0172284912109375,0.977134638671875
-0.2561921484375,0.07433453857421875,1.04545775390625
-0.34348103515625,0.008895419921875,0.974185439453125
-0.304334765625,0.106931552734375,0.84786140625
-0.2707808203125,0.12825441162109374,0.7866655224609375
-0.111764296875,0.06355056396484375,0.9134810888671875
-0.20975154296875,0.10399046875,1.0820769775390624
-0.310170234375,-0.11340465576171875,0.9469053466796875
-0.24330548828125,-0.0729647509765625,0.8471241064453126
-0.280992890625,0.017718671875,0.8097675830078125
-0.25400384765625,-0.06438658935546875,0.749063232421875
-0.222638203125,-0.04821062744140625,0.8023945849609375
-0.26664736328125,0.02752228515625,0.7748687255859374
-0.2878009375,0.00472888427734375,0.8048522509765625
-0.337402421875,0.1142842626953125,1.0476696533203125
-0.3388612890625,0.16060633544921876,1.126560732421875
-0.2289599609375,0.01453249755859375,1.00416896484375
-0.1355924609375,-0.0455146337890625,0.831640810546875
-0.13437673828125,-0.134237333984375,0.749554765625
-0.18397822265625,-0.07320984130859375,0.8065726171875
-0.26859251953125,-0.096983603515625,0.925032119140625
-0.2600824609375,-0.03938737548828125,1.0751955126953125
-0.42931105468749997,0.02727719482421875,1.1440101611328124
-0.33108066406250003,0.08364797119140625,1.114763935546875
-0.481343984375,0.0044837939453125,0.9913891015625
-0.30360533203125,0.0642858349609375,0.8299204443359375
-0.23309341796875,-0.03914228515625,0.6849181494140625
-0.0869635546875,-0.0562986083984375,0.6768078515625
-0.040766093749999996,-0.0347306591796875,0.7527497314453125
-0.25084296875,0.10374537841796876,0.95698177734375
-0.29922873046875,0.1201664306640625,1.2826225244140625
-0.17279357421875,0.06551128662109375,1.522736494140625
-0.4312562109375,0.35471787841796876,1.56451681640625
-0.3612305859375,0.18438009765625,1.3288266455078124
-0.32743349609375,0.01698340087890625,1.3059703515625
-0.5129527734375,0.24981921630859374,1.157035791015625
-0.3777644140625,-0.0915916162109375,1.001219765625
-0.0840458203125,-0.19428446533203125,0.771673759765625
-0.1414279296875,-0.0415931884765625,0.7719195263671875
-0.08428896484375001,-0.1665892578125,0.813945615234375
-0.1589343359375,-0.24820433837890626,0.95501564453125
-0.24695265625,-0.1131595654296875,1.2418252685546876
-0.3437241796875,-0.04477936279296875,1.2614865966796875
-0.3933256640625,-0.13546278564453124,1.182595517578125
-0.31138595703125,0.024091020507812498,1.01399962890625
-0.2386857421875,0.04394333740234375,0.9159387548828125
-0.2941226953125,-0.19845100097656249,0.90193005859375
-0.030067734375000002,-0.144040947265625,1.02383029296875
-0.2075632421875,0.004973974609375,0.9238032861328125
-0.17279357421875,0.0020328906249999995,0.88620099609375
-0.005753281249999999,-0.05262225341796875,1.056763017578125
-0.374360390625,-0.03203466552734375,1.2221639404296876
-0.391866796875,-0.014633251953124999,1.3671662353515626
-0.38287044921875,-0.06683749267578125,1.1803836181640626
-0.3223274609375,-0.01732924560546875,0.8466325732421875
-0.18300564453125,-0.20997024658203126,0.700892978515625
-0.27540056640625,-0.2200189501953125,0.7672499609375
-0.10203851562499999,0.00766996826171875,0.9380577490234375
-0.15820490234375,0.00472888427734375,1.067576748046875
-0.1530988671875,0.05889384765625,1.1012467724609376
-0.16793068359375,0.10129447509765625,1.0756870458984376
-0.27831830078124997,-0.01953505859375,1.07494974609375
-0.48499115234375,-0.02909358154296875,0.9567360107421875
-0.25473328125,0.18658591064453126,0.7262069384765625
-0.33959072265625,0.0770305322265625,0.6097135693359375
-0.286828359375,-0.076396015625,0.4470160791015625
-0.21315556640625,-0.02860340087890625,0.8633447021484375
-0.27029453125,0.04933532470703125,0.892590927734375
-0.2333365625,-0.05997496337890625,1.0975602734375
-0.37703498046875,0.00766996826171875,1.056271484375
-0.27807515625,0.143204921875,1.0678225146484375
-0.446331171875,-0.040122646484374996,0.8451579736328125
-0.1200312109375,0.11943115966796874,0.8215643798828125
-0.34834392578125,0.05374695068359375,0.9400238818359374
-0.40718490234375,0.0270321044921875,1.1508916259765625
-0.23892888671875,-0.0396324658203125,1.050864619140625
-0.415208671875,0.09149086181640625,0.899472392578125
-0.17619759765625,-0.08497417724609375,0.918150654296875
-0.174009296875,0.04737460205078125,0.9257694189453125
-0.31673513671875,-0.1210024560546875,1.0393135888671874
-0.28561263671875,-0.20849970458984374,1.0860092431640624
-0.22044990234375,0.19295825927734375,0.9572275439453125
-0.2960678515625,0.01453249755859375,0.9874568359375
-0.25473328125,0.1613416064453125,1.2034856787109376
-0.29144810546875,0.12237224365234375,1.2462490673828124
-0.2377131640625,0.04492369873046875,1.1833328173828126
-0.10690140625,-0.03448556884765625,1.258291630859375
-0.49277177734375,0.01012087158203125,1.2644357958984376
-0.0006472460937500014,-0.17418705810546875,1.1828412841796876
-0.36293259765625,-0.07051384765625,1.281885224609375
-0.58151953125,-0.01487834228515625,1.1479424267578124
-0.252788125,0.00717978759765625,0.9223286865234375
-0.15358515625,-0.0562986083984375,0.932896650390625
-0.170118984375,0.18707609130859376,0.9945840673828125
-0.061190234375,0.0329142724609375,0.9835245703125
-0.09912078125,0.0358553564453125,1.124594599609375
-0.17571130859375,0.0740894482421875,1.1749767529296875
-0.2095083984375,0.02776737548828125,1.1528577587890625
-0.40961634765625,-0.0768861962890625,1.212087509765625
-0.2542469921875,-0.068553125,1.4025566259765625
-0.45192349609375,-0.08105273193359375,1.4040312255859375
-0.42906791015625,-0.2641352099609375,1.23224037109375
-0.36779548828124997,-0.11487519775390626,0.856217470703125
-0.26616107421875,-0.19085320068359374,0.5703909130859375
-0.174981875,-0.23300873779296874,0.658621123046875
-0.039307226562500006,-0.0033590966796874996,0.886692529296875
-0.18106048828125,0.15276344482421875,1.129509931640625
-0.32208431640625,0.08315779052734375,1.19291771484375
-0.2085358203125,0.18658591064453126,1.0948568408203125
-0.47623794921875,0.1392834765625,1.0383305224609374
-0.24573693359375,-0.0239466845703125,0.952557978515625
-0.20245720703125,0.01845394287109375,0.8557259375
-0.18640966796875,-0.17320669677734374,0.7994453857421875
-0.23892888671875,-0.134237333984375,0.764792294921875
-0.31089966796875,-0.13742350830078126,0.7861739892578125
-0.27199654296875,-0.1994313623046875,0.98647376953125
-0.384086171875,-0.13595296630859374,1.119187734375
-0.3252451953125,0.0858537841796875,1.058729150390625
-0.16598552734375,-0.02664267822265625,1.07691587890625
-0.2639727734375,0.1701648583984375,1.16342572265625
-0.352963671875,0.181439013671875,0.8721922998046875
-0.11930177734375,-0.02174087158203125,0.787402822265625
-0.18397822265625,-0.0254172265625,0.971236240234375
-0.11541146484375,-0.03203466552734375,1.3273520458984376
-0.37703498046875,-0.01634888427734375,1.337920009765625
-0.28853037109375,-0.13889405029296875,1.186527783203125
-0.2795340234375,0.00276816162109375,0.98254150390625
-0.4137498046875,-0.07443529296875,0.89504859375
-0.24573693359375,0.01992448486328125,0.9813126708984374
-0.34931650390625,0.05717821533203125,1.0555341845703126
-0.30117388671875,-0.06585713134765625,0.9793465380859375
-0.240144609375,-0.1259042626953125,0.8348357763671875
-0.20391607421875,0.0162481298828125,0.779538291015625
-0.1861665234375,-0.05164189208984375,0.8065726171875
-0.13583560546875,0.10815700439453126,0.7325968701171874
-0.146777109375,0.097127939453125,0.9356000830078125
-0.09523046875,0.0613447509765625,1.2273250390625
-0.37946642578125,0.18070374267578124,1.39739552734375
-0.49957982421875,0.15668489013671874,1.163917255859375
-0.16306779296875,-0.05703387939453125,0.938795048828125
-0.46456701171875,-0.00507472900390625,0.916184521484375
-0.3344846875,-0.27222319091796876,0.8186151806640625
-0.09450103515625,-0.18055940673828125,0.678282451171875
-0.1278118359375,-0.1043363134765625,0.4352192822265625
-0.11200744140625,-0.21830331787109375,0.355836669921875
-0.082586953125,-0.20776443359375,0.710723642578125
-0.09085386718749999,-0.2494297900390625,1.0196522607421874
-0.24476435546875,0.0020328906249999995,1.043000087890625
-0.2698082421875,0.0103659619140625,1.1997991796875
-0.3485870703125,0.111833359375,1.17718865234375
-0.329621796875,0.09590248779296875,1.194392314453125
-0.26470220703125,-0.0768861962890625,1.0597122167968749
-0.1744955859375,-0.071494208984375,0.824759345703125
-0.11322316406249999,-0.130315888671875,0.5354920556640625
-0.0383346484375,-0.19992154296875,0.4676604736328125
-0.056084199218750005,0.018699033203125,0.61684080078125
-0.22677166015625,0.0515411376953125,0.6195442333984374
-0.05948822265625,0.13952856689453125,0.7733941259765625
-0.2299325390625,0.23658433837890624,1.1548238916015625
-0.36341888671875,0.3387870068359375,1.60285640625
-0.55939337890625,0.3493258911132813,1.8198683154296875
-0.61045373046875,0.24246650634765626,1.691823916015625
-0.2299325390625,0.0054641552734375,1.1592476904296876
0.05673486328125,0.126538779296875,0.7542243310546874
-0.21996361328125,-0.06291604736328126,0.467906240234375
-0.02131453125,-0.126394443359375,0.458567109375
-0.1803310546875,-0.0268877685546875,0.6650110546875
-0.339347578125,0.0142874072265625,0.76823302734375
-0.27491427734375,-0.0268877685546875,1.0503730859375
-0.421044140625,0.062080021972656246,1.2452660009765626
-0.18786853515625002,0.05864875732421875,1.2300284716796874
-0.26275705078125,-0.0651218603515625,1.1194335009765626
-0.430769921875,0.18658591064453126,1.07494974609375
-0.24281919921875,0.09492212646484376,0.9921264013671875
-0.3408064453125,-0.00948635498046875,0.9985163330078125
-0.05851564453125,0.1123235400390625,0.9621428759765625
-0.121490078125,0.19222298828125,1.0697886474609375
-0.39162365234375,0.10178465576171875,1.1253318994140624
-0.24136033203125,0.16844922607421875,1.1779259521484375
-0.3811684375,-0.0170841552734375,1.0727378466796875
-0.28196546875,-0.00213364501953125,0.99630443359375
-0.32257060546875,-0.100905048828125,1.0073639306640625
-0.2435486328125,-0.1651187158203125,0.9763973388671875
-0.0266637109375,0.0765403515625,1.3765053662109374
-0.3602580078125,0.3368262841796875,1.63136533203125
-0.4886383203125,0.22947671875,1.5986783740234376
-0.20804953125,-0.0857094482421875,1.3558609716796874
-0.29631099609375,-0.065612041015625,1.1636714892578124
-0.43174250000000003,0.09590248779296875,1.021372626953125
-0.06021765625,0.08953013916015624,0.872929599609375
-0.18446451171875,0.091245771484375,0.8773533984374999
-0.25157240234375,-0.02174087158203125,0.817877880859375
-0.417153828125,-0.02125069091796875,0.90586232421875
-0.35977171875,-0.18889247802734374,1.0550426513671876
0.06354291015625,-0.159726728515625,1.1997991796875
-0.43052677734375,0.138303115234375,1.08281427734375
-0.300444453125,0.11599989501953126,0.8427003076171875
0.0618408984375,0.0466393310546875,0.9911433349609375
-0.29679728515625,0.04590406005859375,1.4590829443359374
-0.61434404296875,0.04345315673828125,1.5264229931640625
-0.17036212890625,-0.09134652587890625,1.528634892578125
-0.47575166015625,0.02923791748046875,1.2221639404296876
-0.4448723046875,-0.06267095703125,0.8068183837890625
-0.0480604296875,-0.21977385986328124,0.840488408203125
-0.2017277734375,-0.01095689697265625,1.083305810546875
-0.28998923828125,-0.0013983740234375002,1.0555341845703126
-0.09425789062500001,-0.11757119140625,0.962388642578125
-0.0879361328125,-0.14894275390625,1.0157199951171876
-0.314060546875,-0.034240478515625,1.120662333984375
-0.33959072265625,-0.0925719775390625,1.015474228515625
-0.331566953125,-0.0249270458984375,0.777572158203125
-0.12708240234375,0.00227798095703125,0.8498275390625
-0.24525064453125,-0.04085791748046875,1.0142453955078126
-0.189570546875,-0.0337502978515625,1.25681703125
-0.27929087890625,0.08242251953125,1.467684775390625
-0.33715927734375,-0.05605351806640625,1.5812289453125
-0.18203306640625,0.2182025634765625,1.6640522900390624
-0.45824525390625,0.27530861083984376,1.5261772265625
-0.52535314453125,0.02041466552734375,1.2270792724609374
-0.28974609375,0.0030132519531249997,0.8616243359375
-0.14896541015625,-0.02860340087890625,0.5792385107421875
-0.07407689453124999,-0.08742508056640624,0.4015492578125
-0.07796720703125,-0.0768861962890625,0.3801675634765625
-0.172064140625,0.0593840283203125,0.5836623095703125
-0.37581925781250003,-0.0239466845703125,0.8200897802734375
-0.42979734375,-0.13595296630859374,0.8584293701171875
-0.17960162109375,-0.19967645263671874,0.8834975634765625
-0.26640421875,-0.10360104248046875,0.9992536328125
-0.45168035156249997,0.00865032958984375,0.93338818359375
-0.111764296875,0.07188363525390624,1.1145181689453125
-0.2659179296875,-0.1504132958984375,1.3745392333984374
-0.5197608203125,-0.02125069091796875,1.2541135986328125
-0.15164,-0.02860340087890625,0.974185439453125
-0.13607875,-0.1430605859375,0.8186151806640625
-0.10033650390625,0.07261890625,0.7952673535156249
-0.31697828125,-0.05482806640625,0.678773984375
-0.1355924609375,-0.08546435791015625,0.679265517578125
-0.2989855859375,0.07433453857421875,0.7989538525390625
-0.19224513671875,0.0608545703125,0.8554801708984375
-0.33326896484375,-0.00752563232421875,0.8019030517578125
-0.206104375,0.0608545703125,0.809030283203125
-0.30992708984375,0.0593840283203125,0.930438984375
-0.14458880859375,0.0059543359375,0.96877857421875
-0.1521262890625,0.0451687890625,1.0692971142578125
-0.16720125,-0.069533486328125,1.0432458544921874
-0.24719580078125,-0.05899460205078125,0.90782845703125
-0.13607875,-0.01389798095703125,0.731368037109375
-0.121490078125,0.02727719482421875,0.68565544921875
-0.1813036328125,0.02776737548828125,0.654688857421875
-0.05511162109375,-0.0151234326171875,0.687130048828125
-0.19127255859375,0.034384814453125,0.793301220703125
-0.2163164453125,0.08242251953125,0.7901062548828125
-0.19127255859375,0.085363603515625,0.83901380859375
-0.13000013671875,0.06845237060546874,0.816894814453125
-0.183735078125,0.16869431640625,0.87047193359375
-0.1628246484375,0.0652661962890625,0.934862783203125
-0.31673513671875,0.03144373046875,0.9852449365234375
-0.12659611328125,0.04737460205078125,0.88816712890625
-0.366579765625,-0.0254172265625,0.7227662060546876
-0.1336473046875,-0.05752406005859375,0.590789541015625
-0.2250696484375,0.00227798095703125,0.6057813037109375
-0.138996484375,0.04198261474609375,0.542619287109375
-0.12465095703125,0.06502110595703126,0.513618828125
-0.148722265625,0.08609887451171874,0.5561364501953125
-0.27053767578125,-0.048945898437499996,0.6947488134765625
-0.22385392578125,0.14197947021484375,0.7679872607421875
-0.23747001953125,0.1417343798828125,0.819844013671875
-0.3505322265625,0.09394176513671874,0.776589091796875
-0.27613,0.1191860693359375,0.719571240234375
-0.1958923046875,-0.013652890625,0.7252238720703125
-0.26324333984375,0.09933375244140626,0.7935469873046875
-0.20586123046875,0.169674677734375,0.831640810546875
-0.2211793359375,0.12678386962890625,0.8451579736328125
-0.3344846875,0.18756627197265624,0.79772501953125
-0.2630001953125,0.212810576171875,0.8023945849609375
-0.22434021484375,0.21575166015625,0.78986048828125
-0.2056180859375,0.2623188232421875,0.82328474609375
-0.20026890625,0.23413343505859374,0.9896687353515625
-0.2843969140625,0.1642826904296875,1.014491162109375
-0.30141703125,0.2074185888671875,1.0324321240234375
-0.2299325390625,0.2505544873046875,1.04152548828125
-0.28804408203125,0.108892275390625,1.0373474560546876
-0.27442798828125,0.10913736572265625,1.296631220703125
-0.30020130859375,0.09345158447265625,1.2197062744140625
-0.3067662109375,0.12041152099609376,1.1145181689453125
-0.29339326171875,-0.0474753564453125,0.8962774267578125
-0.22579908203125,-0.01585870361328125,0.82328474609375
-0.1307295703125,0.12531332763671876,0.9857364697265625
-0.16914640625,0.049090234375,1.113780869140625
-0.201241484375,0.24491740966796874,1.15556119140625
-0.34445361328125,0.26746572021484377,1.155069658203125
-0.28561263671875,0.26795590087890625,1.230765771484375
-0.244034921875,0.174576484375,1.300563486328125
-0.2960678515625,0.21207530517578124,1.322190947265625
-0.1399690625,0.03413972412109375,1.1277895654296874
-0.22823052734375,0.03561026611328125,1.189968515625
-0.43976626953125,-0.09526797119140624,1.2194605078125
-0.43757796875,-0.24820433837890626,0.987948369140625
-0.2902323828125,-0.08497417724609375,0.8112421826171875
-0.12902755859375,0.08266760986328126,0.89799779296875
-0.21899103515625,0.00178780029296875,1.1056705712890624
-0.1657423828125,0.1848702783203125,0.9604225097656249
-0.080641796875,-0.04526954345703125,0.7979707861328125
-0.129270703125,-0.09526797119140624,1.053813818359375
-0.2892598046875,0.02482629150390625,1.20078224609375
-0.3709563671875,-0.02223105224609375,1.0412797216796874
-0.38505875,-0.16634416748046876,1.0162115283203126
-0.20391607421875,-0.010221625976562499,0.9783634716796875
-0.159420625,0.01257177490234375,1.149171259765625
-0.28026345703125,0.01747358154296875,1.3106399169921874
-0.20002576171875,0.07065818359375,1.0668394482421875
-0.044170117187499996,-0.083258544921875,1.0516019189453125
-0.38627447265625,-0.19820591064453125,1.1798920849609376
-0.4935012109375,0.05472731201171875,1.1014925390624999
-0.11322316406249999,0.01110123291015625,0.9877026025390625
-0.40086314453125,-0.05801424072265625,1.0181776611328126
-0.4545980859375,-0.16928525146484374,0.9154472216796875
-0.16890326171875,-0.013652890625,0.6709094531249999
-0.13510617187500001,0.0976181201171875,0.5502380517578125
-0.06872771484375,0.07482471923828125,0.492482900390625
-0.016451640625,-0.03105430419921875,0.7271900048828125
-0.02520484375,-0.14673694091796874,1.0334151904296875
-0.33910443359375,-0.1406096826171875,1.3676577685546876
-0.51805880859375,0.089285048828125,1.4197602880859375
-0.3641483203125,-0.01487834228515625,1.2374014697265625
-0.48158712890625,-0.0141430712890625,1.028254091796875
-0.183735078125,-0.069533486328125,0.994829833984375
-0.22482650390625,-0.046249904785156254,1.015474228515625
-0.4400094140625,0.12727405029296876,0.8731753662109375
-0.07942607421875,0.15276344482421875,0.69941837890625
-0.09498732421875,0.0765403515625,0.6505108251953124
-0.13486302734375,0.0584036669921875,0.8535140380859375
-0.11200744140625,0.02972809814453125,1.091170341796875
-0.2668905078125,-0.045024453125,1.16244265625
-0.3500459375,-0.020515419921875,0.903404658203125
-0.21753216796875,0.07335417724609375,0.862115869140625
-0.39065107421875,0.0603643896484375,0.8063268505859374
-0.32791978515625,0.11967625,0.67779091796875
0.01588658203125,0.1706550390625,0.8441749072265625
-0.32086859375,0.12776423095703124,1.401819326171875
-0.376305546875,0.020659755859375,1.5102023974609375
-0.27442798828125,0.1642826904296875,1.518804228515625
-0.29363640625,0.1338914892578125,1.0260421923828125
-0.21412814453125,-0.05605351806640625,0.6264256982421875
0.0171023046875,-0.07222947998046875,0.584399609375
-0.07991236328125,0.0760501708984375,0.801165751953125
-0.2027003515625,0.0593840283203125,0.9980247998046875
-0.2474389453125,0.1084020947265625,1.156052724609375
-0.39259623046875003,0.071638544921875,0.9835245703125
-0.45289607421875,0.0044837939453125,0.746114033203125
-0.19953947265625,-0.16242272216796874,0.7537327978515624
-0.3485870703125,0.12678386962890625,1.07101748046875
-0.3184371484375,0.08242251953125,1.16539185546875
-0.3233000390625,0.01894412353515625,1.3216994140625
-0.33667298828125003,-0.027868129882812502,1.252884765625
-0.463837578125,0.18315464599609374,0.9572275439453125
-0.36755234375,0.0922261328125,0.684180849609375
-0.081614375,0.0515411376953125,0.6099593359375
-0.057056777343750004,0.17237067138671874,0.6500192919921874
-0.01474962890625,0.12874459228515625,0.746114033203125
-0.06532369140625,0.203006962890625,1.1759598193359375
-0.2639727734375,0.26893626220703126,1.3728188671875
-0.1890842578125,0.1809488330078125,1.587618876953125
-0.44900576171875,0.15276344482421875,1.6601200244140626
-0.60899486328125,-0.03203466552734375,1.3789630322265625
-0.12829812499999999,0.14124419921875,1.3219451806640625
-0.48061455078125,0.11796061767578125,1.172764853515625
-0.111764296875,-0.0567887890625,1.0476696533203125
-0.113709453125,-0.0332601171875,1.127052265625
-0.5897864453125,0.1074217333984375,1.23617263671875
-0.45338236328125,-0.14330567626953125,0.90193005859375
-0.13243158203125,0.028257556152343752,1.04349162109375
-0.06629626953125001,0.1182057080078125,0.946168046875
-0.13097271484375,0.03904153076171875,0.640925927734375
-0.16695810546875,0.026541923828125,0.7443936669921875
-0.36366203125,-0.03252484619140625,0.778555224609375
-0.30919765625,0.04786478271484375,0.79379275390625
-0.22701480468750002,0.1201664306640625,0.8943112939453125
-0.2133987109375,0.07482471923828125,1.145238994140625
-0.3267040625,0.12776423095703124,1.2786902587890625
-0.2279873828125,0.11060790771484375,1.1995534130859375
-0.33983386718749997,0.0191892138671875,1.03759322265625
-0.31819400390625,0.01845394287109375,0.96681244140625
-0.206104375,0.0535018603515625,1.1880023828125
-0.347128203125,0.1471263671875,1.167849521484375
-0.28609892578125,-0.03252484619140625,0.977626171875
-0.16525609375,0.06060947998046875,0.7788009912109375
-0.23601115234375,0.08364797119140625,0.7085117431640625
-0.11881548828124999,-0.055808427734375,0.5431108203125
-0.037848359375,-0.104826494140625,0.5684247802734375
-0.1015522265625,-0.10065995849609374,0.5610517822265625
-0.16112263671875,-0.1729616064453125,0.725469638671875
-0.26567478515625,-0.08399381591796876,0.923065986328125
-0.3437241796875,-0.0592396923828125,1.004660498046875
-0.22725794921875,0.02139502685546875,1.11427240234375
-0.19273142578125,-0.0210056005859375,1.257308564453125
-0.41350666015625,0.1706550390625,1.326123212890625
-0.46602587890625,0.2446723193359375,1.1368829296875
-0.2445212109375,-0.01879978759765625,1.021372626953125
-0.2386857421875,0.06355056396484375,0.8544971044921875
-0.1171134765625,-0.05409279541015625,0.745130966796875
0.043848203125,-0.0464949951171875,0.6475616259765625
0.0229377734375,-0.01732924560546875,0.7436563671875001
-0.18300564453125,-0.045024453125,0.8301662109375
-0.2202067578125,0.064776015625,0.971236240234375
-0.34421046875,0.1289896826171875,1.0520934521484375
-0.034930625,0.0010525292968750002,0.9105318896484375
-0.259596171875,-0.06634731201171876,0.74267330078125
-0.13097271484375,-0.07271966064453125,0.75053783203125
-0.17133470703125,0.0642858349609375,0.95894791015625
-0.29096181640625,-0.024436865234375,1.210121376953125
-0.27783201171875,0.1456558251953125,1.532567158203125
-0.26713365234374997,-0.0004180126953125,1.4492522802734376
-0.1365650390625,0.05276658935546875,1.2575543310546875
-0.148722265625,0.0137972265625,0.8734211328125
-0.109819140625,-0.010711806640625,0.6510023583984375
-0.2163164453125,-0.00262382568359375,0.57751814453125
-0.1706052734375,-0.05752406005859375,0.5620348486328125
-0.04003666015625,0.015022678222656249,0.717605107421875
-0.26227076171875,0.17286085205078125,1.0058893310546875
-0.29776986328125,0.1534987158203125,1.12017080078125
-0.3252451953125,0.22334946044921875,1.2010280126953126
-0.3408064453125,0.2387901513671875,1.275003759765625
-0.292663828125,0.13854820556640626,1.167849521484375
-0.42080099609375,0.04124734375,1.006626630859375
-0.18835482421875,0.0809519775390625,0.930438984375
-0.245980078125,0.08266760986328126,0.79379275390625
-0.06824142578125,-0.0259074072265625,0.7837163232421875
-0.1336473046875,0.09026541015625,0.755944697265625
-0.061190234375,0.0535018603515625,0.7375122021484375
-0.097175625,0.026051743164062502,0.980083837890625
-0.21461443359375,0.15913579345703124,1.193409248046875
-0.34032015625,0.2005560595703125,1.2093840771484374
-0.36487775390625,0.04443351806640625,1.125577666015625
-0.286828359375,0.20129133056640625,0.9316678173828125
-0.33861814453125,0.1172253466796875,0.971236240234375
-0.37654869140625,0.08070688720703124,1.1656376220703124
-0.17327986328125,0.20570295654296875,1.1744852197265625
-0.2347954296875,0.1515379931640625,0.9587021435546875
-0.1190586328125,0.05962911865234375,0.8712092333984375
-0.04344068359375,0.048109873046875,0.78396208984375
-0.1025248046875,0.00570924560546875,0.8476156396484374
-0.206104375,0.0608545703125,1.0661021484375
-0.29047552734375,0.13560712158203125,1.05528841796875
-0.28634207031250003,0.05570767333984375,0.9911433349609375
-0.30141703125,0.1387932958984375,1.0963314404296876
-0.34931650390625,0.31746414794921873,1.258291630859375
-0.3242726171875,0.20619313720703125,1.3160467822265625
-0.2571647265625,0.332414658203125,1.27942755859375
-0.2571647265625,0.19344843994140626,1.0555341845703126
-0.32986494140625,0.08511851318359374,0.848352939453125
-0.213885,0.03144373046875,0.8970147265625
-0.14215736328125,0.14050892822265626,0.928964384765625
-0.14969484375,0.10913736572265625,0.764792294921875
-0.13875333984375,0.00791505859375,0.72891037109375
-0.20877896484375,0.07923634521484375,0.84491220703125
-0.30311904296875003,0.07261890625,0.8436833740234375
-0.20148462890625,0.15374380615234376,0.8599039697265625
-0.205131796875,0.0868341455078125,0.930930517578125
-0.3281629296875,0.05423713134765625,1.0692971142578125
-0.33959072265625,0.053992041015625,1.2084010107421874
-0.29387955078125,0.10080429443359375,1.256325498046875
-0.36147373046875,0.04884514404296875,1.2457575341796876
-0.27005138671875,0.073599267578125,1.1376202294921876
-0.1103054296875,0.15325362548828125,0.9208540869140625
-0.1365650390625,0.0044837939453125,0.8144371484375
-0.20634751953125,0.097127939453125,0.8422087744140625
-0.12221951171875,-0.0055649096679687505,0.8628531689453125
-0.298499296875,0.0427178857421875,0.930438984375
-0.2853694921875,-0.0170841552734375,1.080356611328125
-0.3048210546875,0.08511851318359374,1.109848603515625
-0.45484123046875,0.0750698095703125,0.9370746826171875
-0.22579908203125,0.1113431787109375,0.8156659814453124
-0.22823052734375,0.18364482666015625,0.8446664404296875
-0.35515197265625,0.0407571630859375,1.0584833837890626
-0.26032560546875,0.15717507080078125,1.1135351025390625
-0.2600824609375,0.0897752294921875,1.0904330419921875
-0.22677166015625,0.03904153076171875,0.920116787109375
-0.10082279296875,0.0750698095703125,0.8694888671875
-0.08988128906250001,0.06502110595703126,0.881777197265625
-0.25789416015625,-0.013162709960937501,1.00416896484375
-0.268349375,0.055952763671875,1.086255009765625
-0.2824517578125,-0.0009081933593750001,1.182103984375
-0.4079143359375,-0.02517213623046875,1.34037767578125
-0.19078626953125,-0.00850599365234375,1.1587561572265626
-0.0198556640625,0.04198261474609375,1.1835785839843749
-0.37119951171875,0.00668960693359375,1.107882470703125
-0.31770771484375,-0.008751083984375,1.2408422021484375
-0.3505322265625,0.0417375244140625,1.211104443359375
-0.28998923828125,-0.0582593310546875,1.0727378466796875
-0.17425244140625,-0.061690595703125004,0.891116328125
-0.056084199218750005,-0.028358310546875,0.79969115234375
-0.07310431640625001,0.0172284912109375,0.68368931640625
-0.13875333984375,0.013552136230468751,0.7026133447265624
-0.18592337890625,-0.04379900146484375,0.7070371435546875
-0.119544921875,0.07850107421875,0.82918314453125
-0.26251390625,0.00619942626953125,0.97860923828125
-0.25303126953125,0.05276658935546875,1.1840701171874999
-0.33326896484375,0.153988896484375,1.251410166015625
-0.32937865234375,0.07188363525390624,1.1017383056640626
-0.2717533984375,0.03659062744140625,0.965337841796875
-0.21899103515625,0.0897752294921875,0.863098935546875
-0.11735662109375,0.093206494140625,0.9311762841796875
-0.26275705078125,0.033404453125,1.0621698828125
-0.28366748046875,0.0294830078125,1.009084296875
-0.117599765625,0.0682072802734375,0.9950756005859375
-0.30020130859375,-0.04330882080078125,0.9316678173828125
-0.2211793359375,0.07874616455078125,0.9847534033203125
-0.26810623046875,0.04688442138671875,1.100017939453125
-0.27102396484375,0.046149150390625,1.1132893359375
-0.32013916015625,0.0799716162109375,0.9975332666015625
-0.29631099609375,0.05276658935546875,0.8694888671875
-0.2552195703125,-0.00703545166015625,0.9336339501953125
-0.2698082421875,0.0397768017578125,1.0171945947265626
-0.30652306640625,-0.03448556884765625,1.0157199951171876
-0.2133987109375,0.056933125,0.8608870361328125
-0.2542469921875,-0.00850599365234375,0.7758517919921875
-0.23357970703125,0.03757098876953125,0.770690693359375
-0.19127255859375,0.05105095703125,0.870963466796875
-0.290718671875,0.065756376953125,0.8289373779296875
-0.1477496875,0.09418685546875,0.79969115234375
-0.1633109375,-0.02468195556640625,0.73480876953125
-0.30457791015625,0.01698340087890625,0.76626689453125
-0.23163455078125,-0.0180645166015625,0.937811982421875
-0.32281375,-0.0082609033203125,1.0211268603515624
-0.2328502734375,-0.02125069091796875,0.8830060302734375
-0.244034921875,0.0584036669921875,0.8154202148437499
-0.2163164453125,0.01649322021484375,0.9324051171875
-0.33424154296874997,-0.08154291259765625,1.0368559228515626
-0.12124693359375,0.0255615625,1.1867735498046874
-0.2892598046875,0.0642858349609375,1.094119541015625
-0.16355408203125,0.0613447509765625,1.0520934521484375
-0.1881116796875,0.034384814453125,0.961897109375
-0.065080546875,0.04492369873046875,0.961897109375
-0.28804408203125,0.05619785400390625,0.9419900146484375
-0.3913805078125,-0.03252484619140625,0.954032578125
-0.24184662109375,0.04541387939453125,0.9483799462890625
-0.32889236328125,0.0829127001953125,1.0071181640625
-0.3106565234375,-0.013652890625,1.0791277783203126
-0.273212265625,0.0750698095703125,1.1135351025390625
-0.294608984375,-0.07075893798828126,0.953541044921875
-0.24184662109375,0.04541387939453125,1.048406953125
-0.32937865234375,-0.068553125,0.938303515625
-0.1569891796875,-0.05874951171875,0.810013349609375
-0.1978374609375,0.00766996826171875,0.8800568310546875
-0.24184662109375,0.0201695751953125,0.964354775390625
-0.36876806640625,-0.10580685546875,0.978117705078125
-0.207076953125,0.206928408203125,0.9095488232421876
-0.1803310546875,0.0686974609375,0.7711822265625
-0.32743349609375,-0.00360418701171875,0.7539785644531249
-0.14702025390625,-0.03252484619140625,0.845403740234375
-0.37508982421875,-0.05801424072265625,0.9442019140625
-0.282938046875,-0.030073942871093752,1.04742388671875
-0.339347578125,-0.1798241357421875,1.049881552734375
-0.25692158203125,-0.11781628173828125,0.89996392578125
-0.22677166015625,0.04051207275390625,0.86359046875
-0.21607330078125,0.01894412353515625,0.86850580078125
-0.28804408203125,0.09051050048828126,1.048406953125
-0.3427516015625,0.09492212646484376,1.2226554736328126
-0.181789921875,0.1642826904296875,1.1980788134765625
-0.2260422265625,0.1809488330078125,1.147205126953125
-0.25084296875,0.02531647216796875,1.043983154296875
-0.33326896484375,0.13707766357421874,1.0221099267578124
-0.22871681640625,-0.0259074072265625,1.0422627880859374
-0.25838044921875,0.0378160791015625,1.0112961962890625
-0.37460353515625,0.0172284912109375,1.0550426513671876
-0.29242068359375,0.024091020507812498,1.2152824755859375
-0.27783201171875,0.05031568603515625,1.1798920849609376
-0.39600025390625,0.02286556884765625,1.091170341796875
-0.16306779296875,-0.0661022216796875,0.8825144970703125
-0.23941517578125,-0.09477779052734375,0.7153932080078125
-0.08744984375,-0.03889719482421875,0.7670041943359375
-0.1501811328125,-0.0013983740234375002,0.9292101513671875
-0.21947732421875,0.06453092529296875,1.1061621044921874
-0.25886673828125,-0.0371815625,1.1381117626953126
-0.3262177734375,0.15570452880859376,1.113780869140625
-0.21193984375,0.1093824560546875,1.0142453955078126
-0.2805066015625,0.0407571630859375,1.1086197705078125
-0.29582470703125,0.05178622802734375,1.2005364794921876
-0.2853694921875,0.069677822265625,1.203239912109375
-0.38967849609375,0.0020328906249999995,1.06905134765625
-0.3155194140625,-0.09379742919921875,1.06315294921875
-0.2766162890625,-0.01978014892578125,0.86064126953125
-0.10811712890625,-0.063651318359375,0.663044921875
-0.0111024609375,-0.0906112548828125,0.5753062451171875
-0.16185207031249998,0.059874208984374996,0.7409529345703125
-0.27442798828125,0.04590406005859375,0.8771076318359375
-0.159420625,0.06747200927734374,1.0786362451171876
-0.2182616015625,0.067717099609375,1.2555881982421875
-0.366579765625,0.0299731884765625,1.29122435546875
-0.40475345703125,0.17678229736328124,1.1725190869140625
-0.339347578125,-0.1406096826171875,1.0147369287109376
-0.2561921484375,-0.10580685546875,1.2312573046875
-0.34591248046875,-0.10115013916015625,1.2929447216796874
-0.352963671875,-0.11291447509765624,0.989914501953125
-0.12027435546875,0.05815857666015625,0.8127167822265625
-0.26470220703125,0.00619942626953125,0.70924904296875
-0.0030786914062500004,0.1005592041015625,0.8466325732421875
-0.1492085546875,0.13168567626953126,1.217002841796875
-0.34542619140624997,0.12188206298828125,1.3868275634765626
-0.38724705078125,0.148106728515625,1.120662333984375
-0.30798193359375,0.18021356201171876,1.0378389892578126
-0.455084375,0.04884514404296875,1.01399962890625
-0.31284482421875,-0.03301502685546875,0.9842618701171875
-0.2172890234375,0.026541923828125,1.016457294921875
-0.25303126953125,0.014777587890624999,0.959439443359375
-0.1219763671875,-0.18031431640625,0.8097675830078125
-0.29679728515625,-0.0612004150390625,0.9891772021484375
-0.23528171875,-0.1670794384765625,1.2233927734375
-0.442440859375,0.14884199951171875,1.2469863671875
-0.32086859375,0.2917296630859375,1.12410306640625
-0.09498732421875,-0.0876701708984375,0.9559987109375
-0.3349709765625,0.034384814453125,0.8387680419921875
-0.25011353515625,0.0451687890625,0.9434646142578125
-0.20440236328125,-0.05262225341796875,0.91372685546875
-0.26664736328125,-0.1053166748046875,0.831640810546875
-0.08866556640625001,0.008405239257812499,1.1120605029296875
-0.35758341796875,0.0162481298828125,1.2816394580078125
-0.3835998828125,-0.029338671875,1.0245675927734375
-0.19564916015625,-0.068553125,1.204222978515625
-0.3787369921875,0.08903995849609375,1.0766701123046876
-0.32475890625,-0.2102153369140625,0.8294289111328125
-0.14847912109375,0.04639424072265625,0.89406552734375
-0.30871136718750003,0.01575794921875,0.6627991552734375
-0.158448046875,-0.06144550537109375,0.5816961767578125
-0.06435111328125,0.15472416748046874,0.8481071728515625
-0.27248283203125,0.14099910888671874,0.94911724609375
-0.16938955078125,0.18070374267578124,1.0491442529296875
-0.31673513671875,0.0740894482421875,1.150154326171875
-0.29825615234375,-0.00948635498046875,1.273037626953125
-0.4361191015625,0.0701680029296875,1.3130975830078124
-0.26324333984375,-0.08007237060546875,1.1739936865234375
-0.36925435546875,-0.05752406005859375,0.9459222802734375
-0.2488978125,-0.01095689697265625,0.800182685546875
-0.05170759765625,-0.0837487255859375,0.780521357421875
-0.152612578125,-0.144040947265625,0.900455458984375
-0.30360533203125,0.0427178857421875,1.069542880859375
-0.2698082421875,0.06845237060546874,0.977626171875
-0.2912049609375,0.12972495361328126,0.78789435546875
-0.1268392578125,0.14835181884765625,0.7792925244140625
-0.300444453125,0.06257020263671875,0.98254150390625
