ax,ay,az
-0.15528716796875,-0.02713285888671875,0.915201455078125
-0.191515703125,-0.0817880029296875,0.996795966796875
-0.005753281249999999,0.07923634521484375,1.0240760595703124
-0.18446451171875,0.10570610107421875,1.094119541015625
-0.20342978515625,-0.06659240234375,1.215036708984375
-0.2333365625,-0.00213364501953125,1.1680952880859374
-0.28464005859375,0.0152677685546875,1.2319946044921875
-0.2941226953125,0.0574233056640625,1.118696201171875
-0.25862359375,0.0074248779296875,1.056271484375
-0.037848359375,-0.07075893798828126,0.9872110693359375
-0.10130908203125,-0.163648173828125,0.7925639208984375
-0.02131453125,-0.255802138671875,0.7684787939453125
-0.0461152734375,-0.20065681396484375,0.839996875
-0.089395,-0.144040947265625,0.977134638671875
-0.21193984375,-0.01193725830078125,1.1204165673828126
-0.403537734375,0.06551128662109375,1.2187232080078125
-0.21461443359375,0.04492369873046875,1.275003759765625
-0.33861814453125,0.2368294287109375,1.1651460888671874
-0.27029453125,0.19148771728515626,1.0196522607421874
-0.11978806640625,0.13756784423828125,0.929947451171875
-0.265431640625,0.01257177490234375,0.822793212890625
-0.026420566406250002,0.015022678222656249,0.884726396484375
-0.15528716796875,-0.20261753662109375,0.9559987109375
-0.28804408203125,-0.18987283935546875,0.851793671875
-0.18884111328125,-0.0415931884765625,0.7475886328125
-0.2177753125,-0.0533575244140625,0.6510023583984375
-0.1399690625,0.028502646484374998,0.5949675732421875
-0.11735662109375,0.1000690234375,0.6170865673828125
-0.1832487890625,0.1079119140625,0.7650380615234375
-0.16914640625,0.0319339111328125,0.9842618701171875
-0.24476435546875,0.0760501708984375,1.1685868212890624
-0.44365658203125,0.0280124658203125,1.281885224609375
-0.37314466796875,-0.0023787353515625003,1.1621968896484376
-0.1783858984375,-0.00801581298828125,0.9301932177734376
-0.18349193359375,-0.02125069091796875,0.7655295947265625
-0.05511162109375,-0.08938580322265625,0.75250396484375
0.02853009765625,-0.016593974609375,0.8112421826171875
-0.24184662109375,-0.02174087158203125,1.03759322265625
-0.2435486328125,-0.02419177490234375,1.221426640625
-0.14750654296875,-0.038161923828125,1.2472321337890624
-0.115654609375,-0.034240478515625,1.072492080078125
-0.1511537109375,0.0505607763671875,0.9245405859375
-0.21583015625000002,0.034384814453125,0.930930517578125
-0.20026890625,0.07041309326171875,1.062661416015625
-0.30798193359375,0.077520712890625,1.154086591796875
-0.2513292578125,0.03512008544921875,1.354632138671875
-0.24865466796875,-0.0803174609375,1.31973328125
-0.10374052734375,0.04786478271484375,1.0280083251953125
-0.06483740234375,-0.01781942626953125,0.8741584326171875
-0.0752926171875,-0.13546278564453124,0.91765912109375
-0.12805498046875,0.00987578125,1.092153408203125
-0.23698373046875,0.0280124658203125,1.2359268701171875
-0.1910294140625,-0.06242586669921875,1.211104443359375
-0.29679728515625,-0.0415931884765625,0.96877857421875
-0.30992708984375,-0.12418863037109375,0.7694618603515625
-0.253760703125,-0.2763897265625,0.7404614013671875
-0.1851939453125,-0.22737166015625,0.620281533203125
-0.068970859375,-0.037916833496093746,0.6028321044921875
0.0190474609375,-0.0602200537109375,0.7117067089843749
-0.14191421875,0.02090484619140625,0.9203625537109374
-0.2075632421875,0.10472573974609375,1.0936280078125
-0.21801845703125,0.07923634521484375,1.1921804150390625
-0.29776986328125,0.05889384765625,1.2197062744140625
-0.27199654296875,0.09492212646484376,1.0756870458984376
-0.08428896484375001,-0.015368522949218751,1.182595517578125
-0.27248283203125,0.0059543359375,1.2587831640625
-0.35393625,0.0907555908203125,1.2253589062499999
-0.299471875,0.1280093212890625,1.008592763671875
-0.389921640625,0.0020328906249999995,0.84687833984375
-0.12246265625,0.01600303955078125,0.765775361328125
-0.13948277343749999,-0.052867343750000004,0.686146982421875
-0.1073876953125,0.12531332763671876,0.80362341796875
-0.09206958984375,0.011346323242187501,0.8554801708984375
-0.14069849609375001,-0.12516899169921875,0.918150654296875
-0.0855046875,0.0069346972656249995,1.0516019189453125
-0.18470765625,-0.128355166015625,1.1739936865234375
-0.26081189453125,-0.17614778076171875,1.1808751513671876
-0.25351755859375,-0.1729616064453125,0.995812900390625
-0.199296328125,-0.0411030078125,0.8618701025390625
-0.22579908203125,-0.068553125,0.8087845166015625
-0.27418484375,0.05570767333984375,0.981066904296875
-0.23357970703125,0.0868341455078125,1.0663479150390625
-0.072861171875,0.12090170166015625,1.105916337890625
0.03776958984375,0.14001874755859375,1.17522251953125
-0.03760521484375,0.1392834765625,1.374293466796875
-0.19224513671875,0.00987578125,1.406734658203125
-0.197351171875,0.0956573974609375,1.3430811083984375
-0.26907880859375,0.04296297607421875,1.1995534130859375
-0.27515742187500003,0.1074217333984375,1.155069658203125
-0.2347954296875,0.05178622802734375,1.0589749169921876
-0.22336763671875,-0.0239466845703125,0.9407611816406249
-0.257651015625,-0.0371815625,0.82131861328125
-0.2445212109375,-0.09918941650390625,0.6908165478515624
-0.046358417968749996,-0.15016820556640625,0.62273919921875
0.0560054296875,-0.0906112548828125,0.69941837890625
-0.03128345703125,-0.17075579345703126,0.88816712890625
-0.02496169921875,-0.0955130615234375,1.171781787109375
-0.13510617187500001,-0.08619962890625,1.2477236669921874
-0.38773333984375,-0.03301502685546875,1.2531305322265625
-0.30020130859375,0.0574233056640625,1.16145958984375
-0.35393625,-0.051886982421875,0.9714820068359376
-0.13632189453125,-0.04575972412109375,0.8672769677734375
-0.1696326953125,-0.0337502978515625,0.83311541015625
-0.24816837890625,0.010856142578125,0.8205813134765625
-0.15771861328125,-0.10727739746093751,0.7375122021484375
-0.04441326171875,-0.03105430419921875,0.7846993896484376
-0.13680818359375,-0.02125069091796875,0.9336339501953125
-0.06240595703125,-0.11536537841796875,1.0865007763671874
-0.12221951171875,0.09051050048828126,1.164900322265625
-0.21072412109375,0.056933125,1.2334692041015625
-0.32086859375,0.0682072802734375,1.0820769775390624
-0.1715778515625,0.03904153076171875,1.021372626953125
-0.29169125,-0.02958376220703125,1.004660498046875
-0.15139685546875,0.011346323242187501,0.9970417333984375
-0.1667149609375,-0.1023755908203125,0.9097945898437501
-0.1725504296875,0.0003172583007812497,0.962388642578125
-0.1336473046875,0.0387964404296875,0.9306847509765624
-0.29193439453125003,-0.04281864013671875,0.9046334912109375
0.076915859375,0.0093856005859375,1.040050888671875
-0.18349193359375,0.11060790771484375,1.1155012353515625
-0.2406308984375,0.1250682373046875,1.1184504345703126
-0.0927990234375,-0.008751083984375,0.954524111328125
-0.0879361328125,0.034384814453125,0.88226873046875
0.001541054687499998,-0.013652890625,1.005643564453125
-0.191515703125,-0.0259074072265625,1.1051790380859374
-0.25838044921875,0.17261576171875,1.0501273193359375
-0.14604767578125,0.110852998046875,0.9778719384765625
-0.20415921875,0.01845394287109375,1.1533492919921875
-0.2503566796875,-0.0063001806640625,1.2233927734375
-0.1744955859375,0.026541923828125,1.223884306640625
-0.292663828125,0.0172284912109375,1.1690783544921874
-0.1477496875,-0.012427438964843749,1.0992806396484376
-0.3213548828125,-0.1121792041015625,0.9360916162109375
-0.16549923828125,-0.04772044677734375,0.862115869140625
0.02536921875,-0.05458297607421875,0.725961171875
-0.12221951171875,-0.14477621826171874,0.714655908203125
-0.14264365234375,-0.046740085449218746,0.8557259375
-0.2561921484375,-0.0955130615234375,0.7596311962890625
-0.20804953125,0.0358553564453125,0.74857169921875
-0.27588685546875,-0.0200252392578125,0.710232109375
-0.18251935546875,0.024581201171875,0.7601227294921875
-0.0621628125,-0.0690433056640625,0.76233462890625
-0.14021220703125,-0.00850599365234375,0.899472392578125
-0.20197091796875,0.06992291259765625,1.0053977978515625
-0.2902323828125,-0.02419177490234375,1.1882481494140624
-0.28391062499999997,0.07580508056640625,1.3140806494140624
-0.17571130859375,0.05497240234375,1.2251131396484376
-0.125380390625,-0.010711806640625,1.002694365234375
-0.1530988671875,0.111833359375,0.907336923828125
-0.020341953125,-0.077376376953125,0.9326508837890625
-0.18057419921875,-0.03105430419921875,1.1164843017578125
-0.27637314453125,0.06551128662109375,1.2496897998046874
-0.26154132812499997,0.1456558251953125,1.2850801904296876
-0.296554140625,0.1260485986328125,1.101984072265625
-0.23114826171875,0.01575794921875,0.988931435546875
-0.11978806640625,-0.0023787353515625003,0.99630443359375
-0.14945169921875,-0.0739451123046875,0.9363373828125
-0.22142248046875002,-0.032279755859375,0.885709462890625
-0.13145900390625,-0.05164189208984375,0.8458952734375
-0.047087851562500005,-0.04330882080078125,0.860149736328125
-0.2022140625,0.026051743164062502,0.9636174755859375
-0.11492517578125,-0.046249904785156254,1.0840431103515624
-0.19346085937500002,0.0123266845703125,1.0884669091796875
-0.144831953125,0.10031411376953125,1.07888201171875
-0.218747890625,0.00399361328125,1.03366095703125
-0.201241484375,0.0593840283203125,1.088221142578125
-0.21072412109375,0.024091020507812498,1.12213693359375
-0.19224513671875,0.0231106591796875,1.1130435693359375
-0.15917748046875,0.00717978759765625,1.0343982568359376
-0.2824517578125,0.0015427099609375003,0.9559987109375
-0.12270580078125,-0.05164189208984375,0.9424815478515625
-0.1093328515625,0.0289928271484375,1.072000546875
-0.0947441796875,-0.0023787353515625003,1.2383845361328125
-0.27345541015625,-0.03129939453125,1.17522251953125
-0.16355408203125,-0.0043394580078125,1.0309575244140625
-0.23114826171875,-0.037916833496093746,0.81640328125
0.01953375,-0.03889719482421875,0.8471241064453126
-0.11200744140625,-0.1474722119140625,0.8726838330078125
-0.21266927734375,-0.0249270458984375,1.1076367041015625
-0.2124261328125,-0.08203309326171875,1.0196522607421874
-0.2027003515625,-0.030073942871093752,0.94321884765625
-0.2085358203125,0.00227798095703125,0.9179048876953125
-0.1744955859375,0.00276816162109375,0.9616513427734374
-0.1657423828125,0.06109966064453125,0.9921264013671875
-0.15674603515625,0.0211499365234375,0.98647376953125
-0.015235917968750002,0.06011929931640625,0.9815584374999999
-0.13194529296875,-0.0001729223632812504,0.941744248046875
-0.066053125,0.0652661962890625,0.9965502001953125
-0.19078626953125,-0.03522083984375,0.9439561474609375
-0.119544921875,0.11992134033203125,1.04349162109375
-0.13583560546875,0.010856142578125,1.0973145068359376
-0.21169669921875,0.064776015625,1.249444033203125
-0.2722396875,-0.0200252392578125,1.1494170263671875
-0.28196546875,0.04786478271484375,1.019406494140625
-0.1774133203125,0.030463369140625002,0.9282270849609375
-0.1530988671875,-0.0562986083984375,0.8407341748046875
-0.1375376171875,0.0397768017578125,1.02776255859375
-0.21023783203125002,-0.0288484912109375,1.1086197705078125
-0.18592337890625,0.05497240234375,1.1700614208984375
-0.12635296875,0.0593840283203125,1.0560257177734376
-0.15334201171875,-0.00360418701171875,0.9097945898437501
-0.0986344921875,0.015022678222656249,0.9606682763671874
-0.25594900390624997,0.0162481298828125,1.03661015625
-0.20415921875,-0.01438816162109375,1.0093300634765625
-0.22482650390625,-0.006790361328125,1.02088109375
-0.2017277734375,-0.004829638671875,1.027271025390625
-0.234309140625,-0.04870080810546875,0.9798380712890625
-0.1866528125,-0.01732924560546875,1.026287958984375
-0.11930177734375,-0.01928996826171875,0.941744248046875
-0.244034921875,-0.12933552734375,0.87931953125
-0.25108611328125,-0.042328459472656246,0.9646005419921875
-0.09061072265625,-0.0641414990234375,0.901438525390625
-0.25789416015625,-0.040122646484374996,0.9252778857421875
-0.15966376953125,0.00178780029296875,1.124594599609375
-0.22361078125,-0.0055649096679687505,1.08084814453125
-0.22725794921875,0.012816865234374999,1.0324321240234375
-0.201241484375,0.04002189208984375,1.0565172509765626
-0.1521262890625,0.0255615625,1.044966220703125
-0.3378887109375,-0.00581,1.045949287109375
-0.18397822265625,0.07041309326171875,1.15949345703125
-0.24573693359375,-0.0190448779296875,1.0191607275390624
-0.26664736328125,0.0922261328125,0.9953213671875
-0.13437673828125,0.0255615625,0.8984893261718749
-0.230418828125,-0.0151234326171875,0.8957858935546875
-0.1608794921875,0.0789912548828125,0.9940925341796875
-0.25497642578125,-0.09624833251953124,0.9419900146484375
-0.3111428125,0.00276816162109375,1.0053977978515625
-0.16015005859375,0.05472731201171875,0.96288017578125
-0.224583359375,-0.1033559521484375,0.822793212890625
-0.2707808203125,-0.006790361328125,0.93928658203125
-0.19905318359375002,0.02972809814453125,0.9036504248046875
-0.190543125,-0.038161923828125,0.83704767578125
-0.30992708984375,-0.011201987304687501,0.8353273095703125
-0.2036729296875,0.04688442138671875,0.8982435595703124
-0.15285572265625,-0.00605509033203125,0.848352939453125
-0.27613,0.04100225341796875,0.8567090039062499
-0.1278118359375,0.12163697265625,0.967303974609375
-0.2192341796875,-0.0641414990234375,0.987948369140625
-0.17327986328125,0.10913736572265625,1.110831669921875
-0.174981875,0.0691876416015625,1.06020375
-0.31770771484375,-0.03203466552734375,1.0663479150390625
-0.1706052734375,0.10129447509765625,1.052830751953125
-0.20488865234375,-0.0043394580078125,0.9528037451171875
-0.30627992187499997,0.0044837939453125,1.0260421923828125
-0.18349193359375,-0.03252484619140625,1.0609410498046874
-0.19175884765625,-0.034240478515625,0.9818042041015624
-0.16720125,0.03904153076171875,1.01989802734375
-0.10495625,-0.046740085449218746,1.0737209130859375
-0.28634207031250003,0.02874773681640625,1.162934189453125
-0.2474389453125,0.0672269189453125,1.1808751513671876
-0.21510072265625,0.10129447509765625,1.1268064990234374
-0.30871136718750003,0.04247279541015625,1.102967138671875
-0.2255559375,-0.01438816162109375,1.050864619140625
-0.24281919921875,-0.0259074072265625,0.9272440185546875
-0.175954453125,-0.01095689697265625,0.851302138671875
-0.146777109375,-0.09330724853515625,0.7473428662109375
-0.220693046875,-0.0406128271484375,0.7537327978515624
-0.19905318359375002,-0.0229663232421875,0.82918314453125
-0.18349193359375,0.05668803466796875,0.8441749072265625
-0.1472633984375,0.0525214990234375,0.9056165576171875
-0.15577345703125,0.0544822216796875,1.0516019189453125
-0.15164,-0.014633251953124999,1.06118681640625
-0.23503857421875,-0.050661530761718754,1.00613509765625
-0.201241484375,-0.0337502978515625,0.9434646142578125
-0.2095083984375,-0.0366913818359375,0.922082919921875
-0.17911533203125,-0.01781942626953125,0.9975332666015625
-0.2698082421875,0.06281529296875,1.1130435693359375
-0.2805066015625,0.05227640869140625,1.129509931640625
-0.24306234375,0.03928662109375,1.041033955078125
-0.13340416015625,0.07482471923828125,1.05332228515625
-0.22190876953125,0.09737302978515625,1.0501273193359375
-0.2240970703125,0.010611052246093749,1.0732293798828125
-0.16793068359375,0.021640117187500002,1.0707717138671875
-0.37217208984375,0.02531647216796875,1.0535680517578125
-0.1939471484375,-0.046740085449218746,1.0348897900390626
-0.21315556640625,-0.1082577587890625,0.9100403564453124
-0.20002576171875,0.02360083984375,0.86359046875
-0.1944334375,-0.13840386962890625,0.810996416015625
-0.2017277734375,-0.0582593310546875,0.8540055712890625
-0.26275705078125,0.01551285888671875,0.871455
-0.201241484375,-0.0327699365234375,0.951574912109375
-0.19710802734375,0.036345537109375,0.9609140429687499
-0.20415921875,-0.03203466552734375,0.941744248046875
-0.15674603515625,0.0584036669921875,1.0216183935546874
-0.2114535546875,-0.0504164404296875,1.000728232421875
-0.12513724609375,0.1093824560546875,1.127052265625
-0.201241484375,-0.0425735498046875,1.086255009765625
-0.3033621875,0.06109966064453125,1.1100943701171875
-0.11249373046875,0.108892275390625,1.136391396484375
-0.34421046875,-0.0670825830078125,1.08379734375
-0.18543708984375,0.07972652587890625,1.224867373046875
-0.13413359375,0.0020328906249999995,1.166374921875
-0.2620276171875,-0.03129939453125,1.117713134765625
-0.252788125,0.11305881103515625,1.1641630224609374
-0.17182099609375,0.03462990478515625,1.090187275390625
-0.34542619140624997,0.03144373046875,1.1073909375
-0.1735230078125,0.146146005859375,1.2398591357421875
-0.2488978125,-0.05703387939453125,1.0565172509765626
-0.2153438671875,0.0093856005859375,1.0147369287109376
-0.20488865234375,-0.07026875732421875,0.880794130859375
-0.1754681640625,-0.044534272460937496,0.9110234228515625
-0.34104958984375,-0.09036616455078125,0.976151572265625
-0.32402947265625,0.0476196923828125,1.02383029296875
-0.31308796875,0.07433453857421875,0.810996416015625
-0.1151683203125,0.00865032958984375,0.727435771484375
-0.17230728515625,0.0584036669921875,0.7370206689453125
-0.15091056640625,0.04100225341796875,0.80853875
-0.1900568359375,-0.0455146337890625,0.879811064453125
-0.30992708984375,-0.06242586669921875,0.9481341796875
-0.20440236328125,-0.036201201171875,0.9714820068359376
-0.190543125,-0.068553125,1.0132623291015626
-0.159420625,-0.0013983740234375002,0.9795923046875
-0.24938410156250002,0.0015427099609375003,0.9095488232421876
-0.207076953125,0.13560712158203125,1.032677890625
-0.20537494140625,0.11845079833984375,1.0565172509765626
-0.2805066015625,0.049090234375,1.08084814453125
-0.152612578125,0.08707923583984375,1.113780869140625
-0.22968939453125,0.0221302978515625,0.96877857421875
-0.1433730859375,0.0299731884765625,1.0186691943359376
-0.205131796875,-0.025662316894531252,1.0284998583984375
-0.23649744140625,0.05570767333984375,1.030220224609375
-0.25011353515625,0.05276658935546875,0.9297016845703125
-0.1399690625,-0.046249904785156254,0.8412257080078125
-0.16306779296875,0.03021827880859375,0.841471474609375
-0.11249373046875,0.0191892138671875,0.9129895556640625
-0.23163455078125,0.01747358154296875,0.942727314453125
-0.170118984375,0.14394019287109375,0.9783634716796875
-0.19224513671875,0.07727562255859374,0.9874568359375
-0.1842213671875,0.10913736572265625,1.055779951171875
-0.13437673828125,0.04737460205078125,1.117713134765625
-0.31965287109375,0.0397768017578125,1.1017383056640626
-0.23552486328125,0.1314405859375,1.1228742333984374
-0.2299325390625,0.00987578125,1.0132623291015626
-0.2396583203125,0.0574233056640625,1.0299744580078125
-0.1988100390625,0.08119706787109375,1.04349162109375
-0.07188859375000001,0.00472888427734375,1.064627548828125
-0.30555048828125,0.0280124658203125,1.0697886474609375
-0.18884111328125,0.07384435791015626,1.0820769775390624
-0.1988100390625,-0.071494208984375,0.9559987109375
-0.29922873046875,0.0103659619140625,1.0122792626953125
-0.12756869140625,0.04786478271484375,1.08478041015625
-0.2484115234375,-0.09379742919921875,0.9768888720703125
-0.294608984375,0.08854977783203125,0.998762099609375
-0.1569891796875,-0.095022880859375,0.9284728515625
-0.1968648828125,-0.13203152099609375,0.8633447021484375
-0.24573693359375,-0.1092381201171875,0.904387724609375
-0.092312734375,-0.10850284912109374,0.8943112939453125
-0.1735230078125,-0.0229663232421875,0.8891501953125
-0.22093619140625,0.014777587890624999,0.930930517578125
-0.189570546875,0.0221302978515625,0.949608779296875
-0.234309140625,0.016738310546875,0.9402696484374999
-0.16355408203125,0.13560712158203125,1.006626630859375
-0.17619759765625,0.0152677685546875,0.9636174755859375
-0.21121041015625,0.1314405859375,0.9783634716796875
-0.140941640625,0.138303115234375,0.9552614111328125
-0.27102396484375,0.08266760986328126,0.92552365234375
-0.21801845703125,0.17629211669921874,1.0368559228515626
-0.1735230078125,0.1133039013671875,0.9980247998046875
-0.23941517578125,0.11550971435546875,1.03366095703125
-0.137051328125,0.12139188232421876,1.0766701123046876
-0.29047552734375,0.1054610107421875,0.9886856689453125
-0.19564916015625,0.17040994873046875,1.0211268603515624
-0.23698373046875,0.08266760986328126,0.8908705615234375
-0.199296328125,0.07874616455078125,0.927981318359375
-0.18008791015625,0.04002189208984375,0.954524111328125
-0.20002576171875,0.0289928271484375,0.993846767578125
-0.1365650390625,0.04296297607421875,1.1499085595703125
-0.265431640625,0.00668960693359375,1.1784174853515625
-0.24622322265625,0.04198261474609375,1.1130435693359375
-0.22336763671875,0.0348749951171875,0.9857364697265625
-0.29290697265625,0.0280124658203125,0.9621428759765625
-0.24768208984375,-0.010711806640625,0.9341254833984375
-0.292663828125,-0.05213207275390625,0.8731753662109375
-0.14750654296875,-0.0406128271484375,0.806081083984375
-0.17619759765625,-0.00360418701171875,0.7365291357421875
-0.10179537109375,-0.05899460205078125,0.7593854296875
-0.156502890625,-0.02125069091796875,0.9513291455078126
-0.21753216796875,-0.048455717773437504,1.1051790380859374
-0.31333111328125,0.016738310546875,1.161951123046875
-0.2600824609375,0.05570767333984375,1.1553154248046875
-0.27296912109375,-0.02321141357421875,0.9931094677734374
-0.24087404296875,0.05913893798828125,1.01399962890625
-0.203186640625,-0.049926259765625,0.9709904736328125
-0.224583359375,-0.0808076416015625,0.9940925341796875
-0.20099833984375,-0.011201987304687501,0.913235322265625
-0.1667149609375,-0.05899460205078125,0.8643277685546875
-0.20488865234375,-0.012427438964843749,0.8785822314453124
-0.17717017578125,-0.05458297607421875,0.8869382958984375
-0.2231244921875,-0.0055649096679687505,0.867522734375
-0.20245720703125,0.0907555908203125,0.9631259423828125
-0.17862904296875,-0.01732924560546875,0.9641090087890625
-0.25594900390624997,0.0750698095703125,0.989914501953125
-0.154557734375,0.07776580322265625,1.074458212890625
-0.213885,0.03536517578125,0.996795966796875
-0.2630001953125,0.04590406005859375,0.9424815478515625
-0.25983931640625,0.06796218994140625,0.9537868115234375
-0.24427806640625,0.07727562255859374,0.9341254833984375
-0.2377131640625,0.03315936279296875,0.9874568359375
-0.212912421875,0.0525214990234375,1.0019570654296874
-0.12902755859375,0.05668803466796875,1.013508095703125
-0.2172890234375,0.11599989501953126,0.9763973388671875
-0.20294349609375,0.07065818359375,1.010558896484375
-0.20488865234375,0.10962754638671875,1.02972869140625
-0.2630001953125,0.0255615625,1.0289913916015625
-0.1511537109375,0.1495772705078125,1.0678225146484375
-0.31746457031249997,0.04492369873046875,0.9542783447265625
-0.22482650390625,0.07065818359375,1.011541962890625
-0.18057419921875,-0.07566074462890625,0.886692529296875
-0.19953947265625,0.01992448486328125,0.9282270849609375
-0.21899103515625,-0.00213364501953125,0.9685328076171875
-0.21218298828125,-0.04306373046875,1.066593681640625
-0.21169669921875,-0.0415931884765625,1.1445016943359374
-0.2542469921875,-0.08154291259765625,1.055779951171875
-0.14191421875,0.05521749267578125,1.044966220703125
-0.21461443359375,-0.07075893798828126,0.9994993994140625
-0.18251935546875,-0.0567887890625,1.0638902490234374
-0.2007551953125,0.0037485229492187503,1.115747001953125
-0.267376796875,-0.110708662109375,1.127543798828125
-0.2386857421875,-0.03595611083984375,1.0688055810546875
-0.199296328125,-0.052867343750000004,0.970253173828125
-0.27005138671875,-0.06389640869140625,0.953541044921875
-0.27734572265625,0.02237538818359375,0.9719735400390626
-0.2231244921875,-0.0641414990234375,0.946659580078125
-0.16063634765625,0.1054610107421875,1.0019570654296874
-0.251815546875,0.0843832421875,1.135408330078125
-0.20877896484375,0.0976181201171875,1.1690783544921874
-0.257651015625,0.0133070458984375,1.063644482421875
-0.31430369140625003,0.02678701416015625,1.1140266357421875
-0.18932740234375,0.11158826904296874,1.1422897949218749
-0.27929087890625,-0.06928839599609375,0.9513291455078126
-0.16744439453124998,0.04541387939453125,0.8844806298828125
-0.17473873046875,-0.1337471533203125,0.7517666650390625
-0.19613544921875,-0.092081796875,0.8102591162109375
-0.12562353515625,-0.0063001806640625,0.8461410400390625
-0.21193984375,-0.06977857666015624,0.903404658203125
-0.24695265625,0.03512008544921875,1.026287958984375
-0.27151025390625,0.06281529296875,1.1120605029296875
-0.27053767578125,0.1103628173828125,1.124594599609375
-0.2800203125,0.12237224365234375,1.0110504296875
-0.16841697265625,0.138303115234375,0.9306847509765624
-0.2172890234375,0.01649322021484375,0.8572005371093749
-0.18203306640625,-0.05409279541015625,0.92945591796875
-0.18227621093750002,0.02580665283203125,0.954524111328125
-0.15431458984375,-0.12149263671875,1.0267794921875
-0.2085358203125,-0.0097314453125,1.0535680517578125
-0.19832375,0.127519140625,1.0543053515625
-0.22774423828125,0.03806116943359375,1.0339067236328126
-0.189570546875,0.05472731201171875,1.1504000927734375
-0.2566784375,0.1358522119140625,1.1966042138671875
-0.26372962890625,0.0103659619140625,1.1454847607421874
-0.2099946875,0.0329142724609375,1.0594664501953126
-0.2095083984375,0.22285927978515624,0.974185439453125
-0.11784291015625001,-0.0827683642578125,0.9444476806640625
-0.19832375,0.04002189208984375,0.926015185546875
-0.1317021484375,-0.012427438964843749,0.7615973291015625
0.07035095703125,-0.0915916162109375,0.7994453857421875
0.067190078125,-0.1474722119140625,0.9402696484374999
0.0005684765624999998,-0.35849498779296873,1.21257904296875
-0.25059982421875,-0.4633936499023438,1.1091113037109375
-0.27929087890625,-0.35310300048828125,0.6573922900390625
-0.2980130078125,-0.259723583984375,0.5060000634765625
-0.35515197265625,-0.24232217041015625,0.3909812939453125
-0.22579908203125,-0.03987755615234375,0.5482719189453125
-0.0855046875,0.14933218017578126,1.0427543212890624
0.0161297265625,0.150067451171875,1.189476982421875
0.039957890625,0.1113431787109375,1.4089465576171876
-0.08039865234375,-0.0063001806640625,1.5200330615234374
-0.31770771484375,0.12384278564453124,1.1759598193359375
-0.44657431640625,0.10619628173828125,1.051847685546875
-0.54529099609375,0.16305723876953124,1.1612138232421876
-0.45095091796875,0.1956542529296875,1.0653648486328124
-0.2163164453125,0.31697396728515626,1.2231470068359376
-0.34348103515625,0.371629111328125,1.272054560546875
-0.23990146484375,0.20619313720703125,1.1803836181640626
-0.26275705078125,-0.0013983740234375002,1.0658563818359374
-0.242089765625,0.09639266845703125,0.9193794873046874
-0.166228671875,0.02580665283203125,0.90389619140625
-0.1424005078125,-0.01487834228515625,0.8505648388671875
-0.24865466796875,0.0054641552734375,0.8734211328125
-0.057056777343750004,-0.05752406005859375,0.98254150390625
-0.21972046875,-0.1278649853515625,1.2020110791015626
-0.26227076171875,-0.220509130859375,1.335953876953125
-0.37144265625,-0.04281864013671875,1.20471451171875
-0.49082662109375,0.0294830078125,1.0068723974609375
-0.54067125,0.00865032958984375,0.891116328125
-0.34348103515625,-0.08423890625,0.8540055712890625
-0.29096181640625,-0.11046357177734376,0.79772501953125
-0.31187224609374997,-0.1925688330078125,0.8181236474609375
0.00227048828125,-0.1278649853515625,0.8151744482421874
0.035824433593749996,-0.15703073486328126,0.933879716796875
-0.057056777343750004,-0.08987598388671875,1.1558069580078125
-0.2698082421875,-0.010711806640625,1.159001923828125
-0.12951384765625001,7.216796875000007e-05,0.999745166015625
-0.20197091796875,0.07433453857421875,1.1007552392578126
-0.2177753125,-0.03252484619140625,1.0503730859375
-0.32694720703125,0.0584036669921875,0.9835245703125
-0.29169125,-0.0219859619140625,0.9324051171875
-0.37654869140625,-0.028358310546875,0.91765912109375
-0.31041337890625,0.0956573974609375,1.0078554638671875
-0.45921783203125,0.032424091796875,0.9206083203125
-0.12562353515625,0.04296297607421875,0.7851909228515626
-0.1268392578125,0.05570767333984375,0.6256883984375
-0.12440781249999999,-0.030319033203124998,0.5467973193359374
0.02220833984375,-0.12075736572265625,0.483635302734375
0.049197382812499996,-0.1259042626953125,0.7222746728515625
0.16420474609375,-0.08963089355468751,1.1012467724609376
0.2826161328125,-0.189137568359375,1.5581268847656249
0.04555021484375,-0.30996710205078126,1.89875939453125
-0.4983641015625,0.06404074462890624,1.266156162109375
-0.520247109375,0.06624655761718751,1.1386032958984376
-0.04781728515625,-0.4053072412109375,1.4197602880859375
-0.26227076171875,0.059874208984374996,1.92825138671875
-0.59708078125,0.11649007568359375,1.2823767578125
-0.3417790234375,0.10129447509765625,0.739232568359375
-0.284883203125,0.044188427734375,0.25802156249999997
-0.16306779296875,0.0231106591796875,0.0247890576171875
0.06937837890625,-0.14085477294921875,0.331260009765625
0.07521384765625,-0.19477464599609376,0.603569404296875
0.13113708984375,-0.1587463671875,0.871455
-0.30530734375,-0.083258544921875,1.59990720703125
-0.4954463671875,0.18903681396484376,1.4669474755859375
-0.586382421875,0.055462583007812497,1.383141064453125
-0.12854126953125,0.1113431787109375,1.4212348876953125
-0.183735078125,0.29785692138671876,1.0171945947265626
-0.1628246484375,0.25913264892578125,0.6667314208984375
-0.1871391015625,0.1868310009765625,0.64240052734375
-0.16306779296875,0.169674677734375,1.033169423828125
-0.3952708203125,-0.02468195556640625,1.3135891162109374
-0.12902755859375,-0.1347275146484375,1.5318298583984375
0.07910416015624999,-0.063651318359375,1.337920009765625
-0.13000013671875,-0.05458297607421875,1.06511908203125
-0.17279357421875,-0.1033559521484375,0.8984893261718749
-0.3466419140625,-0.02419177490234375,0.756927763671875
-0.21583015625000002,0.09982393310546875,0.83704767578125
-0.21899103515625,0.026051743164062502,0.8987350927734374
-0.23747001953125,0.04933532470703125,1.1329506640625
-0.31819400390625,-0.07051384765625,1.1469593603515624
-0.27807515625,0.03806116943359375,1.158510390625
-0.3106565234375,0.01404231689453125,0.947642646484375
-0.29922873046875,0.0780108935546875,0.9154472216796875
-0.2240970703125,0.03315936279296875,0.8795652978515625
-0.14604767578125,0.0231106591796875,0.8874298291015625
-0.25862359375,-0.05605351806640625,0.7925639208984375
-0.0937716015625,-0.0053198193359375,0.752012431640625
-0.170118984375,-0.06659240234375,0.7045794775390625
-0.08355953125,-0.03742665283203125,0.6996641455078125
-0.14847912109375,0.0329142724609375,0.84884447265625
-0.2980130078125,-0.057278969726562504,0.9874568359375
-0.33813185546875,0.05423713134765625,1.043983154296875
-0.28026345703125,0.0613447509765625,1.0346440234375
-0.33035123046875,0.11379408203125,1.0130165625
-0.263486484375,0.09198104248046875,0.9301932177734376
-0.19662173828125,0.0843832421875,0.9442019140625
-0.26324333984375,-0.02076051025390625,0.9641090087890625
-0.18154677734375,-0.01193725830078125,1.01596576171875
-0.25011353515625,-0.0317895751953125,0.9872110693359375
-0.25400384765625,-0.08399381591796876,0.9473968798828125
-0.16987583984375,0.00987578125,0.8348357763671875
-0.1190586328125,0.0338946337890625,0.87440419921875
-0.17814275390625,0.004973974609375,0.8559717041015625
-0.12124693359375,-0.08742508056640624,0.9007012255859375
-0.2892598046875,-0.04772044677734375,0.9292101513671875
-0.127325546875,-0.04281864013671875,0.9604225097656249
-0.29436583984375,-0.0161037939453125,0.9188879541015624
-0.253760703125,0.01894412353515625,1.0395593554687501
-0.2746711328125,0.026051743164062502,0.9874568359375
-0.16112263671875,0.024091020507812498,0.9501003125
-0.1842213671875,0.038306259765625,0.98942296875
-0.17911533203125,-0.08987598388671875,1.0267794921875
-0.13534931640625,0.0319339111328125,1.0201437939453124
-0.1657423828125,-0.05262225341796875,0.8643277685546875
-0.19370400390625,0.05080586669921875,0.8576920703124999
-0.1608794921875,0.00399361328125,0.8603955029296875
-0.23892888671875,-0.03889719482421875,0.8014115185546875
-0.19710802734375,0.05472731201171875,0.8161575146484374
-0.10106593750000001,-0.015368522949218751,0.8498275390625
-0.29752671875000003,0.024581201171875,0.8967689599609375
-0.1477496875,-0.014633251953124999,1.0388220556640624
-0.23114826171875,0.0020328906249999995,1.0781447119140626
-0.18592337890625,0.0378160791015625,1.0855177099609374
-0.2450075,0.08462833251953125,1.011541962890625
-0.1968648828125,0.0456589697265625,1.0339067236328126
-0.22774423828125,0.1035002880859375,1.046932353515625
-0.1735230078125,0.0691876416015625,1.031203291015625
-0.18689595703125,0.122617333984375,0.984016103515625
-0.19248828125,0.03217900146484375,0.9464138134765625
-0.15966376953125,0.0995788427734375,0.9191337207031249
-0.2396583203125,0.030708459472656248,0.954032578125
-0.22871681640625,0.05129604736328125,1.043000087890625
-0.242089765625,0.01698340087890625,1.0049062646484375
-0.19564916015625,0.04320806640625,1.0240760595703124
-0.22823052734375,0.03757098876953125,1.0543053515625
-0.14410251953125,0.02090484619140625,1.1454847607421874
-0.36244630859375,0.02286556884765625,1.0909245751953125
-0.13413359375,0.0451687890625,1.1454847607421874
-0.20683380859375,-0.00850599365234375,1.08379734375
-0.282938046875,0.14197947021484375,0.958456376953125
-0.28172232421875,0.08462833251953125,0.8495817724609375
-0.1754681640625,-0.05458297607421875,0.7928096875
-0.212912421875,-0.00409436767578125,0.782487490234375
-0.0947441796875,0.05497240234375,0.8658023681640625
-0.1560166015625,-0.01830960693359375,0.9680412744140625
-0.25886673828125,-0.0710040283203125,1.1361456298828125
-0.298499296875,-0.0435539111328125,1.2708257275390624
-0.31746457031249997,-0.00360418701171875,1.22830810546875
-0.3694975,0.05227640869140625,1.1213996337890624
-0.2484115234375,0.07384435791015626,0.9970417333984375
-0.22579908203125,0.04051207275390625,0.8785822314453124
-0.26032560546875,-0.02076051025390625,0.9547698779296875
-0.21583015625000002,-0.0602200537109375,1.0009739990234374
-0.25546271484375,0.008405239257812499,0.9144641552734375
-0.30627992187499997,0.02139502685546875,0.90193005859375
-0.19516287109375,-0.024436865234375,0.9016842919921875
-0.18057419921875,-0.01095689697265625,0.85474287109375
-0.14969484375,-0.016593974609375,0.8419630078125
-0.175954453125,-0.02321141357421875,0.78002982421875
-0.1949197265625,-0.01634888427734375,0.82328474609375
-0.28220861328125,-0.02664267822265625,0.9537868115234375
-0.265431640625,-0.02468195556640625,1.0739666796875
-0.174981875,-0.065612041015625,1.0142453955078126
-0.17036212890625,0.03512008544921875,0.8952943603515625
-0.1832487890625,0.05276658935546875,0.8712092333984375
-0.1346198828125,0.08756941650390625,0.9385492822265625
-0.253760703125,0.0686974609375,1.043000087890625
-0.27880458984375,0.14099910888671874,1.1336879638671875
-0.244034921875,0.075559990234375,1.1887396826171874
-0.2007551953125,0.03315936279296875,1.0638902490234374
-0.164283515625,0.02041466552734375,0.8712092333984375
-0.13145900390625,-0.05090662109375,0.7928096875
-0.162338359375,0.0093856005859375,0.82918314453125
-0.20829267578125,0.06551128662109375,0.9188879541015624
-0.18859796875,-0.01095689697265625,1.0319405908203125
-0.21558701171875,0.030708459472656248,1.01596576171875
-0.2153438671875,0.081442158203125,1.0432458544921874
-0.1424005078125,0.06404074462890624,0.9950756005859375
-0.2561921484375,0.14418528320312501,1.0584833837890626
-0.28804408203125,0.030463369140625002,1.1705529541015625
-0.22288134765625,0.10987263671875,1.1683410546875
-0.18932740234375,0.05080586669921875,1.110831669921875
-0.294608984375,0.0387964404296875,1.0196522607421874
-0.282938046875,0.032424091796875,0.9965502001953125
-0.16938955078125,-0.0974737841796875,0.91077765625
-0.15771861328125,-0.06389640869140625,0.873912666015625
-0.07893978515625,-0.12026718505859375,0.9262609521484375
-0.13486302734375,-0.0602200537109375,1.0889584423828125
-0.2153438671875,0.033404453125,1.2354353369140625
-0.41423609375,0.0010525292968750002,1.1735021533203125
-0.27515742187500003,0.07188363525390624,1.0289913916015625
-0.195406015625,0.1495772705078125,0.969270107421875
-0.25643529296875,-0.022476142578125,1.0299744580078125
-0.27783201171875,0.0182088525390625,1.1722733203125
-0.25011353515625,-0.02149578125,1.1479424267578124
-0.18640966796875,0.04786478271484375,1.0073639306640625
-0.23649744140625,-0.07468038330078125,0.9007012255859375
-0.0850183984375,0.0142874072265625,0.973202373046875
-0.22579908203125,-0.11977700439453125,1.0240760595703124
-0.31308796875,0.00816014892578125,1.117713134765625
-0.1355924609375,0.0515411376953125,1.0543053515625
-0.27491427734375,-0.17516741943359376,0.971236240234375
-0.236254296875,0.0270321044921875,1.1297556982421875
-0.19856689453125,-0.044044091796875,1.1302472314453125
-0.27151025390625,-0.114630107421875,1.07101748046875
-0.19905318359375002,-0.050661530761718754,1.0874838427734375
-0.3359435546875,-0.0298288525390625,1.0093300634765625
-0.18397822265625,-0.03742665283203125,1.01596576171875
-0.30798193359375,-0.02713285888671875,0.94321884765625
-0.09061072265625,0.04639424072265625,0.988931435546875
-0.269321953125,-0.0376717431640625,0.8957858935546875
-0.2255559375,-0.03056412353515625,0.9002096923828125
-0.1287844140625,0.057913486328125,0.9127437890625
-0.30166017578125,0.0407571630859375,0.8746499658203125
-0.1511537109375,0.03144373046875,0.9454307470703125
-0.201241484375,0.07433453857421875,0.918150654296875
-0.2386857421875,0.09810830078125,1.0147369287109376
-0.23357970703125,0.03462990478515625,1.0464408203125
-0.25838044921875,0.11992134033203125,1.130492998046875
-0.20804953125,0.053992041015625,1.0363643896484376
-0.27807515625,0.06281529296875,0.9675497412109375
-0.23698373046875,0.110852998046875,0.9877026025390625
-0.22336763671875,-0.01169216796875,0.929947451171875
-0.21266927734375,0.05619785400390625,0.9631259423828125
-0.14361623046875,-0.01291761962890625,0.9056165576171875
-0.2878009375,0.046149150390625,0.8576920703124999
-0.14264365234375,-0.01879978759765625,0.8933282275390625
-0.19248828125,0.00276816162109375,0.8397511083984375
-0.17036212890625,0.05717821533203125,1.0343982568359376
-0.2707808203125,0.03266918212890625,1.13983212890625
-0.22579908203125,-0.04526954345703125,1.0471781201171875
-0.14215736328125,0.0765403515625,1.0565172509765626
-0.2202067578125,-0.01487834228515625,1.025304892578125
-0.33861814453125,0.020659755859375,1.0071181640625
-0.26372962890625,0.05521749267578125,0.96877857421875
-0.1180860546875,-0.0175743359375,0.7896147216796875
-0.127325546875,0.0397768017578125,0.830657744140625
-0.14799283203125,0.01551285888671875,0.992863701171875
-0.25351755859375,0.05472731201171875,1.0425085546875
-0.18932740234375,0.06698182861328125,0.9815584374999999
-0.20683380859375,0.013552136230468751,0.89406552734375
-0.17327986328125,0.1549692578125,1.0206353271484374
-0.154557734375,0.019434304199218752,1.0486527197265625
-0.32475890625,0.01575794921875,1.0614325830078124
-0.17182099609375,0.0887948681640625,1.024321826171875
-0.1978374609375,-0.03840701416015625,0.8038691845703125
-0.15723232421875,0.00668960693359375,0.8436833740234375
-0.1297569921875,-0.0033590966796874996,0.8554801708984375
-0.14750654296875,-0.02909358154296875,0.8790737646484375
-0.1910294140625,0.07825598388671876,1.0275167919921875
-0.17473873046875,0.055462583007812497,1.1213996337890624
-0.2454937890625,0.05031568603515625,1.072000546875
-0.1686601171875,0.15913579345703124,1.01006736328125
-0.2620276171875,0.04884514404296875,0.9473968798828125
-0.15382830078125,0.09688284912109375,1.0024485986328124
-0.28561263671875,0.04320806640625,0.9616513427734374
-0.1385101953125,0.11354899169921875,1.0481611865234375
-0.0869635546875,0.1035002880859375,0.9999909326171875
-0.284883203125,-0.02149578125,1.099034873046875
-0.21121041015625,0.12727405029296876,1.1489254931640625
-0.31673513671875,0.1035002880859375,1.0452119873046875
-0.25254498046875,0.04394333740234375,1.0661021484375
-0.23892888671875,0.032424091796875,1.0589749169921876
-0.1696326953125,0.055462583007812497,1.0427543212890624
-0.2211793359375,-0.11095375244140625,0.845403740234375
-0.08307324218750001,-0.014633251953124999,1.002694365234375
-0.15625974609374998,0.0280124658203125,1.16735798828125
-0.46797103515625,0.032424091796875,1.168832587890625
-0.2853694921875,0.042227705078125,1.0810939111328124
-0.14410251953125,-0.063651318359375,0.910286123046875
-0.299471875,-0.032279755859375,0.7556989306640625
-0.15236943359375,-0.042083369140625,0.6878673486328125
-0.0276362890625,-0.123453359375,0.6972064794921875
-0.040279804687500004,0.036345537109375,0.8333611767578125
-0.14653396484375,-0.06830803466796875,1.0289913916015625
-0.2464663671875,0.06698182861328125,1.262223896484375
-0.41496552734375003,0.10202974609375,1.3219451806640625
-0.2698082421875,0.17335103271484376,1.165883388671875
-0.22579908203125,0.165753232421875,1.0255506591796875
-0.29363640625,0.04320806640625,1.1130435693359375
-0.23528171875,0.16697868408203126,1.1845616503906249
-0.2299325390625,0.04296297607421875,1.07691587890625
-0.16258150390625,0.026051743164062502,0.9591936767578125
-0.17036212890625,-0.0011532836914062497,0.9911433349609375
-0.2007551953125,0.06624655761718751,1.02579642578125
-0.29144810546875,0.01649322021484375,0.9301932177734376
-0.14702025390625,0.028502646484374998,0.9616513427734374
-0.26227076171875,0.00521906494140625,1.0476696533203125
-0.205131796875,0.05227640869140625,1.2167570751953125
-0.27272597656249997,-0.0170841552734375,1.043000087890625
-0.25789416015625,-0.09575815185546875,0.9144641552734375
-0.1647698046875,0.0564429443359375,1.002694365234375
-0.253760703125,-0.05654369873046875,0.971236240234375
-0.2800203125,0.06355056396484375,0.928964384765625
-0.18057419921875,0.13364639892578126,0.905370791015625
-0.23212083984375,0.0015427099609375003,0.809030283203125
-0.13340416015625,-0.0219859619140625,0.8422087744140625
-0.08355953125,-0.0028689160156250004,0.8790737646484375
-0.1141957421875,-0.0009081933593750001,1.006626630859375
-0.23114826171875,0.02335574951171875,1.093136474609375
-0.3194097265625,0.02090484619140625,1.110831669921875
-0.2347954296875,0.12163697265625,1.02579642578125
-0.1968648828125,0.063795654296875,0.9488714794921875
-0.14410251953125,0.089285048828125,1.0545511181640626
-0.1939471484375,-0.0464949951171875,1.119679267578125
-0.26713365234374997,0.09394176513671874,1.2147909423828125
-0.17571130859375,0.0613447509765625,1.1386032958984376
-0.3116291015625,0.13021513427734374,0.9724650732421874
-0.21121041015625,0.0780108935546875,0.996795966796875
-0.21850474609375,0.06943273193359376,1.011541962890625
-0.209022109375,-0.027868129882812502,1.049881552734375
-0.19248828125,-0.0651218603515625,0.847369873046875
-0.11541146484375,-0.02909358154296875,0.8176321142578125
-0.07942607421875,-0.08595453857421875,0.830657744140625
-0.23260712890625002,-0.0808076416015625,0.8458952734375
-0.25400384765625,-0.00654527099609375,0.9149556884765625
-0.018396796875,0.0191892138671875,1.0319405908203125
-0.362689453125,0.044188427734375,1.1164843017578125
-0.39502767578125,0.06011929931640625,1.0673309814453125
-0.168173828125,0.0505607763671875,0.840488408203125
-0.1326747265625,0.110852998046875,0.70335064453125
-0.08574783203125,0.06624655761718751,0.7094948095703125
-0.1205175,0.057668395996093746,0.839505341796875
-0.20488865234375,0.08413815185546875,0.9208540869140625
-0.28196546875,0.13609730224609376,0.92748978515625
-0.1239215234375,0.09541230712890625,0.88226873046875
-0.234309140625,0.158890703125,1.0142453955078126
-0.257651015625,0.181439013671875,1.1268064990234374
-0.20051205078125,0.11207844970703125,1.149171259765625
-0.1793584765625,0.11698025634765626,1.1612138232421876
-0.24087404296875,0.12237224365234375,1.2123332763671875
-0.3515048046875,0.0064445166015625,1.09854333984375
-0.107873984375,0.08560869384765625,1.087238076171875
-0.24038775390625,-0.03399538818359375,1.11525546875
-0.14969484375,0.0074248779296875,1.241579501953125
-0.4147223828125,0.038306259765625,1.2430541015625
-0.36633662109375,-0.061690595703125004,0.9867195361328125
-0.004051269531250002,-0.0004180126953125,0.8009199853515625
-0.15771861328125,-0.13105115966796876,0.8775991650390624
-0.25789416015625,-0.10065995849609374,1.021372626953125
-0.17084841796875,-0.169530341796875,1.0031858984375
-0.3033621875,0.02972809814453125,0.926998251953125
-0.33108066406250003,0.10202974609375,0.8171405810546875
-0.22628537109375,-0.022476142578125,0.81148794921875
-0.1414279296875,0.1157548046875,0.875878798828125
-0.230418828125,0.03315936279296875,0.904387724609375
-0.296554140625,-0.04477936279296875,0.94518498046875
-0.12221951171875,0.0652661962890625,0.9206083203125
-0.1978374609375,0.00791505859375,0.866048134765625
-0.14653396484375,-0.029338671875,1.0550426513671876
-0.34421046875,-0.00360418701171875,1.150645859375
-0.28950294921874997,0.077520712890625,1.2172486083984375
-0.315033125,-0.07320984130859375,0.9867195361328125
-0.1278118359375,-0.00752563232421875,0.816894814453125
-0.10690140625,0.12139188232421876,0.84294607421875
-0.18349193359375,-0.07566074462890625,0.9120064892578125
-0.191515703125,0.062080021972656246,1.0621698828125
-0.2591098828125,-0.00507472900390625,1.1646545556640624
-0.28609892578125,0.09149086181640625,1.230765771484375
-0.2766162890625,-0.06487677001953125,1.1145181689453125
-0.111764296875,0.05227640869140625,1.00023669921875
-0.27807515625,0.024581201171875,0.9341254833984375
-0.24330548828125,0.0035034326171875,0.9267524853515625
-0.28585578125,0.0012976196289062499,0.913235322265625
-0.1725504296875,0.0012976196289062499,0.9154472216796875
-0.27248283203125,-0.0072805419921875,0.9242948193359375
-0.19175884765625,-0.037916833496093746,1.007609697265625
-0.098148203125,0.02531647216796875,0.948625712890625
-0.27783201171875,0.11305881103515625,0.8849721630859375
-0.31381740234375,0.01404231689453125,0.8682600341796876
-0.25011353515625,0.11207844970703125,0.959439443359375
-0.25011353515625,0.10399046875,0.9874568359375
-0.26275705078125,0.15619470947265626,1.0444746875
-0.13632189453125,0.01575794921875,1.069542880859375
-0.10690140625,0.04639424072265625,1.1073909375
-0.28950294921874997,0.07065818359375,1.173747919921875
-0.31138595703125,-0.04477936279296875,1.2123332763671875
-0.273212265625,-0.0915916162109375,1.1211538671875
-0.32305689453124997,-0.10703230712890625,0.964354775390625
-0.343237890625,-0.13129625,0.696960712890625
-0.02739314453125,-0.20727425292968749,0.6406801611328125
-0.035173769531249996,-0.13350206298828124,0.6957318798828125
-0.2022140625,-0.0866898095703125,0.8023945849609375
-0.09887763671875,-0.1553151025390625,0.98647376953125
-0.30141703125,-0.2111956982421875,0.9999909326171875
-0.3612305859375,-0.022476142578125,0.9724650732421874
-0.23917203125,-0.057278969726562504,0.948625712890625
-0.2450075,-0.037916833496093746,0.7822417236328125
-0.15236943359375,-0.13644314697265625,0.708757509765625
-0.11322316406249999,0.08217742919921875,0.9169218212890625
-0.17571130859375,0.01649322021484375,1.1125520361328125
-0.04271125,-0.0082609033203125,1.2369099365234375
-0.29096181640625,0.12727405029296876,1.2059433447265624
-0.32864921874999997,0.1628121484375,1.06806828125
-0.20488865234375,0.0927163134765625,0.8903790283203125
-0.1151683203125,-0.0935523388671875,0.7665126611328125
-0.15674603515625,-0.0504164404296875,0.8132083154296875
-0.17619759765625,-0.11364974609375,0.9547698779296875
-0.31041337890625,-0.2528610546875,0.944693447265625
-0.25084296875,-0.03889719482421875,1.0044147314453125
-0.242089765625,-0.17320669677734374,0.994829833984375
-0.323786328125,-0.0592396923828125,0.969270107421875
-0.24184662109375,0.010856142578125,0.8761245654296875
-0.255705859375,-0.01830960693359375,0.7262069384765625
-0.0529233203125,-0.08056255126953125,0.72301197265625
-0.04465640625,-0.1043363134765625,0.8323781103515625
-0.23747001953125,-0.05899460205078125,1.01399962890625
-0.2255559375,0.0897752294921875,1.1636714892578124
-0.26470220703125,-0.025662316894531252,1.074458212890625
-0.36220316406249997,-0.1121792041015625,1.001219765625
-0.279047734375,0.040266982421875,0.9992536328125
-0.2513292578125,-0.013652890625,0.9970417333984375
-0.19637859375,0.04835496337890625,1.232731904296875
-0.3135742578125,-0.14673694091796874,1.266156162109375
-0.35515197265625,-0.1513936572265625,1.1958669140625
-0.24379177734375002,0.02286556884765625,1.011541962890625
-0.2488978125,0.093206494140625,0.902913125
-0.1560166015625,-0.03546593017578125,0.916184521484375
-0.15285572265625,-0.11144393310546875,1.13393373046875
-0.16793068359375,-0.07835673828125,1.2649273291015626
-0.36463460937500003,-0.07222947998046875,1.1911973486328125
-0.28755779296875,-0.204823349609375,0.9493630126953125
-0.10374052734375,-0.0175743359375,0.92552365234375
-0.33764556640625,-0.177373232421875,0.8372934423828124
-0.23528171875,-0.108747939453125,1.003677431640625
-0.17717017578125,-0.02223105224609375,1.1722733203125
-0.2299325390625,-0.05997496337890625,1.33546234375
-0.26421591796875,-0.08154291259765625,1.287783623046875
-0.43174250000000003,-0.06340622802734375,1.1290183984375
-0.26324333984375,-0.08963089355468751,0.870963466796875
-0.2474389453125,-0.042328459472656246,0.7298934375
-0.16598552734375,-0.10605194580078126,0.6800028173828125
-0.22531279296875,-0.29035987548828124,0.7031048779296875
-0.0879361328125,-0.05605351806640625,0.7640549951171876
-0.24816837890625,0.02286556884765625,0.74070716796875
-0.07869664062500001,-0.11781628173828125,0.80165728515625
-0.2722396875,-0.0004180126953125,0.9847534033203125
-0.26129818359375,0.056933125,1.173747919921875
-0.36730919921875,0.055952763671875,1.2430541015625
-0.32013916015625,-0.04477936279296875,1.14179826171875
-0.2561921484375,0.042227705078125,1.0157199951171876
-0.27491427734375,0.00521906494140625,1.024813359375
-0.19346085937500002,0.1348718505859375,0.9537868115234375
-0.25838044921875,-0.07909200927734375,0.912252255859375
-0.23528171875,0.0740894482421875,0.9139726220703125
-0.30020130859375,0.04688442138671875,0.7380037353515625
-0.17717017578125,-0.05605351806640625,0.6603414892578126
-0.08137123046875,-0.10972830078125,0.61880693359375
-0.052680175781250005,-0.05115171142578125,0.781012890625
-0.27102396484375,-0.0724745703125,0.9483799462890625
-0.057056777343750004,-0.08007237060546875,1.0896957421875
-0.21583015625000002,-0.05850442138671875,1.1823497509765626
-0.33132380859375,0.0054641552734375,1.2998261865234375
-0.39210994140625,-0.04968116943359375,1.20962984375
-0.16793068359375,-0.13742350830078126,0.9960586669921875
-0.10301109375,-0.29869294677734376,0.9090572900390625
-0.18203306640625,-0.249919970703125,1.0447204541015624
-0.29776986328125,-0.2690370166015625,1.01006736328125
-0.37265837890625,-0.2214894921875,0.899472392578125
-0.240144609375,-0.30849656005859377,0.7529954980468749
-0.12076064453125,-0.3278586962890625,0.675333251953125
0.035338144531250004,-0.22075422119140625,0.83704767578125
-0.1083602734375,-0.23742036376953124,1.04152548828125
-0.1793584765625,-0.13056097900390626,1.1852989501953124
-0.33424154296874997,-0.0386521044921875,1.2246216064453126
-0.21704587890625,-0.0141430712890625,1.1801378515625
-0.39940427734375,0.0691876416015625,1.0643817822265624
-0.31770771484375,0.03757098876953125,1.0058893310546875
-0.30311904296875003,-0.04526954345703125,0.93732044921875
-0.0821006640625,0.1191860693359375,1.101984072265625
-0.24573693359375,0.1348718505859375,1.11034013671875
-0.27588685546875,0.14246965087890626,1.22437583984375
-0.11784291015625001,0.15300853515625001,1.1290183984375
-0.31187224609374997,0.0103659619140625,1.042017021484375
-0.1501811328125,0.0740894482421875,1.07494974609375
-0.16793068359375,-0.0121823486328125,0.9191337207031249
-0.21121041015625,-0.03546593017578125,1.0535680517578125
-0.17473873046875,7.216796875000007e-05,1.2369099365234375
-0.29144810546875,-0.06242586669921875,1.2732833935546874
-0.23649744140625,-0.09012107421875,1.0329236572265625
-0.3729015234375,-0.10065995849609374,0.935845849609375
-0.26081189453125,-0.1739419677734375,0.96288017578125
-0.33132380859375,-0.12026718505859375,0.91077765625
-0.2425760546875,0.0074248779296875,0.9822957373046874
-0.25643529296875,-0.1690401611328125,0.926998251953125
-0.15382830078125,-0.05164189208984375,1.002694365234375
-0.22823052734375,-0.073454931640625,0.9827872705078124
-0.09450103515625,-0.1357078759765625,0.9559987109375
0.012968847656250001,0.0917359521484375,1.044966220703125
-0.14847912109375,-0.02909358154296875,1.141306728515625
-0.22142248046875002,0.033404453125,1.29319048828125
-0.3699837890625,0.171635400390625,1.22240970703125
-0.52924345703125,-0.01928996826171875,1.0078554638671875
-0.013533906250000002,0.018699033203125,0.9498545458984375
-0.0538958984375,0.11943115966796874,0.8928366943359375
-0.29582470703125,0.1000690234375,1.0987891064453126
-0.25643529296875,0.080461796875,1.2786902587890625
-0.27394169921875,0.18438009765625,1.30400421875
-0.14993798828125,-0.00777072265625,1.2467406005859374
-0.14847912109375,-0.10016977783203125,1.21257904296875
-0.18008791015625,0.0003172583007812497,1.261240830078125
-0.30409162109375,-0.14624676025390626,0.9717277734375
-0.09741876953125,-0.22124440185546876,0.819844013671875
-0.14361623046875,-0.2866835205078125,0.7004014453125
-0.300444453125,-0.28251698486328125,0.7792925244140625
-0.28634207031250003,-0.30580056640625,0.8161575146484374
-0.24768208984375,-0.3611909814453125,0.8530225048828125
-0.13680818359375,-0.375406220703125,0.800182685546875
-0.113709453125,-0.34820119384765624,0.7119524755859374
-0.060460800781250004,-0.300898759765625,0.6077474365234374
-0.0490330078125,-0.27908572021484374,0.6446124267578125
-0.03760521484375,-0.30408493408203124,0.831640810546875
-0.1034973828125,-0.38594510498046875,1.0309575244140625
-0.24938410156250002,-0.41437558349609377,1.143272861328125
-0.28658521484375,-0.45555075927734373,0.990897568359375
-0.36293259765625,-0.33202523193359373,0.7397241015625
-0.40937320312500003,-0.01781942626953125,0.5079661962890625
-0.100093359375,0.14639109619140625,0.5824334765625
-0.03420119140625,0.21011458251953125,0.734317236328125
0.022451484375,0.214771298828125,0.9709904736328125
-0.07796720703125,0.322611044921875,1.052830751953125
-0.090367578125,0.36893311767578124,1.32071634765625
-0.20926525390625,0.44319548828125,1.5244568603515625
-0.31819400390625,0.5113306005859375,1.5406774560546874
-0.30627992187499997,0.48363539306640624,1.3843698974609375
-0.280992890625,0.4711357861328125,1.410175390625
-0.40572603515625,0.4858412060546875,1.3981328271484375
-0.3738741015625,0.3544727880859375,1.0963314404296876
-0.37071322265625,0.050070595703125,0.8879213623046875
-0.19832375,-0.096983603515625,0.7144101416015625
-0.09158330078125,-0.09428760986328125,0.7085117431640625
-0.17084841796875,0.0280124658203125,0.80558955078125
-0.12440781249999999,-0.091101435546875,0.838522275390625
-0.09304216796875,0.06698182861328125,1.12017080078125
-0.08817927734375,-0.07222947998046875,1.06315294921875
-0.09498732421875,-0.14330567626953125,1.0363643896484376
-0.15917748046875,0.0211499365234375,1.161951123046875
-0.45143720703125,-0.1043363134765625,1.177680185546875
-0.4244481640625,-0.0621807763671875,1.159001923828125
-0.51368220703125,-0.09796396484375,0.9867195361328125
-0.28196546875,-0.11561046875,0.7987080859375
-0.1715778515625,-0.1347275146484375,0.7866655224609375
-0.23309341796875,-0.061690595703125004,0.8943112939453125
-0.2931501171875,-0.08252327392578125,0.810996416015625
-0.21364185546875,-0.104826494140625,0.675333251953125
0.0029999218749999987,0.0172284912109375,0.633061396484375
0.10439119140625,0.02531647216796875,0.6984353125
0.0929633984375,0.111833359375,0.84294607421875
-0.2668905078125,0.02433611083984375,0.92159138671875
-0.39940427734375,0.02286556884765625,0.78199595703125
-0.0918264453125,-0.114630107421875,0.7055625439453125
0.03144783203125,-0.057278969726562504,0.94911724609375
-0.28318119140625,0.00227798095703125,1.1125520361328125
-0.30360533203125,-0.2700173779296875,1.1801378515625
-0.1161408984375,-0.3268783349609375,1.24108796875
-0.12513724609375,-0.19403937500000001,1.3293181787109374
-0.19613544921875,-0.22516584716796875,1.4671932421875
-0.21996361328125,-0.10262068115234375,1.5573895849609376
-0.25108611328125,0.0672269189453125,1.375276533203125
-0.2172890234375,-0.15507001220703126,1.1071451708984374
-0.30409162109375,-0.16462853515625,0.825742412109375
-0.1112780078125,-0.2717330102539062,0.6288833642578124
-0.07796720703125,-0.2629097583007812,0.69548611328125
0.036067578125,-0.23153819580078125,0.9375662158203125
0.0939359765625,0.01012087158203125,1.2020110791015626
-0.0597313671875,0.24148614501953125,1.45441337890625
-0.57252318359375,0.27457333984375,1.41410765625
-0.48426171875,0.336336103515625,1.2609950634765625
-0.5080898828125,0.190262265625,1.1051790380859374
-0.2240970703125,-0.249919970703125,0.954032578125
-0.28074974609375003,0.11599989501953126,0.8930824609375
0.05089939453125,0.03512008544921875,0.5880861083984374
-0.047087851562500005,0.15080272216796875,0.6013575048828125
-0.2785614453125,0.11967625,0.568179013671875
-0.3009307421875,0.0922261328125,0.4622536083984375
-0.013290761718750002,-0.1817848583984375,0.72202890625
0.014670859375000001,-0.2170778662109375,1.2509186328125
-0.019369375,0.00325834228515625,1.3101483837890624
-0.419098984375,-0.12712971435546874,1.2737749267578125
-0.461892421875,0.2093793115234375,1.1287726318359375
-0.45873154296875,0.04982550537109375,0.9577190771484375
-0.4166675390625,0.0133070458984375,1.0727378466796875
-0.2367405859375,0.275553701171875,1.1386032958984376
-0.0733474609375,-0.0043394580078125,0.9936010009765625
-0.090367578125,0.07188363525390624,1.0324321240234375
-0.1248941015625,0.103010107421875,1.0314490576171875
-0.17522501953125,-0.07271966064453125,0.962388642578125
-0.1910294140625,-0.049926259765625,1.0078554638671875
-0.04246810546875,-0.0680629443359375,1.0933822412109375
-0.1346198828125,-0.0798272802734375,1.1504000927734375
-0.17036212890625,-0.04281864013671875,1.0953483740234375
-0.22093619140625,-0.11487519775390626,0.899472392578125
-0.3223274609375,-0.0602200537109375,0.858183603515625
-0.38189787109375,-0.00409436767578125,0.938795048828125
-0.32159802734375,-0.01291761962890625,0.907336923828125
-0.26372962890625,0.07335417724609375,0.964354775390625
-0.22531279296875,0.14197947021484375,0.9046334912109375
-0.12465095703125,0.15864561279296874,0.871946533203125
-0.10860341796875,0.09982393310546875,0.8242678125
-0.14799283203125,0.08315779052734375,0.8242678125
-0.07991236328125,0.0682072802734375,0.855234404296875
-0.086477265625,0.07678544189453125,0.948625712890625
-0.18397822265625,0.16942958740234376,1.065610615234375
-0.35320681640625,0.09149086181640625,0.9228202197265625
-0.24573693359375,0.0691876416015625,0.83213234375
-0.292663828125,0.0858537841796875,0.80952181640625
-0.304334765625,0.14786163818359374,0.9498545458984375
-0.35077537109375,0.00791505859375,1.0132623291015626
-0.28464005859375,-0.05213207275390625,0.9196252539062499
-0.15966376953125,0.01649322021484375,0.9636174755859375
-0.216802734375,0.06551128662109375,0.944693447265625
-0.2114535546875,-0.0327699365234375,0.955507177734375
-0.17814275390625,0.0280124658203125,1.04349162109375
-0.28172232421875,0.00276816162109375,1.11525546875
-0.2255559375,-0.0332601171875,1.1803836181640626
-0.29339326171875,-0.12467881103515625,1.134425263671875
-0.2411171875,-0.14085477294921875,1.085271943359375
-0.2163164453125,-0.09428760986328125,0.967303974609375
-0.282938046875,-0.1415900439453125,0.9567360107421875
-0.36828177734375,-0.055073156738281254,1.00810123046875
-0.4798851171875,-0.138158779296875,0.97467697265625
-0.37922328125,-0.0435539111328125,0.7773263916015625
-0.13972591796875,-0.10801266845703125,0.70924904296875
-0.1657423828125,-0.12026718505859375,0.7901062548828125
-0.1813036328125,-0.1430605859375,0.8869382958984375
-0.12416466796875,-0.03301502685546875,0.964354775390625
-0.20342978515625,0.021640117187500002,0.942727314453125
-0.15164,-0.04919098876953125,0.873912666015625
-0.12270580078125,0.03953171142578125,0.9827872705078124
-0.32086859375,-0.1288453466796875,1.0584833837890626
-0.24184662109375,-0.049926259765625,1.07494974609375
-0.174009296875,-0.18423576171875,0.97369390625
-0.21121041015625,-0.13154134033203124,0.930438984375
-0.181789921875,-0.104826494140625,0.9193794873046874
-0.25108611328125,-0.1572758251953125,1.088221142578125
-0.25449013671875,-0.12467881103515625,1.1857904833984374
-0.25789416015625,-0.07909200927734375,1.167849521484375
-0.17619759765625,-0.04575972412109375,1.0284998583984375
-0.142886796875,-0.081297822265625,0.876861865234375
-0.10714455078125,-0.0827683642578125,0.9621428759765625
-0.0733474609375,-0.0406128271484375,1.0044147314453125
-0.0791829296875,-0.08497417724609375,1.049881552734375
-0.177899609375,0.03168882080078125,1.0112961962890625
-0.13802390625,0.010611052246093749,0.9994993994140625
-0.2445212109375,0.00963069091796875,0.9940925341796875
-0.23917203125,0.1015395654296875,1.02186416015625
-0.187625390625,0.067717099609375,1.0501273193359375
-0.1783858984375,0.13217585693359374,1.1489254931640625
-0.26032560546875,0.1368325732421875,1.18112091796875
-0.2610550390625,0.16477287109375,1.2074179443359374
-0.24670951171875,0.11207844970703125,1.1027213720703124
-0.314060546875,0.09737302978515625,1.07298361328125
-0.19370400390625,0.12678386962890625,1.032186357421875
-0.2309051171875,-0.02762303955078125,0.8834975634765625
-0.10033650390625,0.0133070458984375,0.8122252490234375
-0.10179537109375,0.02433611083984375,0.8205813134765625
-0.18689595703125,0.01600303955078125,0.85867513671875
-0.3067662109375,-0.087179990234375,0.8852179296875
-0.2805066015625,0.00399361328125,0.8913620947265625
-0.175954453125,0.0843832421875,0.93732044921875
-0.28998923828125,-0.0612004150390625,0.950591845703125
-0.25254498046875,-0.02958376220703125,0.97074470703125
-0.25740787109375,0.0338946337890625,0.910286123046875
-0.179844765625,-0.0827683642578125,0.9011927587890625
-0.185680234375,0.03953171142578125,1.111814736328125
-0.22288134765625,0.09296140380859375,1.2442829345703126
-0.26616107421875,-0.0018885546875000003,1.1921804150390625
-0.1997826171875,0.10766682373046875,1.11427240234375
-0.29582470703125,-0.0415931884765625,0.8952943603515625
-0.19370400390625,0.07482471923828125,0.8284458447265625
-0.1501811328125,0.01845394287109375,0.819844013671875
-0.30263275390625,0.04688442138671875,0.9434646142578125
-0.33715927734375,0.0544822216796875,1.0778989453125
-0.21655958984375,-0.07615092529296875,1.048406953125
-0.30749564453125,-0.01291761962890625,0.99040603515625
-0.2347954296875,-0.075415654296875,1.0540595849609375
-0.3767918359375,-0.0425735498046875,1.06315294921875
-0.31770771484375,0.10619628173828125,1.016948828125
-0.2571647265625,0.01894412353515625,0.8962774267578125
-0.1540714453125,0.05962911865234375,0.9011927587890625
-0.1239215234375,-0.014633251953124999,0.968287041015625
-0.26129818359375,-0.0249270458984375,1.1086197705078125
-0.35028908203125,0.096147578125,1.17325638671875
-0.366579765625,0.0069346972656249995,0.9614055761718749
-0.331566953125,-0.0006631030273437505,0.8697346337890625
-0.27005138671875,-0.02468195556640625,0.8235305126953125
-0.1676875390625,-0.1455114892578125,0.820335546875
-0.26372962890625,-0.13889405029296875,0.9095488232421876
-0.28415376953125,-0.02223105224609375,1.021372626953125
-0.43684853515625,-0.11634573974609375,1.0211268603515624
-0.2921775390625,0.0593840283203125,1.0314490576171875
-0.22701480468750002,-0.07443529296875,0.9120064892578125
-0.21899103515625,-0.00360418701171875,0.855234404296875
-0.131215859375,-0.057769150390625,0.8564632373046875
-0.28804408203125,0.0003172583007812497,0.9031588916015625
-0.27807515625,0.0652661962890625,0.97467697265625
-0.30530734375,-0.00581,1.064136015625
-0.24281919921875,0.0731090869140625,1.0692971142578125
-0.3213548828125,0.038306259765625,0.9768888720703125
-0.1501811328125,0.04051207275390625,0.9365831494140625
-0.316005703125,-0.00850599365234375,0.8613785693359375
-0.2454937890625,0.11109808837890625,1.0181776611328126
-0.25059982421875,0.069677822265625,1.1002637060546876
-0.29509527343749997,0.0515411376953125,1.0968229736328126
-0.18470765625,-0.035711020507812496,1.0914161083984375
-0.1988100390625,-0.055808427734375,1.0267794921875
-0.2411171875,-0.08791526123046875,0.9675497412109375
-0.29485212890625,-0.091101435546875,0.9488714794921875
-0.29387955078125,-0.0504164404296875,0.9385492822265625
-0.226528515625,-0.12418863037109375,0.89406552734375
-0.23066197265625,-0.06683749267578125,0.94321884765625
-0.2036729296875,-0.024436865234375,0.9756600390625
-0.273212265625,-0.0366913818359375,0.929947451171875
-0.24427806640625,0.04688442138671875,0.91176072265625
-0.2707808203125,0.00472888427734375,1.0014655322265624
-0.2698082421875,0.04051207275390625,1.11427240234375
-0.24816837890625,-0.06732767333984375,1.09854333984375
-0.30068759765624997,-0.02860340087890625,0.99237216796875
-0.12027435546875,-0.04968116943359375,0.9520664453125
-0.17303671874999998,-0.091101435546875,0.9061080908203125
-0.282938046875,0.04933532470703125,1.0496357861328125
-0.29679728515625,0.013552136230468751,1.0702801806640625
-0.32354318359375,-0.07713128662109375,1.0034316650390624
-0.2309051171875,-0.0063001806640625,1.0358728564453126
-0.3184371484375,-0.07443529296875,0.8446664404296875
-0.20732009765625,0.02874773681640625,0.796741953125
-0.2581373046875,0.024581201171875,0.7542243310546874
-0.0996070703125,0.0760501708984375,0.835573076171875
-0.24525064453125,0.04345315673828125,0.9537868115234375
-0.2488978125,0.0182088525390625,1.104933271484375
-0.25935302734375,-0.02125069091796875,1.0663479150390625
-0.28804408203125,0.00987578125,1.0565172509765626
-0.23455228515625,0.0417375244140625,0.9827872705078124
-0.16841697265625,-0.02762303955078125,0.9380577490234375
-0.24865466796875,-0.01781942626953125,1.0506188525390625
-0.2980130078125,-0.0347306591796875,1.08084814453125
-0.3359435546875,-0.07075893798828126,1.098051806640625
-0.329621796875,-0.0415931884765625,1.0486527197265625
-0.1968648828125,-0.044534272460937496,0.9297016845703125
-0.226528515625,-0.08423890625,0.9186421875
-0.263486484375,-0.04036773681640625,0.94715111328125
-0.2630001953125,-0.06340622802734375,0.936828916015625
-0.21218298828125,-0.012427438964843749,0.908319990234375
-0.2795340234375,-0.006790361328125,0.8717007666015625
-0.1929745703125,0.08021670654296875,0.9061080908203125
-0.22336763671875,-0.108747939453125,0.9245405859375
-0.22944625,0.11698025634765626,1.1096028369140625
-0.2756437109375,0.019434304199218752,1.112797802734375
-0.38627447265625,0.0037485229492187503,1.0157199951171876
-0.24136033203125,0.04712951171875,1.0294829248046875
-0.31819400390625,0.05031568603515625,1.0869923095703125
-0.29533841796875,-0.01561361328125,1.0933822412109375
-0.42615017578125003,-0.020515419921875,0.9528037451171875
-0.23017568359375,0.0995788427734375,0.895540126953125
-0.27345541015625,-0.02762303955078125,0.8019030517578125
-0.26129818359375,0.0103659619140625,0.906353857421875
-0.203186640625,0.0030132519531249997,0.8812856640625
-0.30409162109375,-0.02321141357421875,0.876861865234375
-0.20732009765625,-0.0180645166015625,0.9397781152343749
-0.32986494140625,0.00865032958984375,1.0142453955078126
-0.30311904296875003,-0.01144707763671875,1.0481611865234375
-0.33278267578125,0.06011929931640625,1.0147369287109376
-0.33229638671875,-0.063651318359375,0.9464138134765625
-0.26129818359375,0.010611052246093749,0.965829375
-0.2377131640625,-0.03252484619140625,0.970253173828125
-0.28804408203125,-0.0435539111328125,0.936828916015625
-0.16549923828125,-0.022476142578125,0.9872110693359375
-0.23941517578125,-0.046740085449218746,0.987948369140625
-0.2542469921875,0.0686974609375,1.1093570703125
-0.33764556640625,-0.02419177490234375,1.0112961962890625
-0.2941226953125,-0.0028689160156250004,0.8810398974609375
-0.2347954296875,-0.013407800292968751,0.863098935546875
-0.27588685546875,0.0476196923828125,0.9402696484374999
-0.24695265625,-0.03914228515625,0.9469053466796875
-0.26518849609375,-0.05017135009765625,0.8997181591796874
-0.26640421875,0.046149150390625,0.9690243408203125
-0.16404037109375,-0.044534272460937496,0.974185439453125
-0.288773515625,-0.0161037939453125,0.996795966796875
-0.203186640625,0.03610044677734375,1.0778989453125
-0.271267109375,-0.069533486328125,1.03562708984375
-0.3690112109375,0.03512008544921875,1.0810939111328124
-0.32597462890625,0.01159141357421875,1.0142453955078126
-0.34056330078125,0.00619942626953125,0.8992266259765624
-0.20026890625,-0.045024453125,0.863098935546875
-0.263486484375,-0.03448556884765625,0.8628531689453125
-0.2172890234375,-0.0455146337890625,0.887675595703125
-0.27418484375,-0.0739451123046875,0.9169218212890625
-0.24768208984375,-0.0915916162109375,1.0339067236328126
-0.23917203125,-0.01978014892578125,1.0555341845703126
-0.32451576171875,-0.0317895751953125,0.9999909326171875
-0.27491427734375,-0.0631611376953125,0.9301932177734376
-0.27540056640625,-0.00409436767578125,0.8402426416015625
-0.23552486328125,0.00178780029296875,0.974185439453125
-0.25157240234375,0.00423870361328125,1.1253318994140624
-0.2688356640625,-0.0006631030273437505,1.11820466796875
-0.2377131640625,0.03855135009765625,1.0486527197265625
-0.28269490234375,0.01257177490234375,0.9183964208984375
-0.15674603515625,-0.0288484912109375,0.92650671875
-0.2736985546875,-0.00262382568359375,0.9397781152343749
-0.2834243359375,0.00619942626953125,1.0759328125
-0.255705859375,-0.02272123291015625,1.1172216015625
-0.24962724609375,-0.028358310546875,1.1238572998046874
-0.25157240234375,7.216796875000007e-05,1.085271943359375
-0.2124261328125,-0.0055649096679687505,1.015474228515625
-0.25449013671875,-0.02419177490234375,0.989914501953125
-0.28172232421875,-0.0455146337890625,1.0506188525390625
-0.3271903515625,-0.068553125,1.0692971142578125
-0.2172890234375,-0.035711020507812496,0.984999169921875
-0.299471875,-0.10164031982421876,0.8761245654296875
-0.2007551953125,-0.06487677001953125,0.9223286865234375
-0.26470220703125,-0.0817880029296875,0.9481341796875
-0.40475345703125,-0.00948635498046875,0.9818042041015624
-0.2591098828125,-0.0837487255859375,0.943710380859375
-0.3806821484375,-0.1317864306640625,0.82918314453125
-0.18081734375,-0.00507472900390625,0.8530225048828125
-0.253760703125,-0.10065995849609374,0.792318154296875
-0.31722142578125,-0.00703545166015625,0.8707177001953125
-0.28074974609375003,0.0633054736328125,0.8771076318359375
-0.33472783203125,-0.04428918212890625,0.8240220458984375
-0.22774423828125,0.046149150390625,0.9016842919921875
-0.27685943359375,0.04884514404296875,0.93928658203125
-0.2912049609375,0.04688442138671875,0.978117705078125
-0.32743349609375,0.07384435791015626,0.9936010009765625
-0.2338228515625,0.12678386962890625,0.99630443359375
-0.255705859375,0.0368357177734375,1.0078554638671875
-0.31673513671875,0.04541387939453125,1.063644482421875
-0.33861814453125,0.0456589697265625,1.030220224609375
-0.2056180859375,0.04198261474609375,0.922574453125
-0.23309341796875,0.02972809814453125,0.9188879541015624
-0.26664736328125,0.00865032958984375,1.0260421923828125
-0.11322316406249999,0.01649322021484375,1.165883388671875
-0.329621796875,-0.068553125,1.1803836181640626
-0.273212265625,0.04002189208984375,1.269105361328125
-0.3369161328125,-0.0435539111328125,1.088221142578125
-0.28707150390625,-0.029338671875,1.0181776611328126
-0.2211793359375,-0.01978014892578125,1.0034316650390624
-0.2795340234375,-0.0543378857421875,1.0874838427734375
-0.282938046875,-0.03595611083984375,1.12606919921875
-0.279047734375,-0.08963089355468751,1.0240760595703124
-0.19273142578125,-0.1102184814453125,0.912252255859375
-0.30360533203125,-0.09526797119140624,0.850319072265625
-0.23260712890625002,-0.08497417724609375,0.770690693359375
-0.1842213671875,-0.11757119140625,0.7458682666015625
-0.226528515625,-0.03252484619140625,0.78396208984375
-0.277102578125,-0.0857094482421875,0.797233486328125
-0.28391062499999997,-0.013652890625,0.8250051123046875
-0.23917203125,-0.02223105224609375,0.7475886328125
-0.26056875,0.062080021972656246,0.757419296875
-0.27029453125,0.00227798095703125,0.7640549951171876
-0.17376615234375,0.0172284912109375,0.780521357421875
-0.15188314453125001,0.05619785400390625,0.8065726171875
-0.22823052734375,-0.03105430419921875,0.854251337890625
-0.1978374609375,-0.030073942871093752,0.966320908203125
-0.19419029296875,0.0701680029296875,1.05725455078125
-0.28366748046875,0.05472731201171875,1.1862820166015624
-0.31478998046875,0.0054641552734375,1.3155552490234375
-0.38530189453125,0.0270321044921875,1.3216994140625
-0.29509527343749997,0.053992041015625,1.128526865234375
-0.31576255859375,-0.01169216796875,0.954524111328125
-0.3116291015625,-0.04870080810546875,0.9065996240234375
-0.29436583984375,-0.10997339111328125,0.8309035107421875
-0.22701480468750002,-0.08938580322265625,0.85474287109375
-0.210967265625,-0.061690595703125004,0.879811064453125
-0.23455228515625,-0.0960032421875,0.9051250244140625
-0.27783201171875,0.0093856005859375,0.986965302734375
-0.23941517578125,-0.03546593017578125,1.028254091796875
-0.37071322265625,-0.0011532836914062497,1.0830600439453124
-0.33278267578125,-0.02664267822265625,1.159001923828125
-0.35320681640625,0.03659062744140625,1.173747919921875
-0.47332021484375,-0.02125069091796875,1.081339677734375
-0.36220316406249997,0.0211499365234375,1.02088109375
-0.28415376953125,0.0436982470703125,0.94518498046875
-0.2260422265625,0.01183650390625,0.9061080908203125
-0.22093619140625,0.0623251123046875,1.00023669921875
-0.17692703125,0.00521906494140625,1.1636714892578124
-0.34737134765625,-0.047965537109375,1.1604765234375
-0.339347578125,0.01183650390625,1.1022298388671874
-0.24184662109375,7.216796875000007e-05,0.9604225097656249
-0.33813185546875,-0.00507472900390625,0.921099853515625
-0.29582470703125,-0.01928996826171875,1.00220283203125
-0.28512634765625,-0.08227818359375,0.97369390625
-0.30798193359375,-0.01879978759765625,0.9999909326171875
-0.2736985546875,-0.0915916162109375,0.99827056640625
-0.23844259765625,-0.00409436767578125,1.0353813232421876
-0.22531279296875,0.0368357177734375,1.1105859033203125
-0.387976484375,-0.0092412646484375,1.155069658203125
-0.24087404296875,0.03315936279296875,1.2216724072265626
-0.26056875,0.044188427734375,1.187510849609375
-0.37508982421875,0.061834931640625,1.1258234326171874
-0.2513292578125,0.0711483642578125,1.0860092431640624
-0.27929087890625,-0.01928996826171875,0.9857364697265625
-0.18227621093750002,0.023845930175781252,0.9559987109375
-0.265431640625,-0.06046514404296875,0.9016842919921875
-0.23406599609375,-0.095022880859375,0.8967689599609375
-0.19273142578125,-0.052867343750000004,0.8662939013671875
-0.29387955078125,-0.096983603515625,0.8377849755859375
-0.2814791796875,0.01649322021484375,0.9577190771484375
-0.33861814453125,0.021640117187500002,0.954524111328125
-0.3592854296875,0.09590248779296875,0.9852449365234375
-0.3602580078125,0.10766682373046875,0.95304951171875
-0.3271903515625,0.03659062744140625,0.890624794921875
-0.232363984375,0.04639424072265625,0.762826162109375
-0.29387955078125,0.026051743164062502,0.660587255859375
-0.2231244921875,0.0012976196289062499,0.4868302685546875
-0.13510617187500001,-0.0955130615234375,0.4391515478515625
-0.105928828125,-0.1543347412109375,0.5470430859375
-0.20464550781250002,-0.067572763671875,0.7129355419921874
-0.27613,-0.11438501708984375,0.9021758251953125
-0.29971501953125,-0.042328459472656246,1.0543053515625
-0.3670660546875,-0.0729647509765625,1.18505318359375
-0.34250845703125,-0.044044091796875,1.135408330078125
-0.26616107421875,-0.09869923583984375,1.0378389892578126
-0.2416034765625,-0.037916833496093746,0.966320908203125
-0.2542469921875,-0.07026875732421875,0.9287186181640625
-0.24038775390625,-0.04281864013671875,0.9196252539062499
-0.12367837890625,0.05815857666015625,0.9547698779296875
-0.18859796875,0.0927163134765625,1.0385762890625
-0.1657423828125,0.0819323388671875,1.21061291015625
-0.21169669921875,0.08021670654296875,1.3256316796875
-0.20683380859375,0.13217585693359374,1.3278435791015626
-0.25011353515625,0.1392834765625,1.173747919921875
-0.3203823046875,0.0887948681640625,1.109848603515625
-0.30263275390625,0.0172284912109375,1.0624156494140624
-0.31089966796875,0.04100225341796875,1.0727378466796875
-0.349073359375,0.10864718505859375,1.0997721728515626
-0.31819400390625,0.1314405859375,1.0393135888671874
-0.23649744140625,0.08070688720703124,0.980083837890625
-0.20634751953125,0.05668803466796875,1.057746083984375
-0.24087404296875,-0.01095689697265625,1.15359505859375
-0.30700935546875,0.02360083984375,1.1646545556640624
-0.28318119140625,0.021885207519531248,1.0110504296875
-0.34980279296875,0.01012087158203125,0.871946533203125
-0.218747890625,-0.04723026611328125,0.8323781103515625
-0.2411171875,-0.07664110595703125,0.8242678125
-0.23747001953125,-0.04723026611328125,0.861132802734375
-0.2523018359375,-0.10727739746093751,0.926015185546875
-0.2882872265625,-0.0866898095703125,1.084288876953125
-0.2941226953125,-0.14085477294921875,1.209138310546875
-0.33229638671875,-0.09526797119140624,1.2688595947265624
-0.338375,-0.10360104248046875,1.20471451171875
-0.37922328125,-0.130315888671875,1.1430270947265626
-0.38627447265625,-0.10801266845703125,1.0896957421875
-0.3145468359375,-0.15016820556640625,1.004660498046875
-0.30263275390625,-0.16070708984375,0.9154472216796875
-0.2853694921875,-0.1474722119140625,0.86359046875
-0.2299325390625,-0.18815720703125,0.8102591162109375
-0.2017277734375,-0.18521612304687501,0.7746229589843749
-0.22944625,-0.0866898095703125,0.8458952734375
-0.2698082421875,-0.05850442138671875,0.90586232421875
-0.29290697265625,0.0152677685546875,1.0385762890625
-0.31478998046875,0.00865032958984375,1.1484339599609374
-0.30166017578125,0.044188427734375,1.2079094775390624
-0.35174794921875,0.05668803466796875,1.1749767529296875
-0.29387955078125,0.0299731884765625,1.1818582177734376
-0.3213548828125,-0.03105430419921875,1.1002637060546876
-0.361716875,-0.04183827880859375,1.056271484375
-0.31381740234375,-0.069533486328125,0.99040603515625
-0.346155625,-0.17835359375,0.8623616357421875
-0.27248283203125,-0.07468038330078125,0.7016302783203126
-0.20488865234375,-0.09796396484375,0.5212375927734375
-0.0869635546875,-0.1131595654296875,0.4381684814453125
-0.0461152734375,-0.1190417333984375,0.4937117333984375
-0.16112263671875,-0.004829638671875,0.6497735253906249
-0.3096839453125,0.0515411376953125,0.9188879541015624
-0.39259623046875003,0.07972652587890625,1.1430270947265626
-0.4438997265625,0.1941837109375,1.1317218310546875
-0.4195852734375,0.2490839453125,1.0756870458984376
-0.39891798828125,0.2137909375,1.000728232421875
-0.32500205078125,0.14516564453125,0.9788550048828125
-0.1842213671875,0.0451687890625,0.891116328125
-0.1355924609375,0.1240878759765625,0.7984623193359375
-0.14993798828125,0.1000690234375,0.7817501904296875
-0.26518849609375,-0.061690595703125004,0.8136998486328125
-0.2561921484375,0.01257177490234375,1.032186357421875
-0.31868029296875,-0.00311400634765625,1.134425263671875
-0.3656071875,-0.076396015625,1.0112961962890625
-0.34250845703125,-0.00850599365234375,0.8898874951171875
-0.2960678515625,-0.108747939453125,0.8019030517578125
-0.2736985546875,-0.13129625,0.8368019091796874
-0.29874244140625,-0.14232531494140624,0.9046334912109375
-0.39016478515624997,0.032424091796875,0.9906518017578125
-0.2435486328125,-0.13203152099609375,0.936828916015625
-0.2878009375,-0.108747939453125,0.913235322265625
-0.168173828125,-0.00997653564453125,0.9542783447265625
-0.2133987109375,-0.1038461328125,0.882760263671875
-0.23601115234375,-0.03595611083984375,0.9208540869140625
-0.257651015625,-0.0190448779296875,0.93142205078125
-0.19346085937500002,-0.161687451171875,0.8812856640625
-0.15236943359375,-0.0817880029296875,0.8579378369140624
-0.2367405859375,-0.15899145751953125,0.91569298828125
-0.28123603515625,-0.09379742919921875,1.118696201171875
-0.41107521484375,-0.0072805419921875,1.2757410595703125
-0.3933256640625,0.0010525292968750002,1.35414060546875
-0.4088869140625,0.026051743164062502,1.334970810546875
-0.3884627734375,0.0682072802734375,1.2560797314453125
-0.38919220703125,0.065756376953125,1.0609410498046874
-0.2367405859375,-0.0268877685546875,0.987948369140625
-0.2022140625,-0.1317864306640625,0.8869382958984375
-0.1832487890625,-0.09869923583984375,0.796250419921875
-0.187625390625,-0.0710040283203125,0.7606142626953125
-0.14264365234375,-0.14109986328125,0.719571240234375
-0.1385101953125,-0.0837487255859375,0.8078014501953125
-0.30627992187499997,-0.07370002197265625,0.9975332666015625
-0.33181009765625,-0.09673851318359375,1.14179826171875
-0.3578265625,-0.01830960693359375,1.1565442578125
-0.38481560546875,-0.00605509033203125,1.15949345703125
-0.34810078125,0.01845394287109375,1.1523662255859375
-0.4983641015625,-0.09771887451171875,1.0152284619140626
-0.401592578125,0.07850107421875,0.8014115185546875
-0.25838044921875,-0.10752248779296875,0.612417001953125
-0.09936392578125,-0.12320826904296875,0.61880693359375
-0.04854671875,-0.013652890625,0.8082929833984375
-0.12416466796875,-0.0513968017578125,0.942727314453125
-0.212912421875,0.05962911865234375,1.0339067236328126
-0.19832375,0.11550971435546875,1.0717547802734375
-0.26056875,0.02237538818359375,1.1617053564453126
-0.3072525,0.03806116943359375,1.328089345703125
-0.370470078125,0.11207844970703125,1.3784714990234375
-0.4886383203125,0.1191860693359375,1.3298097119140624
-0.41034578125,0.1142842626953125,1.1833328173828126
-0.3680386328125,0.00423870361328125,0.968287041015625
-0.347128203125,-0.028113220214843748,0.902421591796875
-0.2085358203125,-0.10654212646484375,0.8127167822265625
-0.16501294921875,-0.0523771630859375,0.7861739892578125
-0.17522501953125,-0.12320826904296875,0.7790467578125
-0.195406015625,-0.15212892822265625,0.7534870312499999
-0.22871681640625,-0.03448556884765625,0.8122252490234375
-0.24865466796875,-0.00409436767578125,0.926015185546875
-0.1715778515625,-0.06242586669921875,1.064136015625
-0.24962724609375,-0.118551552734375,1.24796943359375
-0.44706060546875,-0.10605194580078126,1.297614287109375
