ax,ay,az
0.0326635546875,0.210849853515625,1.0535680517578125
-0.22725794921875,0.10472573974609375,1.1985703466796875
0.0076196679687500005,-0.022476142578125,1.2890124560546874
-0.21607330078125,-0.19845100097656249,1.2231470068359376
-0.30068759765624997,-0.1141399267578125,0.9488714794921875
-0.2153438671875,-0.045024453125,0.6308494970703125
-0.15236943359375,-0.1210024560546875,0.5232037255859375
-0.09693248046875,-0.010711806640625,0.7055625439453125
-0.13534931640625,-0.09526797119140624,1.088221142578125
-0.05802935546875,-0.04772044677734375,1.36692046875
-0.13000013671875,-0.07419020263671874,1.627924599609375
-0.526082578125,0.19491898193359375,1.58417814453125
-0.1657423828125,0.008895419921875,0.817877880859375
-0.09523046875,-0.1572758251953125,0.778555224609375
-0.18981369140625,-0.06536695068359374,0.900455458984375
-0.070916015625,-0.16683434814453124,1.1644087890625
-0.06191966796875,0.0010525292968750002,1.32071634765625
-0.18349193359375,0.08953013916015624,1.3155552490234375
-0.244034921875,-0.1744321484375,1.0031858984375
-0.04830357421875,0.026296833496093748,0.921099853515625
-0.04878986328125,-0.1817848583984375,0.9316678173828125
0.08348076171875,-0.267566474609375,1.23224037109375
-0.16987583984375,-0.2553119580078125,1.37576806640625
-0.2600824609375,-0.193059013671875,1.56353375
-0.3651208984375,-0.1268846240234375,1.3499625732421876
-0.53848294921875,-0.1901179296875,1.1218911669921874
-0.34056330078125,0.21893783447265625,1.0402966552734374
-0.4419545703125,0.2177123828125,0.9370746826171875
-0.14507509765624998,0.1329111279296875,0.6079932031249999
0.0778884375,-0.1102184814453125,0.5158307275390625
0.1260310546875,-0.1043363134765625,0.7291561376953125
0.15350638671875,-0.023456503906250002,1.0543053515625
0.18268373046875,-0.153844560546875,1.46227791015625
0.02804380859375,-0.467560185546875,1.845182275390625
-0.666133828125,-0.0018885546875000003,1.73360423828125
-0.45338236328125,0.22482000244140626,1.0673309814453125
-0.438550546875,0.1799684716796875,0.7724110595703125
-0.34883021484375,-0.01487834228515625,0.46544857421874997
0.04603650390625,-0.2523708740234375,0.4101510888671875
0.08299447265625,-0.23202837646484376,0.354853603515625
-0.008671015625,-0.24109671875,0.44382111328125
-0.31041337890625,-0.12026718505859375,0.4907625341796875
-0.310170234375,-0.00507472900390625,0.5502380517578125
-0.09425789062500001,0.00423870361328125,0.7613515625
0.08834365234375,-0.068553125,1.456871044921875
0.086641640625,-0.052867343750000004,1.8886829638671876
-0.40767119140625,0.1162449853515625,1.86140287109375
-0.59878279296875,0.1133039013671875,1.3531575390625
-0.34834392578125,0.15668489013671874,0.5281190576171875
-0.29533841796875,0.048109873046875,0.3150394140625
-0.23892888671875,0.0427178857421875,0.2513858642578125
0.012482558593749998,0.010611052246093749,0.43202431640625
0.1299213671875,-0.0974737841796875,0.593738740234375
0.15982814453125,-0.0582593310546875,1.063644482421875
0.057707441406250004,0.12972495361328126,1.7542486328125
-0.767281953125,0.0584036669921875,1.9319378857421876
-0.88569333984375,-0.014633251953124999,1.5566522851562499
-0.2775888671875,-0.013162709960937501,0.8844806298828125
-0.07067287109375,0.13609730224609376,0.661570322265625
0.046522792968750004,0.1436951025390625,0.4853556689453125
-0.02787943359375,0.259867919921875,0.7512751318359375
-0.06143337890625,0.1309504052734375,0.8368019091796874
-0.17182099609375,-0.15286419921875,0.8505648388671875
-0.1521262890625,-0.21291133056640624,0.7475886328125
-0.2211793359375,-0.21095060791015624,0.714164375
-0.06410796875,-0.11095375244140625,1.0503730859375
-0.02131453125,0.11060790771484375,1.401819326171875
-0.20537494140625,-0.03203466552734375,1.7540028662109375
-0.504685859375,-0.00850599365234375,1.8139699169921875
-0.31722142578125,0.04198261474609375,1.3809291650390625
-0.45095091796875,-0.09771887451171875,0.6642737548828125
-0.07310431640625001,-0.201882265625,0.3752522314453125
0.0462796484375,-0.1131595654296875,0.369599599609375
-0.07164544921875,0.02286556884765625,0.4723300390625
-0.0587587890625,0.00816014892578125,0.6465785595703125
-0.26664736328125,-0.08497417724609375,1.0545511181640626
-0.053409609375,-0.23129310546875,1.4984056005859374
-0.34299474609375,-0.36927896240234376,1.9609383447265625
-0.28585578125,-0.15801109619140624,1.7033749462890624
-0.63598390625,-0.15850127685546875,1.391005595703125
-0.5139253515625,0.04835496337890625,0.9206083203125
-0.25400384765625,-0.0011532836914062497,0.6613245556640625
-0.0140201953125,-0.18497103271484375,0.3565739697265625
0.0861553515625,-0.12811007568359375,0.3936847265625
-0.04684470703125,0.04002189208984375,0.560806015625
-0.245980078125,0.1152646240234375,0.7355460693359375
-0.1560166015625,-0.0881603515625,0.9481341796875
-0.014992773437499999,0.02433611083984375,1.2285538720703124
-0.08088494140625,0.10202974609375,1.4841511376953125
-0.049276152343750004,0.0348749951171875,1.3976412939453124
-0.37265837890625,-0.0808076416015625,1.490295302734375
-0.58930015625,-0.03546593017578125,1.3391488427734375
-0.43174250000000003,-0.22026404052734375,0.929947451171875
-0.28464005859375,-0.0960032421875,0.6374851953125
-0.17376615234375,-0.0023787353515625003,0.552941484375
0.01953375,-0.09036616455078125,0.5428650537109375
0.02853009765625,-0.12663953369140624,0.89406552734375
-0.08963814453125,-0.28888933349609375,0.863098935546875
-0.18932740234375,-0.35163245849609376,0.8741584326171875
-0.24622322265625,-0.068553125,0.8205813134765625
0.06159775390625,0.01208159423828125,0.760860029296875
0.1513180859375,0.0593840283203125,1.0201437939453124
0.185844609375,0.13364639892578126,1.513888896484375
-0.013533906250000002,0.3927068798828125,1.937590517578125
-0.62820328125,0.28609258544921873,1.907115458984375
-0.70382123046875,0.028257556152343752,1.3607763037109375
-0.5469930078125,0.0544822216796875,0.855234404296875
-0.2484115234375,0.0397768017578125,0.6647652880859375
-0.033714902343750006,-0.1317864306640625,0.69548611328125
-0.1317021484375,-0.17124597412109374,0.68172318359375
0.042389335937499995,-0.1901179296875,0.8073099169921875
-0.013777050781250001,-0.22222476318359374,0.8908705615234375
-0.11322316406249999,-0.20849970458984374,0.9208540869140625
-0.03711892578125,-0.11193411376953125,1.1801378515625
-0.18203306640625,0.09394176513671874,1.4320486181640626
-0.467727890625,0.32089541259765625,1.4222179541015625
-0.5995122265625,0.12678386962890625,1.238630302734375
-0.3252451953125,0.1084020947265625,0.95108337890625
-0.02593427734375,0.055952763671875,0.6151204345703125
-0.10665826171875001,0.01257177490234375,0.442346513671875
-0.0743200390625,-0.2141367822265625,0.46151630859375
0.010294257812499999,-0.24820433837890626,0.7419360009765625
0.042389335937499995,-0.2700173779296875,1.02186416015625
0.0384990234375,-0.39819962158203126,1.5537030859375
-0.08185751953125,-0.5457440014648437,1.677077919921875
-0.30919765625,-0.1768830517578125,1.3430811083984375
-0.3952708203125,0.0338946337890625,1.3420980419921875
-0.33108066406250003,-0.0006631030273437505,1.2934362548828124
-0.358799140625,0.01453249755859375,1.0712632470703125
-0.1375376171875,0.1525183544921875,0.736283369140625
0.088586796875,0.04688442138671875,0.545076953125
0.09539484375,-0.08987598388671875,0.4681520068359375
-0.09547361328125001,-0.21536223388671874,0.581941943359375
-0.26421591796875,-0.21340151123046874,0.6342902294921875
-0.20829267578125,-0.1857063037109375,0.573094345703125
0.0968537109375,-0.1352176953125,0.84097994140625
-0.26372962890625,-0.1396293212890625,1.1194335009765626
-0.41934212890625,-0.232273466796875,1.2452660009765626
-0.29582470703125,0.00227798095703125,1.2172486083984375
-0.2717533984375,0.148106728515625,1.051847685546875
-0.31187224609374997,0.08634396484375,0.7276815380859375
-0.052680175781250005,-0.1474722119140625,0.4180156201171875
0.042875625,-0.20997024658203126,0.4371854150390625
0.0696215234375,-0.19036302001953126,0.658621123046875
0.054789707031249996,-0.03203466552734375,1.1081282373046875
-0.02520484375,0.04786478271484375,1.4671932421875
-0.30749564453125,-0.01169216796875,1.646111328125
-0.42128728515625,-0.0219859619140625,1.469159375
-0.35758341796875,0.1260485986328125,1.2541135986328125
-0.38043900390625,0.22727090576171874,1.048406953125
-0.1560166015625,0.11354899169921875,0.678282451171875
0.02318091796875,0.011346323242187501,0.52639869140625
-0.13340416015625,0.0005623486328125002,0.6082389697265624
-0.143859375,-0.0994345068359375,0.5354920556640625
-0.12756869140625,-0.17418705810546875,0.48584720214843746
0.11168552734375001,-0.0180645166015625,0.86850580078125
0.1454826171875,-0.042083369140625,1.4396673828125
-0.0013766796875,-0.03840701416015625,1.9194037890625
-0.36779548828124997,0.15325362548828125,1.9953456689453124
-0.51611365234375,0.26403445556640626,1.57139828125
-0.1939471484375,0.0495804150390625,1.3637255029296875
-0.054868476562500004,-0.19722554931640626,1.06118681640625
-0.13875333984375,-0.08056255126953125,0.9166760546875
-0.47769681640625,-0.13644314697265625,0.7276815380859375
-0.33375525390625,-0.0847290869140625,0.4194902197265625
-0.21412814453125,-0.05090662109375,0.353870537109375
0.100257734375,-0.14477621826171874,0.7724110595703125
0.19654296875,0.03462990478515625,1.26959689453125
-0.04733099609375,0.10423555908203125,1.7485960009765624
-0.430769921875,-0.1337471533203125,1.6414417626953126
-0.228473671875,0.00717978759765625,1.355615205078125
-0.39210994140625,0.15227326416015624,1.064136015625
-0.0850183984375,0.0574233056640625,0.780521357421875
-0.117599765625,0.17776265869140626,0.7797840576171875
-0.24816837890625,-0.08227818359375,0.7694618603515625
0.00591765625,-0.29379114013671875,0.8053437841796875
0.011753125,-0.36976914306640624,0.9783634716796875
-0.2503566796875,-0.47564816650390623,1.424429853515625
-0.22579908203125,-0.46535437255859374,1.2546051318359375
-0.3033621875,-0.218548408203125,0.717605107421875
-0.21315556640625,0.093206494140625,0.6991726123046875
-0.148722265625,-0.22222476318359374,0.5055085302734375
0.16542046875,0.0093856005859375,0.6500192919921874
0.13210966796875,0.17580193603515626,1.074458212890625
-0.022530253906250002,0.12163697265625,1.2941735546875
-0.3889490625,-0.096983603515625,1.064627548828125
-0.31819400390625,-0.2214894921875,0.7829790234375
-0.2221519140625,-0.11389483642578124,0.6161035009765625
-0.24379177734375002,-0.19379428466796875,0.612417001953125
-0.01669478515625,-0.09330724853515625,0.82525087890625
-0.12902755859375,-0.1092381201171875,1.053813818359375
-0.09158330078125,0.1074217333984375,1.2467406005859374
-0.29387955078125,-0.20114699462890626,1.2378930029296875
-0.05024873046875,0.14737145751953126,1.0457035205078125
-0.2639727734375,0.04835496337890625,0.78986048828125
-0.07456318359375,-0.11340465576171875,0.8422087744140625
0.109983515625,-0.01487834228515625,1.1427813281249999
-0.17571130859375,0.011346323242187501,1.365445869140625
0.0783747265625,-0.12565917236328125,1.4138618896484374
-0.100093359375,-0.13644314697265625,1.2491982666015624
-0.05413904296875,0.10472573974609375,1.154578125
-0.39648654296875,-0.17614778076171875,1.0442289208984374
-0.3145468359375,-0.1847259423828125,0.870963466796875
-0.12635296875,-0.14526639892578125,0.7325968701171874
-0.098148203125,0.09394176513671874,0.85081060546875
-0.4079143359375,0.04443351806640625,0.7812586572265625
-0.2600824609375,0.12776423095703124,0.6910623144531249
0.19581353515625,-0.01781942626953125,0.802148818359375
0.22547716796875,-0.09330724853515625,0.9729566064453125
0.21721025390624998,-0.0337502978515625,1.17915478515625
0.13308224609375,-0.1543347412109375,1.326123212890625
-0.5372672265625,0.0436982470703125,1.2595204638671875
-0.46748474609375,0.09737302978515625,0.88030259765625
-0.27029453125,0.20178151123046875,0.80067421875
0.13818828125,0.1221271533203125,1.2256046728515626
0.11995244140625,0.1000690234375,1.3219451806640625
-0.29047552734375,-0.13105115966796876,1.1577730908203125
-0.0286088671875,-0.1430605859375,0.963371708984375
-0.17279357421875,-0.275409365234375,0.874895732421875
-0.28269490234375,-0.07173929931640625,0.9842618701171875
-0.42055785156250003,-0.012672529296875,1.0896957421875
-0.1287844140625,-0.3033496630859375,0.9238032861328125
0.18122486328125,-0.177373232421875,0.9284728515625
-0.067025703125,-0.05090662109375,1.28827515625
0.11873671875,0.16011615478515626,1.372327333984375
-0.331566953125,0.28241623046875,1.1508916259765625
-0.325731484375,0.228496357421875,0.6814774169921874
-0.08866556640625001,0.0044837939453125,0.4465245458984375
0.13818828125,-0.10948321044921874,0.62077306640625
0.0545465625,-0.2935460498046875,0.9567360107421875
-0.034930625,-0.39476835693359374,1.2054518115234374
-0.11200744140625,-0.45604093994140626,1.491278369140625
-0.28585578125,-0.24673379638671875,1.509956630859375
-0.162338359375,0.052031318359375,1.090187275390625
-0.24087404296875,-0.12467881103515625,1.1317218310546875
-0.18154677734375,-0.01046671630859375,1.2688595947265624
0.17198537109375,0.04198261474609375,1.3964124609375
0.060382031249999996,-0.3151139990234375,1.25681703125
-0.19224513671875,0.0927163134765625,1.147205126953125
-0.07504947265625,-0.03840701416015625,0.7994453857421875
-0.07942607421875,-0.2170778662109375,0.6023405712890625
-0.1200312109375,-0.14698203125,0.702367578125
0.0287732421875,0.05889384765625,1.1012467724609376
0.04117361328125,-0.134237333984375,1.394446328125
-0.2912049609375,-0.0001729223632812504,1.3745392333984374
-0.16598552734375,0.0701680029296875,1.052830751953125
-0.04684470703125,0.0486000537109375,0.7763433251953125
-0.08331638671875,0.0309535498046875,0.7960046533203124
-0.07456318359375,-0.013652890625,1.1174673681640626
-0.1988100390625,0.16452778076171876,1.3307927783203124
-0.16112263671875,0.08953013916015624,1.341852275390625
-0.10860341796875,0.15962597412109375,1.3696239013671876
-0.30749564453125,-0.107767578125,1.22830810546875
-0.1321884375,-0.26585084228515626,1.2469863671875
-0.07991236328125,-0.34967173583984373,1.132459130859375
0.07180982421875,-0.3327605029296875,1.019406494140625
0.09612427734375,-0.01046671630859375,0.858183603515625
-0.14215736328125,0.09639266845703125,0.8377849755859375
-0.2912049609375,0.14982236083984374,0.730384970703125
-0.21121041015625,0.212810576171875,0.8156659814453124
0.0180748828125,0.05178622802734375,1.145238994140625
0.23739125,-0.10262068115234375,1.4517099462890626
0.0842101953125,-0.0749254736328125,1.7667827294921874
-0.30360533203125,0.08658905517578125,1.73950263671875
-0.25084296875,-0.2268814794921875,1.3455387744140626
-0.34202216796875,-0.134237333984375,1.1710444873046875
-0.4225030078125,-0.0857094482421875,1.077407412109375
-0.27637314453125,-0.365602607421875,0.86653966796875
0.12043873046875,0.15668489013671874,0.7217831396484375
0.0049450781249999985,0.08756941650390625,0.590789541015625
0.121654453125,0.02580665283203125,0.4765080712890625
0.117764140625,-0.07468038330078125,0.705808310546875
-0.02909515625,-0.2455083447265625,0.8972604931640625
-0.1190586328125,-0.34526010986328126,1.1258234326171874
-0.14191421875,-0.39574871826171876,1.10640787109375
-0.07602205078125,-0.18889247802734374,1.0117877294921875
-0.11322316406249999,-0.06340622802734375,0.854251337890625
-0.19127255859375,-0.12712971435546874,0.9520664453125
0.0229377734375,-0.2092349755859375,1.0353813232421876
0.055519140625,-0.1710008837890625,1.0228472265625
0.09855572265625,-0.3062907470703125,1.3307927783203124
0.0049450781249999985,-0.1817848583984375,1.58024587890625
-0.42979734375,0.10276501708984374,1.44851498046875
-0.35417939453125,0.12482314697265626,0.93732044921875
0.01758859375,0.0137972265625,0.68172318359375
0.185844609375,0.05962911865234375,0.6964691796875
0.150831796875,0.14394019287109375,0.962388642578125
0.17393052734375,0.10178465576171875,1.0697886474609375
-0.008671015625,0.062080021972656246,1.2929447216796874
-0.15771861328125,0.030463369140625002,1.4664559423828125
-0.46164927734375,-0.0180645166015625,1.229782705078125
-0.3077387890625,0.1103628173828125,0.995812900390625
-0.23114826171875,0.10080429443359375,0.807064150390625
-0.013047617187499999,-0.12516899169921875,0.8812856640625
0.051385683593749995,-0.012427438964843749,1.1651460888671874
-0.23819945312500002,0.03561026611328125,1.3863360302734375
0.01540029296875,-0.08791526123046875,1.356598271484375
-0.2386857421875,-0.2945264111328125,1.0130165625
-0.18227621093750002,-0.12761989501953125,1.095594140625
0.05235826171875,-0.2781053588867187,1.1341794970703125
0.10001458984375,-0.27442900390625,1.177680185546875
-0.09255587890625,-0.2170778662109375,1.217002841796875
-0.0645942578125,0.0799716162109375,1.2909785888671874
-0.15917748046875,0.026296833496093748,0.9842618701171875
-0.007698437500000002,-0.17124597412109374,0.7178508740234375
0.13551369140625,-0.022476142578125,1.03562708984375
-0.37338781249999997,-0.35163245849609376,1.2639442626953126
-0.316005703125,-0.14134495361328125,1.2378930029296875
-0.339347578125,-0.32663324462890625,0.91176072265625
-0.0918264453125,-0.1151202880859375,0.603569404296875
0.15788298828125,-0.1273748046875,0.450702578125
0.1629890234375,-0.1219828173828125,0.6111881689453125
0.16031443359375,-0.14771730224609375,0.9675497412109375
0.09855572265625,-0.30580056640625,1.36790353515625
-0.36974064453125,-0.30408493408203124,1.3730646337890624
-0.37849384765625,0.0133070458984375,0.7969877197265625
0.0112668359375,-0.09330724853515625,0.30938678222656246
0.12335646484375,-0.154824921875,0.2499112646484375
0.1270036328125,-0.12933552734375,0.3285565771484375
0.10609320312500001,-0.1131595654296875,0.7153932080078125
0.12384275390624999,0.05227640869140625,1.1420440283203126
-0.224583359375,0.2927100244140625,1.473091640625
-0.34493990234375,0.07776580322265625,1.4050142919921875
-0.01572220703125,-0.09673851318359375,1.297614287109375
0.159585,-0.01732924560546875,1.1565442578125
0.19046435546875,0.146146005859375,1.12803533203125
0.164447890625,0.10472573974609375,1.27549529296875
-0.13024328125,0.21452620849609375,1.509956630859375
-0.51562736328125,0.238299970703125,1.5647625830078125
-0.53994181640625,0.20962440185546874,1.3602847705078125
-0.370470078125,-0.059484782714843754,0.9763973388671875
-0.0714023046875,-0.14232531494140624,0.999745166015625
-0.0699434375,-0.11879664306640625,0.8672769677734375
-0.105928828125,-0.26266466796875,0.9439561474609375
0.0545465625,-0.26977228759765626,1.1361456298828125
-0.08039865234375,-0.16634416748046876,1.39739552734375
-0.31673513671875,-0.05874951171875,1.53994015625
-0.3291355078125,0.009140510253906251,1.4590829443359374
-0.48061455078125,-0.0925719775390625,1.19291771484375
-0.3889490625,-0.1866866650390625,0.704825244140625
0.049683671875,-0.169530341796875,0.344039873046875
0.12092501953125,-0.20408807861328124,0.23369066894531249
0.06840580078125,-0.20555862060546876,0.469872373046875
0.035095,-0.249919970703125,0.7633176953125
0.03485185546875,-0.3109474633789063,1.161951123046875
0.04944052734375,-0.414620673828125,1.7019003466796874
-0.1920019921875,-0.4366788037109375,2.0209053955078127
-0.27199654296875,-0.06879821533203125,1.7041122460937501
-0.2668905078125,0.07188363525390624,1.5478046875
-0.30117388671875,-0.2494297900390625,1.289749755859375
-0.1501811328125,-0.2464887060546875,0.6984353125
-0.07796720703125,-0.2881540625,0.5148476611328126
0.05527599609375,-0.2435476220703125,0.4538975439453125
0.08931623046875001,-0.19379428466796875,0.5079661962890625
0.102202890625,-0.1572758251953125,0.6957318798828125
0.14329431640625,-0.16732452880859375,1.0444746875
0.01734544921875,-0.20604880126953126,1.419514521484375
-0.3544225390625,0.0436982470703125,1.3489795068359376
-0.2036729296875,0.14541073486328124,1.0422627880859374
-0.0383346484375,0.06894255126953125,0.925032119140625
0.13454111328125,-0.0945327001953125,0.864082001953125
0.096367421875,-0.008996174316406251,0.80067421875
-0.0587587890625,0.07850107421875,0.68270625
-0.09887763671875,-0.03938737548828125,0.7149016748046875
-0.02520484375,-0.02272123291015625,0.752012431640625
0.02269462890625,0.0020328906249999995,0.8761245654296875
0.0701078125,0.05962911865234375,1.2772156591796875
0.0307183984375,0.09026541015625,1.457362578125
-0.061190234375,-0.07909200927734375,1.5175753955078126
0.08761421875,-0.02909358154296875,1.5478046875
-0.13024328125,-0.029338671875,1.6168651025390626
-0.11200744140625,-0.0567887890625,1.65889119140625
-0.25108611328125,-0.03889719482421875,1.61858546875
-0.218747890625,-0.15801109619140624,1.4777612060546874
-0.32864921874999997,-0.30016348876953125,1.0496357861328125
-0.13000013671875,-0.0768861962890625,0.740215634765625
-0.07553576171875,-0.13840386962890625,0.5060000634765625
0.0511425390625,-0.15801109619140624,0.5757977783203125
0.16809505859375,-0.11585555908203125,0.9011927587890625
0.0929633984375,-0.1200220947265625,1.3275978125
-0.19953947265625,-0.17639287109375001,1.57041521484375
-0.11249373046875,-0.25482177734375,1.4121415234375
0.06816265625,-0.21389169189453125,1.25386783203125
-0.11054857421875,-0.096983603515625,1.092153408203125
-0.14167107421875,-0.18497103271484375,1.0201437939453124
-0.228473671875,-0.2788406298828125,0.93437125
-0.12951384765625001,-0.10727739746093751,0.9513291455078126
0.07132353515625,-0.08595453857421875,0.930438984375
0.0472522265625,0.157910341796875,1.11820466796875
-0.015479062500000002,0.208889130859375,1.3445557080078125
-0.10276794921875,0.06624655761718751,1.793079755859375
-0.0918264453125,0.17261576171875,2.0690756494140623
-0.2318776953125,-0.15212892822265625,1.92235298828125
-0.1414279296875,-0.1788437744140625,1.36790353515625
-0.10471310546875,-0.21634259521484375,1.043000087890625
-0.098148203125,-0.17614778076171875,0.957473310546875
-0.11492517578125,0.06992291259765625,0.8891501953125
-0.29922873046875,-0.12933552734375,0.9129895556640625
-0.14507509765624998,-0.3857000146484375,0.969761640625
-0.26154132812499997,-0.34280920654296876,0.9609140429687499
-0.1861665234375,-0.3425641162109375,0.7783094580078125
0.010294257812499999,-0.29526168212890624,0.6768078515625
0.096367421875,-0.22737166015625,0.7158847412109375
0.04409134765625,-0.22222476318359374,0.777572158203125
-0.15431458984375,-0.11487519775390626,0.8746499658203125
0.0307183984375,-0.09918941650390625,0.9360916162109375
0.04409134765625,-0.29673222412109374,1.00613509765625
-0.02593427734375,-0.32516270263671876,1.02088109375
-0.1633109375,-0.17516741943359376,0.9999909326171875
-0.3038484765625,-0.13105115966796876,0.7665126611328125
-0.2795340234375,-0.09796396484375,0.5234494921875
-0.004294414062500002,-0.0332601171875,0.4330073828125
0.102202890625,0.0054641552734375,0.54900921875
0.0715666796875,0.13805802490234376,0.7984623193359375
0.012968847656250001,-0.0249270458984375,0.884726396484375
-0.03566005859375,-0.11438501708984375,0.99040603515625
0.00980796875,-0.18055940673828125,1.2064348779296874
-0.12659611328125,-0.147962392578125,1.3612678369140625
-0.097175625,-0.024436865234375,1.361513603515625
-0.28269490234375,0.0451687890625,1.287783623046875
-0.2406308984375,0.11207844970703125,1.0294829248046875
-0.213885,-0.04306373046875,0.7571735302734375
0.17101279296875,-0.07320984130859375,0.6677144873046875
0.1873034765625,-0.045024453125,0.8087845166015625
-0.012075039062500001,-0.17124597412109374,0.9798380712890625
0.006403945312499999,-0.08791526123046875,1.189476982421875
-0.0004041015625000019,-0.060710234375,1.3531575390625
-0.18057419921875,0.00399361328125,1.372327333984375
-0.23114826171875,0.19491898193359375,1.1526119921875
0.0034862109374999978,0.0182088525390625,0.9901602685546875
-0.11249373046875,-0.075415654296875,1.155069658203125
-0.05024873046875,-0.1925688330078125,1.362496669921875
-0.31430369140625003,-0.3156041796875,1.412633056640625
-0.1725504296875,-0.3535931811523437,1.187510849609375
-0.1365650390625,-0.3445248388671875,0.8778449316406249
-0.004294414062500002,-0.32932923828125,0.7733941259765625
0.08737107421875,-0.25359632568359375,0.9174133544921875
0.10876779296875,-0.2484494287109375,1.1919346484375
-0.081614375,-0.1602169091796875,1.333004677734375
-0.247925234375,-0.0798272802734375,1.44458271484375
-0.183735078125,-0.06781785400390625,1.3303012451171874
-0.22920310546875,-0.155805283203125,1.221426640625
-0.16695810546875,-0.25874322265625,0.9953213671875
-0.1166271875,-0.338152490234375,0.9287186181640625
-0.2639727734375,-0.13203152099609375,1.02088109375
-0.11589775390625,-0.07713128662109375,1.12803533203125
-0.16695810546875,-0.1366882373046875,1.145238994140625
-0.09693248046875,-0.05801424072265625,1.114763935546875
-0.13607875,-0.17467723876953126,1.038084755859375
-0.06848457031249999,-0.14894275390625,1.0211268603515624
-0.1219763671875,-0.13448242431640625,1.0407881884765624
-0.06775513671875,-0.24379271240234374,1.151137392578125
-0.16525609375,-0.14428603759765624,1.248460966796875
-0.04878986328125,-0.2293323828125,1.2177401416015625
-0.0801555078125,-0.17124597412109374,1.174730986328125
-0.18640966796875,-0.19477464599609376,1.17325638671875
-0.152612578125,-0.29281077880859374,1.0653648486328124
-0.30360533203125,-0.30359475341796877,1.06020375
-0.1530988671875,-0.29526168212890624,1.076424345703125
-0.2834243359375,-0.25947849365234377,0.9793465380859375
-0.17327986328125,-0.151883837890625,0.912252255859375
-0.18106048828125,-0.20065681396484375,0.7640549951171876
-0.051464453125000004,-0.16732452880859375,0.652722724609375
0.030232109375,-0.1651187158203125,0.59717947265625
0.076915859375,-0.17639287109375001,0.6699263867187499
0.04409134765625,-0.21438187255859376,0.8065726171875
-0.004051269531250002,-0.191098291015625,1.0053977978515625
-0.183735078125,-0.1641383544921875,1.1784174853515625
-0.2357680078125,-0.1896277490234375,1.243545634765625
-0.113709453125,-0.18006922607421874,1.1538408251953125
-0.1715778515625,-0.0739451123046875,1.145238994140625
-0.23114826171875,-0.0376717431640625,1.0575003173828126
-0.2099946875,-0.10188541015625,0.9410069482421874
-0.10301109375,-0.1837455810546875,0.8697346337890625
0.05333083984375,-0.232273466796875,1.0334151904296875
0.01369828125,-0.31437872802734373,1.1961126806640625
0.0003253320312500002,-0.267566474609375,1.4131245898437501
-0.1112780078125,-0.238155634765625,1.383141064453125
-0.13048642578125,-0.18644157470703124,1.1427813281249999
-0.12951384765625001,-0.14869766357421876,1.0078554638671875
-0.063135390625,0.0486000537109375,1.0402966552734374
-0.32305689453124997,-0.076396015625,1.158510390625
-0.1326747265625,-0.24771415771484376,1.200290712890625
0.02074947265625,-0.2494297900390625,1.153103525390625
0.0754569921875,-0.316584541015625,1.0594664501953126
-0.13340416015625,-0.38839600830078125,1.0565172509765626
-0.148722265625,-0.39231745361328124,0.9921264013671875
-0.13583560546875,-0.3788374853515625,1.06118681640625
-0.22531279296875,-0.38300402099609376,1.095102607421875
-0.20732009765625,-0.16732452880859375,1.06315294921875
-0.209022109375,-0.19183356201171875,1.0398051220703124
-0.02204396484375,-0.38104329833984374,0.996795966796875
0.17806398437499998,-0.1396293212890625,1.0307117578125
-0.10082279296875,-0.3572695361328125,1.0289913916015625
-0.1025248046875,-0.37565131103515625,0.972219306640625
-0.1210037890625,-0.32369216064453127,0.792318154296875
-0.10471310546875,-0.29869294677734376,0.6878673486328125
-0.1443456640625,-0.34035830322265626,0.733825703125
-0.12610982421875,-0.318545263671875,0.7153932080078125
-0.14458880859375,-0.3562891748046875,0.852285205078125
-0.1151683203125,-0.414620673828125,1.0412797216796874
-0.068970859375,-0.42466937744140626,1.0383305224609374
-0.13243158203125,-0.4369238940429688,1.064627548828125
-0.12246265625,-0.2692821069335937,1.048406953125
-0.12756869140625,-0.07173929931640625,0.947642646484375
-0.04830357421875,0.06404074462890624,0.93535431640625
-0.02690685546875,0.071638544921875,1.134425263671875
0.09734,-0.09183670654296874,1.4851342041015625
-0.03298546875,0.08364797119140625,1.63922986328125
-0.18227621093750002,0.18315464599609374,1.641687529296875
-0.32305689453124997,0.0731090869140625,1.4345062841796876
-0.42177357421875,-0.0268877685546875,1.1683410546875
-0.2668905078125,-0.2455083447265625,0.92650671875
-0.09450103515625,-0.37369058837890623,0.7188339404296875
-0.02933830078125,-0.33398595458984376,0.5981625390625
0.0151571484375,-0.26487048095703125,0.6362563623046875
0.03776958984375,-0.2817817138671875,0.8574463037109374
0.06013888671875,-0.3599655297851562,1.260257763671875
-0.0179105078125,-0.49206921875,1.57139828125
-0.13680818359375,-0.5736842993164063,1.6397213964843749
-0.3359435546875,-0.200901904296875,1.5387113232421874
-0.38457246093749997,-0.1190417333984375,1.30400421875
-0.2639727734375,-0.29134023681640625,1.11427240234375
-0.0811280859375,-0.428345732421875,0.93732044921875
-0.06337853515625,-0.389131279296875,0.8210728466796875
-0.0431975390625,-0.3670731494140625,0.782487490234375
-0.032012890625,-0.3386426708984375,0.7360376025390625
-0.057299921875,-0.33888776123046876,0.7050710107421875
-0.0451426953125,-0.322466708984375,0.7227662060546876
0.0336361328125,-0.27246828125,0.8569547705078124
0.1007440234375,-0.23251855712890626,1.13196759765625
0.10925408203125,-0.19085320068359374,1.434260517578125
0.16225958984375,-0.264625390625,1.8803268994140625
0.14183544921875,-0.16536380615234375,2.129718558349609
-0.389921640625,-0.204823349609375,1.8471484082031249
-0.5567187890625,-0.25653740966796873,1.36200513671875
-0.38821962890625,-0.25261596435546874,0.8382765087890625
-0.18470765625,-0.311682734375,0.5222206591796875
-0.07748091796875001,-0.2881540625,0.3268362109375
-0.022530253906250002,-0.23104801513671874,0.1801135498046875
-0.012075039062500001,-0.22222476318359374,0.1538165234375
0.01491400390625,-0.20065681396484375,0.23860600097656248
0.05527599609375,-0.122472998046875,0.40326962402343747
0.0861553515625,-0.10850284912109374,0.8540055712890625
0.18073857421875,-0.14967802490234375,1.37380193359375
0.0871279296875,-0.39231745361328124,1.7866898242187501
-0.16647181640625,-0.5807919189453125,1.90072552734375
-0.08283009765625,-0.6249081787109375,1.6874001171875
0.02901638671875,-0.5352051171875,1.3632339697265625
-0.177899609375,-0.17075579345703126,1.080356611328125
-0.14847912109375,-0.34526010986328126,0.8392595751953125
-0.10519939453125,-0.3486913745117188,0.800182685546875
-0.13802390625,-0.27614463623046875,0.7534870312499999
0.1114423828125,-0.23693018310546876,0.7950215869140624
0.12262703125,-0.2053135302734375,0.6800028173828125
0.09515169921875,-0.2700173779296875,0.7168678076171875
-0.05413904296875,-0.304820205078125,0.7232577392578124
-0.08988128906250001,-0.2709977392578125,0.66402798828125
-0.030067734375000002,-0.03252484619140625,0.6854096826171875
-0.00891416015625,0.0270321044921875,0.8392595751953125
0.01491400390625,-0.02713285888671875,1.0457035205078125
-0.1555303125,-0.0210056005859375,1.1533492919921875
-0.103983671875,0.07825598388671876,1.33251314453125
-0.06532369140625,0.07090327392578125,1.42098912109375
-0.10568568359375,-0.110708662109375,1.47800697265625
-0.2318776953125,-0.1719812451171875,1.4443369482421875
-0.0996070703125,-0.35065209716796875,1.2285538720703124
-0.08137123046875,-0.3278586962890625,0.9783634716796875
0.0268280859375,-0.23006765380859376,0.9321593505859375
0.0287732421875,-0.2592334033203125,1.0850261767578124
-0.06410796875,-0.2692821069335937,1.0619241162109374
-0.007941582031250002,-0.1210024560546875,1.0619241162109374
-0.09790505859375,-0.25457668701171876,1.2506728662109374
-0.1774133203125,-0.29183041748046873,1.3130975830078124
-0.26761994140625,-0.2933009594726563,1.234698037109375
-0.22774423828125,-0.255802138671875,1.26959689453125
-0.177899609375,-0.4013857958984375,1.1997991796875
-0.009643593750000002,-0.23889090576171876,1.16539185546875
0.06646064453125,-0.2805562622070312,1.1449932275390624
-0.0743200390625,-0.38839600830078125,1.2924531884765624
-0.07261802734375,-0.222469853515625,1.3239113134765625
-0.01474962890625,-0.3374172192382813,1.1705529541015625
0.0132119921875,-0.2974674951171875,1.0722463134765625
0.06743322265625,-0.3334957739257812,1.0014655322265624
0.041903046875,-0.3624164331054687,1.016457294921875
-0.1754681640625,-0.38300402099609376,1.30302115234375
-0.3281629296875,-0.31364345703125,1.247477900390625
-0.4127772265625,-0.26266466796875,1.07494974609375
-0.35855599609375,-0.26389011962890624,0.7969877197265625
-0.15674603515625,-0.2964871337890625,0.60111173828125
0.054303417968750003,-0.26487048095703125,0.5713739794921875
0.038012734374999996,-0.2781053588867187,0.76036849609375
0.04749537109375,-0.21046042724609376,0.9105318896484375
0.0171023046875,-0.23006765380859376,1.0171945947265626
-0.01280447265625,-0.29281077880859374,1.1233657666015624
0.0012979101562499984,-0.3447699291992187,1.17325638671875
-0.043683828125000004,-0.39795453125,1.1184504345703126
-0.0791829296875,-0.4217282934570312,1.0152284619140626
-0.024475410156250002,-0.33545649658203125,0.871946533203125
-0.04003666015625,-0.3307997802734375,0.678773984375
-0.02155767578125,-0.28398752685546874,0.6178238671875
0.051628828125,-0.2631548486328125,0.5620348486328125
0.036067578125,-0.1788437744140625,0.7365291357421875
-0.1219763671875,-0.130315888671875,0.853268271484375
-0.11930177734375,-0.14894275390625,0.8984893261718749
-0.137051328125,-0.0817880029296875,0.99630443359375
-0.2022140625,0.0397768017578125,0.98843990234375
-0.03031087890625,-0.11291447509765624,1.0149826953125
0.032177265625,-0.01291761962890625,1.0393135888671874
-0.000890390625000001,-0.03595611083984375,0.9238032861328125
-0.033714902343750006,-0.18840229736328126,0.8825144970703125
-0.053409609375,-0.18742193603515625,1.0130165625
-0.16185207031249998,-0.29428132080078123,1.03661015625
-0.2834243359375,-0.27761517822265624,0.9154472216796875
-0.10082279296875,-0.29673222412109374,0.7498005322265625
0.04506392578125,-0.27908572021484374,0.718096640625
0.1396471484375,-0.22467566650390625,0.765283828125
0.11022666015625,-0.183255400390625,0.82721701171875
-0.05948822265625,-0.25065524169921877,0.94715111328125
-0.21655958984375,-0.31437872802734373,0.973202373046875
-0.06799828125,-0.3582498974609375,0.8380307421875
-0.0466015625,-0.2513905126953125,0.7593854296875
-0.02715,-0.22516584716796875,0.61880693359375
0.115818984375,-0.202862626953125,0.5988998388671875
0.0647586328125,-0.1376685986328125,0.8431918408203125
-0.11006228515625,-0.098944326171875,0.9604225097656249
0.04992681640625,-0.100905048828125,1.0963314404296876
0.16323216796875,-0.09183670654296874,1.379208798828125
0.2174533984375,-0.0847290869140625,1.65889119140625
0.15642412109375,0.02923791748046875,1.8921236962890624
-0.119544921875,0.1456558251953125,2.101762607421875
-0.5679034375,0.06551128662109375,1.9486500146484376
-0.61823435546875,0.08707923583984375,1.6950188818359375
-0.5761703515625,0.0358553564453125,1.5337959912109376
-0.288773515625,-0.20506843994140625,1.2231470068359376
-0.117599765625,-0.1896277490234375,0.86850580078125
0.03290669921875,-0.29771258544921875,0.9439561474609375
0.13016451171875,-0.2690370166015625,1.3376742431640625
-0.024232265625,-0.2572726806640625,1.7520367333984375
-0.20877896484375,-0.4175617578125,1.8926152294921874
-0.26372962890625,-0.43006136474609374,1.54485548828125
-0.3330258203125,-0.195019736328125,1.1801378515625
-0.2255559375,-0.33594667724609373,0.81640328125
-0.144831953125,-0.35898516845703127,0.698926845703125
-0.12829812499999999,-0.35457354248046874,0.654688857421875
-0.08744984375,-0.3511422778320312,0.67189251953125
-0.05511162109375,-0.3599655297851562,0.8200897802734375
-0.09134015625,-0.4033465185546875,0.9926179345703126
-0.119544921875,-0.45481548828125,1.092153408203125
-0.16744439453124998,-0.5222153295898437,1.1558069580078125
-0.1321884375,-0.52344078125,1.127052265625
-0.12319208984375,-0.5817722802734375,1.069542880859375
-0.12465095703125,-0.5680472216796875,1.0570087841796876
-0.07383375,-0.5082451806640625,0.9616513427734374
0.02901638671875,-0.510696083984375,0.867031201171875
-0.013290761718750002,-0.515597890625,0.92748978515625
-0.057056777343750004,-0.465599462890625,0.9599309765625
-0.207076953125,-0.1945295556640625,0.899472392578125
-0.16501294921875,-0.155805283203125,0.834590009765625
-0.1686601171875,-0.09477779052734375,0.8097675830078125
-0.15382830078125,-0.0857094482421875,0.771673759765625
-0.18397822265625,-0.0543378857421875,0.6910623144531249
-0.14118478515625,-0.07713128662109375,0.6178238671875
-0.16647181640625,-0.173451787109375,0.5812046435546875
-0.13024328125,-0.14526639892578125,0.6003744384765625
-0.0957167578125,-0.1278649853515625,0.6092220361328125
-0.18640966796875,-0.23129310546875,0.6569007568359375
-0.18349193359375,-0.2293323828125,0.77609755859375
-0.20586123046875,-0.12663953369140624,0.7979707861328125
-0.1696326953125,-0.1239435400390625,0.8058353173828126
-0.19175884765625,-0.12075736572265625,0.8913620947265625
-0.23357970703125,-0.055073156738281254,0.99433830078125
-0.341292734375,-0.0803174609375,1.0629071826171874
-0.41204779296875,-0.1116890234375,0.9685328076171875
-0.28561263671875,-0.06438658935546875,0.8078014501953125
-0.1988100390625,-0.06977857666015624,0.6455954931640625
-0.10860341796875,-0.0788469189453125,0.613400068359375
-0.10422681640625,-0.03448556884765625,0.7429190673828125
-0.14556138671875,-0.09722869384765626,0.86850580078125
-0.21218298828125,-0.15286419921875,0.9842618701171875
-0.20926525390625,-0.12418863037109375,0.97074470703125
-0.2902323828125,-0.2092349755859375,0.89013326171875
-0.28074974609375003,-0.2540865063476562,0.8884128955078126
-0.31430369140625003,-0.2494297900390625,0.8535140380859375
-0.3291355078125,-0.20016663330078124,0.7984623193359375
-0.27685943359375,-0.29795767578125,0.74463943359375
-0.22725794921875,-0.319525625,0.7886316552734375
-0.14580453125,-0.16585398681640626,0.941744248046875
-0.05657048828125,-0.18521612304687501,1.1172216015625
-0.117599765625,-0.1092381201171875,1.280410625
-0.3631757421875,-0.1641383544921875,1.3347250439453124
-0.39575710937499997,-0.0680629443359375,1.1194335009765626
-0.40937320312500003,-0.11830646240234374,0.9881941357421875
-0.38457246093749997,-0.1719812451171875,0.83704767578125
-0.3048210546875,-0.273448642578125,0.6431378271484375
-0.1832487890625,-0.15261910888671876,0.5099323291015625
-0.1608794921875,-0.1494329345703125,0.45488061035156246
-0.0762651953125,-0.11291447509765624,0.5096865625
-0.19953947265625,-0.28349734619140626,0.6328156298828125
-0.19613544921875,-0.3925625439453125,0.823776279296875
-0.16258150390625,-0.3406033935546875,1.200290712890625
0.09563798828125,-0.18546121337890625,1.6139159033203125
0.218912265625,-0.3312899609375,1.8626317041015625
0.182926875,-0.4376591650390625,2.129718558349609
0.09369283203125,-0.3484462841796875,2.129718558349609
-0.3145468359375,-0.13497260498046876,2.129718558349609
-0.65859634765625,-0.1964902783203125,2.0602280517578127
-0.70868412109375,-0.3070260180664062,1.8940898291015624
-0.77214484375,-0.2141367822265625,1.8301905126953124
-0.46748474609375,-0.2033528076171875,1.3101483837890624
-0.03225603515625,-0.18693175537109374,1.2039772119140626
0.11946615234374999,-0.22467566650390625,1.4816934716796875
0.17295794921875,-0.153844560546875,2.015744296875
0.035095,-0.0141430712890625,2.129718558349609
-0.16160892578125,-0.06683749267578125,2.129718558349609
-0.38457246093749997,0.11379408203125,1.9466838818359375
-0.58540984375,-0.1229631787109375,1.3406234423828125
-0.4789125390625,-0.1979608203125,0.8933282275390625
-0.3495596484375,-0.32516270263671876,0.6254426318359375
-0.247925234375,-0.35261281982421877,0.4386600146484375
-0.210967265625,-0.3347212255859375,0.4022865576171875
-0.181789921875,-0.32565288330078124,0.3609977685546875
-0.18835482421875,-0.3219765283203125,0.26858952636718747
-0.189570546875,-0.3396230322265625,0.3914728271484375
-0.22701480468750002,-0.4043268798828125,0.5246783251953124
-0.1871391015625,-0.46976599853515627,0.5640009814453125
-0.15869119140625,-0.5307934912109376,0.677299384765625
-0.15917748046875,-0.5658414086914062,0.685163916015625
-0.1788721875,-0.6356921533203125,0.743164833984375
-0.1793584765625,-0.7246599438476562,0.9324051171875
-0.160393203125,-0.70186654296875,0.8112421826171875
-0.18495080078125,-0.6687793481445312,0.7670041943359375
-0.21023783203125002,-0.6219670947265625,0.6453497265625
-0.187625390625,-0.5099608129882812,0.48904216796875
-0.15747546875,-0.4592271142578125,0.43472774902343747
-0.1939471484375,-0.4494235009765625,0.450211044921875
-0.16841697265625,-0.40800323486328127,0.518042626953125
-0.12805498046875,-0.20751934326171875,0.5905437744140625
-0.14069849609375001,-0.09624833251953124,0.8191067138671875
-0.156502890625,-0.0033590966796874996,0.8200897802734375
-0.21972046875,0.07874616455078125,0.893573994140625
-0.30214646484375,0.13854820556640626,1.0014655322265624
-0.361716875,0.19736988525390625,1.1014925390624999
-0.39454138671875,0.24320177734375,1.0545511181640626
-0.3811684375,0.24246650634765626,0.9262609521484375
-0.35272052734375,0.199085517578125,0.7247323388671875
-0.36244630859375,0.16648850341796875,0.6102051025390625
-0.378250703125,0.14443037353515625,0.5698993798828125
-0.3806821484375,0.0623251123046875,0.5256613916015624
-0.42517759765625,-0.027868129882812502,0.42440555175781247
-0.40256515625,-0.10752248779296875,0.379921796875
-0.2970404296875,-0.2513905126953125,0.36320966796875
-0.2513292578125,-0.2513905126953125,0.3664046337890625
-0.271267109375,-0.2886442431640625,0.4558636767578125
-0.3184371484375,-0.3425641162109375,0.57555201171875
-0.3865176171875,-0.4153559448242187,0.7507835986328125
-0.46602587890625,-0.489128134765625,0.855234404296875
-0.57057802734375,-0.5121666259765625,1.0226014599609374
-0.5664445703125,-0.5462341821289063,1.12606919921875
-0.35563826171875,-0.4729521728515625,1.1572815576171875
-0.1920019921875,-0.32565288330078124,1.1651460888671874
-0.11298001953125,-0.3200158056640625,1.146222060546875
-0.06751199218750001,-0.324427431640625,1.230765771484375
-0.12440781249999999,-0.3663378784179688,1.2290454052734374
-0.2095083984375,-0.3023693017578125,1.2029941455078126
-0.33181009765625,-0.31290818603515624,1.1248403662109374
-0.37460353515625,-0.19281392333984376,1.1754682861328125
-0.58419412109375,-0.2259011181640625,1.2605035302734375
-0.68096564453125,-0.33839758056640623,1.1538408251953125
-0.5528284765625,-0.29771258544921875,0.9665666748046875
-0.329621796875,-0.25457668701171876,0.7866655224609375
-0.2099946875,-0.191098291015625,0.78199595703125
-0.284883203125,-0.4396198876953125,0.82525087890625
-0.341292734375,-0.44721768798828127,0.8830060302734375
-0.25497642578125,-0.43986497802734376,0.9410069482421874
-0.11395259765625,-0.3423190258789062,0.9911433349609375
-0.039793515625,-0.30065366943359373,1.1710444873046875
-0.32548833984375003,-0.25261596435546874,1.3902682958984376
-0.60121423828125,-0.2151171435546875,1.3484879736328126
-0.7453989453125,-0.1798241357421875,1.1759598193359375
-0.660298359375,-0.200901904296875,0.976151572265625
-0.566930859375,-0.210705517578125,0.746114033203125
-0.479398828125,-0.1964902783203125,0.6075016699218749
-0.33983386718749997,-0.24967488037109375,0.583908076171875
-0.2104809765625,-0.3258979736328125,0.696960712890625
-0.31673513671875,-0.45849184326171877,0.9562444775390625
-0.38505875,-0.465599462890625,1.179646318359375
-0.3904079296875,-0.46045256591796874,1.4074719580078126
-0.3096839453125,-0.34182884521484375,1.5269145263671875
-0.26032560546875,-0.33300559326171875,1.61367013671875
-0.51416849609375,-0.3170747216796875,1.5952376416015626
-0.5975670703125,-0.1435507666015625,1.4728458740234376
-0.732269140625,-0.36437715576171875,1.282868291015625
-0.63087787109375,-0.21144078857421875,1.17817171875
-0.35806970703125,-0.1396293212890625,1.010558896484375
-0.18227621093750002,-0.20849970458984374,1.027271025390625
-0.1725504296875,-0.47172672119140624,1.1081282373046875
-0.1667149609375,-0.39721926025390625,1.14573052734375
-0.36463460937500003,-0.3435444775390625,1.200290712890625
-0.4594609765625,-0.45604093994140626,1.196358447265625
-0.32548833984375003,-0.30506529541015626,1.2260962060546876
-0.42615017578125003,-0.31143764404296875,1.1346710302734375
-0.284883203125,-0.27614463623046875,1.0437373876953124
-0.327676640625,-0.32148634765625,0.970253173828125
-0.30798193359375,-0.200901904296875,0.9739396728515625
-0.36366203125,-0.32026089599609375,1.038084755859375
-0.3748466796875,-0.25090033203125,1.12410306640625
-0.4156949609375,-0.2798209912109375,1.1410609619140626
-0.2464663671875,-0.29624204345703126,0.9999909326171875
-0.21461443359375,-0.35677935546875,0.84491220703125
-0.1997826171875,-0.3847196533203125,0.7748687255859374
-0.2075632421875,-0.30114385009765626,0.72202890625
-0.1725504296875,-0.15605037353515624,0.7325968701171874
-0.21121041015625,-0.3553088134765625,0.8576920703124999
-0.39113736328125,-0.4170715771484375,0.9717277734375
-0.54918130859375,-0.27246828125,0.9120064892578125
-0.4400094140625,-0.2582530419921875,0.6957318798828125
-0.40329458984375,-0.36658296875,0.6106966357421875
-0.35758341796875,-0.24109671875,0.5856284423828125
-0.2202067578125,-0.128355166015625,0.6047982373046875
-0.2357680078125,-0.0925719775390625,0.7222746728515625
-0.39600025390625,-0.275409365234375,0.8655566015625
-0.4079143359375,-0.295016591796875,0.9365831494140625
-0.26907880859375,-0.27957590087890627,0.92355751953125
-0.3184371484375,-0.07517056396484376,0.928964384765625
-0.2999581640625,-0.2555570483398438,0.928964384765625
-0.33326896484375,-0.195019736328125,1.1054248046875
-0.62820328125,-0.26830174560546877,1.11623853515625
-0.63136416015625,-0.07419020263671874,1.1553154248046875
-0.48207341796875003,-0.2611941259765625,1.0796193115234376
-0.45678638671875,-0.32418234130859375,1.1931634814453125
-0.38627447265625,-0.20653898193359374,1.14573052734375
-0.3602580078125,-0.3508971875,0.9542783447265625
-0.24670951171875,-0.2317832861328125,1.005643564453125
-0.25594900390624997,-0.20408807861328124,0.966320908203125
-0.15334201171875,-0.3739356787109375,0.9768888720703125
-0.35977171875,-0.5356952978515624,0.9631259423828125
-0.46529644531250003,-0.499912109375,0.8564632373046875
-0.082586953125,-0.287173701171875,0.98647376953125
0.0003253320312500002,-0.34280920654296876,1.3465218408203126
-0.33618669921875,-0.6043205908203125,1.3774884326171875
-0.44025255859375,-0.6611815478515625,1.41115845703125
-0.51027818359375,-0.47417762451171874,1.16145958984375
-0.450221484375,-0.22075422119140625,0.941744248046875
-0.27394169921875,-0.144040947265625,0.8810398974609375
-0.39745912109375,-0.37369058837890623,1.1872650830078124
-0.24038775390625,-0.3523677294921875,1.3067076513671876
-0.26956509765625,-0.28104644287109376,1.3573355712890625
-0.09912078125,-0.3670731494140625,1.418531455078125
-0.17571130859375,-0.4567762109375,1.38264953125
-0.450221484375,-0.3991799829101563,1.3361996435546875
-0.5722800390625,-0.481285244140625,1.1833328173828126
-0.557205078125,-0.4749128955078125,1.0747039794921875
-0.59197474609375,-0.390111640625,0.97860923828125
-0.5411575390625,-0.3952585375976562,0.9056165576171875
-0.50249755859375,-0.27418391357421873,0.8702261669921875
-0.304334765625,-0.14771730224609375,0.7694618603515625
-0.30652306640625,-0.0964934228515625,0.665502587890625
-0.17522501953125,-0.15359947021484374,0.6846723828125
-0.18300564453125,-0.11095375244140625,0.7866655224609375
-0.40669861328125,-0.20702916259765625,0.842454541015625
-0.27491427734375,-0.3513873681640625,0.8078014501953125
-0.384086171875,-0.491088857421875,0.8313950439453125
-0.30214646484375,-0.4611878369140625,0.7714279931640625
-0.2795340234375,-0.47613834716796877,0.7591396630859375
-0.33229638671875,-0.549910537109375,0.8181236474609375
-0.35417939453125,-0.5761352026367188,0.68270625
-0.41107521484375,-0.5494203564453125,0.6910623144531249
-0.39891798828125,-0.5393716528320313,0.616349267578125
-0.3067662109375,-0.53716583984375,0.543602353515625
-0.28998923828125,-0.3991799829101563,0.6274087646484375
-0.36050115234375,-0.437168984375,0.384345595703125
-0.15625974609374998,-0.39084691162109375,0.332243076171875
-0.1317021484375,-0.34722083251953123,0.2243515380859375
-0.13729447265625,-0.338152490234375,0.23836023437499998
-0.08963814453125,-0.33888776123046876,0.2835812890625
-0.237226875,-0.4670700048828125,0.6342902294921875
-0.41739697265625,-0.58030173828125,0.8498275390625
-0.47866939453125,-0.6562797412109375,1.0457035205078125
-0.5518558984375,-0.671475341796875,1.021372626953125
-0.3578265625,-0.6614266381835937,0.87243806640625
-0.172064140625,-0.47834416015625,0.8643277685546875
-0.38141158203125003,-0.5430480078125,0.6854096826171875
-0.1997826171875,-0.31756490234375,0.5128815283203125
-0.15747546875,-0.244037802734375,0.3831167626953125
-0.207076953125,-0.31045728271484374,0.293411953125
-0.15869119140625,-0.37614149169921873,0.2567927294921875
-0.22628537109375,-0.2999183984375,0.45512637695312497
-0.32937865234375,-0.2327636474609375,0.6367478955078125
-0.42615017578125003,-0.21536223388671874,0.8338527099609375
-0.54674986328125,-0.15556019287109374,1.04939001953125
-0.5401849609375,-0.2102153369140625,1.1010010058593749
-0.5440752734375,-0.3133983666992187,1.146222060546875
-0.5839509765625,-0.23447927978515626,0.9552614111328125
-0.26227076171875,-0.153844560546875,0.7822417236328125
-0.1248941015625,-0.19134338134765624,0.7311222705078125
-0.12829812499999999,-0.10801266845703125,0.8535140380859375
-0.2921775390625,-0.0141430712890625,0.9324051171875
-0.18081734375,0.03610044677734375,1.0343982568359376
-0.42931105468749997,-0.3200158056640625,1.1135351025390625
-0.4565432421875,-0.204823349609375,0.938303515625
-0.4487626171875,-0.075415654296875,0.6741044189453125
-0.419098984375,-0.15752091552734376,0.50083896484375
-0.30700935546875,-0.0817880029296875,0.5821877099609375
-0.43490337890624997,-0.21095060791015624,0.79182662109375
-0.51538421875,-0.26879192626953125,0.9559987109375
-0.41034578125,-0.07026875732421875,0.9906518017578125
-0.19662173828125,-0.25874322265625,0.9793465380859375
-0.34153587890625,-0.445992236328125,1.079373544921875
-0.44851947265625003,-0.565596318359375,0.9872110693359375
-0.28609892578125,-0.38226875,0.9405154150390624
-0.1866528125,-0.23104801513671874,1.05233921875
-0.187625390625,-0.3575146264648438,1.2142994091796875
-0.39745912109375,-0.3660927880859375,1.4160737890625
-0.4721044921875,-0.46780527587890625,1.45441337890625
-0.5849235546875,-0.30751619873046876,1.44065044921875
-0.53653779296875,-0.289134423828125,1.43475205078125
-0.59002958984375,-0.43202208740234377,1.5844239111328124
-0.43247193359375,-0.20776443359375,1.67462025390625
-0.28585578125,-0.27442900390625,1.7721895947265625
-0.12319208984375,-0.20261753662109375,1.9186664892578125
-0.09061072265625,-0.35457354248046874,1.948404248046875
-0.018396796875,-0.3928076342773438,1.9638875439453125
-0.2571647265625,-0.0964934228515625,1.9339040185546874
-0.42274615234375,-0.0023787353515625003,1.8476399414062499
-0.4215304296875,-0.07958218994140626,2.0366344580078124
-0.5129527734375,-0.45015877197265625,2.129718558349609
-0.5995122265625,-0.23398909912109375,2.129718558349609
-0.63768591796875,-0.0161037939453125,2.129718558349609
-0.72546109375,-0.36584769775390624,1.55861841796875
-0.41447923828125,-0.41388540283203124,1.347750673828125
-0.203186640625,-0.51363716796875,1.0865007763671874
-0.03687578125,-0.571478486328125,1.144255927734375
-0.0529233203125,-0.6109380297851562,1.3322673779296874
-0.18106048828125,-0.6690244384765625,1.354632138671875
-0.30166017578125,-0.6638775415039062,1.1307387646484375
-0.46942990234375,-0.608732216796875,1.005643564453125
-0.5061447265625,-0.5555476147460937,0.8891501953125
-0.52924345703125,-0.5837330029296875,0.850319072265625
-0.485234296875,-0.6369176049804688,0.737266435546875
-0.4263933203125,-0.6138791137695313,0.66009572265625
-0.38238416015625,-0.5815271899414063,0.55392455078125
-0.34104958984375,-0.5359403881835938,0.4647112744140625
-0.300444453125,-0.5195193359375,0.3968796923828125
-0.31916658203125,-0.49084376708984373,0.409905322265625
-0.38432931640625,-0.3709945947265625,0.44455841308593746
-0.38457246093749997,-0.291095146484375,0.3782014306640625
-0.35709712890625,-0.2151171435546875,0.352887470703125
-0.34883021484375,-0.1935491943359375,0.3782014306640625
-0.36779548828124997,-0.2190385888671875,0.357802802734375
-0.37411724609375,-0.21952876953125,0.3968796923828125
-0.41034578125,-0.17859868408203125,0.5060000634765625
-0.467727890625,-0.1464918505859375,0.6116797021484375
-0.49885039062500003,-0.1259042626953125,0.681231650390625
-0.54529099609375,-0.06536695068359374,0.690079248046875
-0.57495462890625,-0.00948635498046875,0.6510023583984375
-0.48255970703125,0.0270321044921875,0.6485446923828125
-0.438550546875,0.0936966748046875,0.67385865234375
-0.40232201171875,0.1142842626953125,0.6480531591796875
-0.37752126953125,0.12188206298828125,0.550483818359375
-0.4254207421875,0.04443351806640625,0.450702578125
-0.45727267578124997,-0.10997339111328125,0.3339634423828125
-0.39405509765625,-0.19379428466796875,0.2798947900390625
-0.39600025390625,-0.232273466796875,0.285547421875
-0.35855599609375,-0.2920755078125,0.379921796875
-0.3456693359375,-0.3548186328125,0.482160703125
-0.38505875,-0.37369058837890623,0.5625263818359375
-0.4098594921875,-0.28594824951171877,0.6020948046875
-0.368524921875,-0.14281549560546875,0.64240052734375
-0.27199654296875,-0.083258544921875,0.783470556640625
-0.27029453125,-0.0180645166015625,0.8893959619140624
-0.6675926953125,-0.1337471533203125,0.84884447265625
-0.6724555859375,-0.23791054443359375,0.656654990234375
-0.48888146484375,-0.21952876953125,0.43890578125
-0.20099833984375,-0.13105115966796876,0.38680326171875
-0.14969484375,-0.34526010986328126,0.39171859375
-0.10617197265625,-0.34329938720703124,0.5443396533203125
-0.15480087890625,-0.33594667724609373,0.8599039697265625
-0.35563826171875,-0.3952585375976562,0.8923451611328125
-0.43247193359375,-0.41486576416015625,0.9272440185546875
-0.559150234375,-0.21732295654296874,0.968287041015625
-0.2581373046875,-0.2717330102539062,0.8559717041015625
-0.07359060546875,-0.3004085791015625,0.93437125
-0.31235853515625,-0.16585398681640626,1.02088109375
-0.6432782421875,-0.17369687744140624,0.8874298291015625
-0.5858961328125,-0.25874322265625,0.61192546875
-0.47818310546875,-0.28153662353515624,0.416786787109375
-0.35223423828125,-0.179333955078125,0.356328203125
-0.21169669921875,-0.093062158203125,0.5246783251953124
-0.224583359375,-0.0827683642578125,0.7529954980468749
-0.37265837890625,-0.1626678125,1.0653648486328124
-0.41545181640625,-0.08399381591796876,1.3037584521484376
-0.1103054296875,-0.083258544921875,1.5165923291015626
0.0112668359375,0.01845394287109375,1.78275755859375
-0.11589775390625,0.0686974609375,2.0769401806640624
-0.54140068359375,-0.2805562622070312,1.8252751806640626
-0.7249748046875,-0.198941181640625,1.2850801904296876
-0.69433859375,-0.19869609130859375,0.9719735400390626
-0.22579908203125,-0.09012107421875,1.070525947265625
-0.23747001953125,-0.049926259765625,1.703620712890625
-0.5810332421875,-0.4523645849609375,1.7306550390625
-0.587355,-0.30604565673828127,1.31678408203125
-0.38773333984375,-0.15654055419921875,0.778555224609375
-0.36974064453125,-0.39795453125,0.5556449169921875
-0.29825615234375,-0.4594722045898437,0.4711012060546875
-0.3072525,-0.5055491870117188,0.781012890625
-0.24087404296875,-0.40383669921875,1.2206893408203126
-0.41423609375,-0.3611909814453125,1.3381657763671875
-0.79937703125,-0.3758964013671875,1.38363259765625
-0.70625267578125,-0.4151108544921875,0.9601767431640625
-0.62601498046875,-0.37172986572265626,0.8112421826171875
-0.48353228515625,-0.16462853515625,0.752012431640625
-0.29582470703125,-0.0411030078125,0.8721922998046875
-0.2411171875,-0.0567887890625,1.0137538623046876
-0.300444453125,-0.08987598388671875,1.2801648583984375
-0.3320532421875,-0.15752091552734376,1.3902682958984376
-0.30457791015625,-0.17320669677734374,1.535516357421875
-0.32475890625,-0.0327699365234375,1.54092322265625
-0.547479296875,-0.08399381591796876,1.2555881982421875
-0.2795340234375,-0.28006608154296875,1.12803533203125
-0.61483033203125,-0.2611941259765625,1.1405694287109376
-0.7395634765625,-0.083258544921875,0.9493630126953125
-0.4045103125,-0.0857094482421875,0.855234404296875
-0.21266927734375,-0.14330567626953125,0.7952673535156249
-0.302389609375,-0.23742036376953124,0.9021758251953125
-0.31770771484375,-0.1749223291015625,0.9159387548828125
-0.25497642578125,-0.2516356030273437,0.871946533203125
-0.376305546875,-0.18987283935546875,0.88030259765625
-0.3184371484375,-0.11683592041015625,0.7768348583984375
-0.20488865234375,-0.2817817138671875,0.8068183837890625
-0.4254207421875,-0.20898988525390624,0.9442019140625
-0.53070232421875,-0.0033590966796874996,0.980083837890625
-0.51757251953125,-0.0006631030273437505,0.8309035107421875
-0.469673046875,0.0368357177734375,0.790352021484375
-0.36755234375,0.06649164794921875,0.8810398974609375
-0.36196001953125,0.09737302978515625,1.0461950537109375
-0.44073884765625,-0.06879821533203125,1.164900322265625
-0.34688505859375,0.020659755859375,1.15949345703125
-0.29242068359375,0.12090170166015625,1.056763017578125
-0.25789416015625,0.01110123291015625,0.9763973388671875
-0.4273658984375,-0.1082577587890625,1.0909245751953125
-0.64838427734375,-0.1273748046875,0.945676513671875
-0.5557462109375,-0.02713285888671875,0.8033776513671875
-0.44997833984375,-0.0190448779296875,0.7323511035156249
-0.44292714843750003,-0.1161006494140625,0.778555224609375
-0.40062,-0.030319033203124998,0.8559717041015625
-0.43538966796875,0.01453249755859375,0.799199619140625
-0.30919765625,-0.06830803466796875,0.6296206640625
-0.14361623046875,-0.1116890234375,0.693028447265625
-0.090367578125,-0.1651187158203125,0.7753602587890625
-0.22482650390625,-0.1710008837890625,0.87931953125
-0.343237890625,-0.02419177490234375,1.0702801806640625
-0.33910443359375,0.10864718505859375,1.0845346435546874
-0.33108066406250003,0.15129290283203126,1.191443115234375
-0.48742259765625,0.01257177490234375,1.2688595947265624
-0.5112507617187501,-0.0641414990234375,1.319241748046875
-0.590272734375,-0.04330882080078125,1.249444033203125
-0.5523421875,0.04639424072265625,1.06905134765625
-0.3476144921875,-0.0033590966796874996,0.7593854296875
-0.298499296875,0.0270321044921875,0.6490362255859374
-0.17911533203125,-0.01585870361328125,0.6052897705078125
-0.02398912109375,-0.10458140380859375,0.766758427734375
-0.22701480468750002,-0.1190417333984375,1.058729150390625
-0.34250845703125,-0.2160975048828125,1.114763935546875
-0.45532751953125,-0.11928682373046876,1.1164843017578125
-0.49179919921875,0.02874773681640625,1.124594599609375
-0.564985703125,-0.1151202880859375,0.9646005419921875
-0.506631015625,-0.17614778076171875,0.8687515673828125
-0.43052677734375,-0.09722869384765626,0.648790458984375
-0.23819945312500002,-0.18987283935546875,0.5079661962890625
-0.18081734375,-0.06879821533203125,0.5042796972656249
-0.308225078125,-0.0190448779296875,0.59914560546875
-0.14069849609375001,-0.09526797119140624,0.735300302734375
-0.2464663671875,-0.1170810107421875,0.9011927587890625
-0.471618203125,-0.03546593017578125,0.9621428759765625
-0.34980279296875,-0.0651218603515625,1.099034873046875
-0.566930859375,-0.11144393310546875,1.23027423828125
-0.72546109375,-0.00581,1.1005094726562499
-0.51805880859375,0.012816865234374999,0.8485987060546875
-0.28512634765625,-0.120512275390625,0.6510023583984375
-0.13534931640625,-0.20457825927734374,0.548517685546875
-0.24281919921875,-0.15850127685546875,0.5944760400390625
-0.2878009375,-0.10458140380859375,0.6490362255859374
-0.31235853515625,-0.07909200927734375,0.7149016748046875
-0.3923530859375,0.008895419921875,0.769707626953125
-0.34834392578125,0.0525214990234375,0.8891501953125
-0.4351465234375,0.071638544921875,0.9921264013671875
-0.48888146484375,0.0760501708984375,0.93142205078125
-0.49885039062500003,0.08413815185546875,0.8476156396484374
-0.46019041015625,0.0686974609375,0.7325968701171874
-0.36828177734375,0.0378160791015625,0.6657483544921875
-0.237226875,-0.12933552734375,0.6701721533203124
-0.1005796484375,-0.17565760009765624,0.8348357763671875
-0.47769681640625,-0.091101435546875,0.9972875
-0.32840607421875,-0.095022880859375,0.9501003125
-0.23552486328125,0.03806116943359375,1.0228472265625
-0.50930560546875,0.0829127001953125,0.91569298828125
-0.4059691796875,0.0995788427734375,0.8800568310546875
-0.203186640625,0.08609887451171874,0.875878798828125
-0.23844259765625,0.13707766357421874,0.909303056640625
-0.33229638671875,0.06453092529296875,1.01399962890625
-0.3641483203125,-0.0249270458984375,1.1508916259765625
-0.29752671875000003,-0.01830960693359375,1.18898544921875
-0.41496552734375003,0.0037485229492187503,1.28532595703125
-0.426879609375,0.14345001220703124,1.284342890625
-0.532890625,0.0231106591796875,1.2253589062499999
-0.45435494140625,0.128499501953125,1.1730106201171875
-0.4225030078125,-0.1180613720703125,1.0284998583984375
-0.2892598046875,0.1221271533203125,1.0142453955078126
-0.5392123828125,-0.0063001806640625,0.838522275390625
-0.3203823046875,-0.08963089355468751,0.66402798828125
-0.232363984375,-0.20261753662109375,0.598654072265625
-0.31770771484375,-0.1788437744140625,0.684180849609375
-0.37898013671874997,0.0044837939453125,0.85081060546875
-0.4001337109375,-0.015368522949218751,1.052830751953125
-0.40913005859375,0.02335574951171875,1.1641630224609374
-0.3855450390625,-0.08963089355468751,1.3794545654296875
-0.481343984375,0.02776737548828125,1.5411689892578124
-0.5110076171875,0.07457962890625,1.48193923828125
-0.45824525390625,-0.085219267578125,1.2216724072265626
-0.51173705078125,0.014777587890624999,1.0928907080078125
-0.60097109375,0.046149150390625,0.9650920751953125
-0.45338236328125,-0.1092381201171875,0.8254966455078125
-0.08915185546875,-0.13350206298828124,0.8987350927734374
-0.3271903515625,0.00791505859375,1.1445016943359374
-0.67367130859375,-0.03938737548828125,1.129509931640625
-0.70236236328125,0.0093856005859375,1.0004824658203124
-0.545534140625,0.05521749267578125,0.8431918408203125
-0.27929087890625,0.02090484619140625,0.699909912109375
-0.10130908203125,0.0289928271484375,0.9021758251953125
-0.1521262890625,-0.0053198193359375,1.1277895654296874
-0.53994181640625,0.02139502685546875,1.2811479248046875
-0.62698755859375,0.089285048828125,1.247477900390625
-0.39551396484375,0.11845079833984375,1.21257904296875
-0.30749564453125,0.14786163818359374,1.392971728515625
-0.59975537109375,0.09541230712890625,1.4369639501953124
-0.52316484375,0.06992291259765625,1.296631220703125
-0.644737109375,0.0456589697265625,0.9464138134765625
-0.4176401171875,-0.08693489990234375,0.6915538476562499
-0.14847912109375,-0.08154291259765625,0.5689163134765625
-0.05024873046875,-0.02468195556640625,0.6964691796875
-0.09450103515625,0.0397768017578125,0.913235322265625
-0.60899486328125,-0.13840386962890625,1.0407881884765624
-0.590272734375,-0.19428446533203125,0.8618701025390625
-0.4769673828125,0.04296297607421875,0.7556989306640625
-0.3811684375,0.1000690234375,0.6441208935546875
-0.3553951171875,0.11845079833984375,0.7665126611328125
-0.50201126953125,0.1378129345703125,0.9874568359375
-0.56425626953125,0.11207844970703125,1.0184234277343749
-0.465782734375,-0.01953505859375,0.965829375
-0.36098744140625,0.06600146728515625,0.750046298828125
-0.403537734375,0.08756941650390625,0.6291291308593749
-0.24695265625,0.01698340087890625,0.609467802734375
-0.33132380859375,-0.06977857666015624,0.713672841796875
-0.23601115234375,-0.0006631030273437505,0.9577190771484375
-0.4448723046875,0.0927163134765625,1.01596576171875
-0.44073884765625,0.044188427734375,0.875878798828125
-0.2377131640625,0.08903995849609375,0.9166760546875
-0.4088869140625,-0.03105430419921875,0.8117337158203125
-0.331566953125,-0.09918941650390625,0.788385888671875
-0.47040248046875,-0.05360261474609375,0.787402822265625
-0.50784673828125,-0.03742665283203125,0.8333611767578125
-0.48815203125,0.0623251123046875,0.694994580078125
-0.181789921875,0.11845079833984375,0.7139186083984375
-0.26178447265625,0.02360083984375,0.8702261669921875
-0.3184371484375,-0.11561046875,0.984016103515625
-0.18592337890625,0.03217900146484375,1.06905134765625
-0.41058892578125,0.12678386962890625,1.031203291015625
-0.57689978515625,0.0966377587890625,0.9763973388671875
-0.5265688671875,0.03364954345703125,0.887675595703125
-0.47866939453125,0.021885207519531248,0.9835245703125
-0.39162365234375,0.128499501953125,1.0388220556640624
-0.5674171484375,0.01257177490234375,1.105916337890625
-0.52097654296875,0.124578056640625,1.1975872802734375
-0.49714837890625,0.17090012939453125,0.962388642578125
-0.3573402734375,-0.030319033203124998,0.717605107421875
-0.19662173828125,0.0878145068359375,0.7021218115234376
-0.23066197265625,0.0451687890625,0.6328156298828125
-0.209022109375,-0.17222633544921875,0.7711822265625
-0.3291355078125,-0.10311086181640625,1.0904330419921875
-0.5362946484375,-0.00997653564453125,1.2079094775390624
-0.6690515625,-0.122472998046875,1.1789090185546875
-0.58613927734375,-0.083258544921875,1.105916337890625
-0.4156949609375,0.081442158203125,1.0221099267578124
-0.242089765625,-0.04379900146484375,1.097068740234375
-0.358799140625,-0.1641383544921875,1.12213693359375
-0.25643529296875,0.02776737548828125,1.25386783203125
-0.4448723046875,0.10987263671875,1.070525947265625
-0.41934212890625,-0.05997496337890625,0.8938197607421875
-0.24768208984375,-0.055073156738281254,0.80362341796875
-0.426879609375,0.0711483642578125,0.812471015625
-0.32281375,0.0201695751953125,0.933879716796875
-0.30871136718750003,0.07090327392578125,1.1425355615234376
-0.51027818359375,-0.144040947265625,1.248460966796875
-0.4847480078125,0.081442158203125,1.3538948388671874
-0.426879609375,0.17972338134765625,1.1941465478515625
-0.46116298828125,0.0255615625,1.0098215966796875
-0.42420501953125,0.093206494140625,1.0860092431640624
-0.29047552734375,0.0721287255859375,0.970253173828125
-0.34931650390625,0.0515411376953125,0.99827056640625
-0.18470765625,0.0760501708984375,0.9297016845703125
-0.23114826171875,-0.09820905517578125,0.845403740234375
-0.354908828125,-0.177373232421875,0.9085657568359375
-0.49666208984375,-0.16854998046875,0.917167587890625
-0.59829650390625,-0.18987283935546875,0.7999369189453125
-0.57495462890625,-0.12958061767578125,0.69351998046875
-0.5489381640625,-0.155805283203125,0.5379497216796875
-0.44146828125,-0.157766005859375,0.43595658203125
-0.24427806640625,-0.030073942871093752,0.5030508642578125
-0.21753216796875,0.06306038330078124,0.596687939453125
-0.2649453515625,0.138303115234375,0.8026403515625
-0.1676875390625,0.16060633544921876,1.028745625
-0.28998923828125,0.12335260498046875,1.3917428955078126
-0.67367130859375,0.0633054736328125,1.57827974609375
-0.62698755859375,0.0456589697265625,1.27549529296875
-0.4667553125,-0.0513968017578125,0.933879716796875
-0.14750654296875,-0.0249270458984375,0.7448852001953125
0.0039725,-0.0994345068359375,0.766758427734375
-0.1871391015625,-0.10727739746093751,0.9520664453125
-0.55647564453125,-0.12933552734375,0.9724650732421874
-0.6617572265625,-0.106787216796875,0.8918536279296875
-0.57762921875,-0.0347306591796875,0.61192546875
-0.30992708984375,0.09688284912109375,0.5423735205078125
-0.1346198828125,0.08070688720703124,0.579975810546875
-0.13194529296875,0.07850107421875,0.6092220361328125
-0.1492085546875,0.09443194580078125,0.702859111328125
-0.1725504296875,0.1260485986328125,0.80165728515625
-0.26810623046875,0.20717349853515626,1.074458212890625
-0.59148845703125,0.17090012939453125,1.2954023876953125
-0.69555431640625,0.26673044921875,1.29319048828125
-0.5732526171875,0.32555212890625,1.171781787109375
-0.57179375,0.32481685791015624,1.19291771484375
-0.4896108984375,0.31158197998046877,0.9616513427734374
-0.2630001953125,0.2525152099609375,0.83213234375
-0.29290697265625,0.1946738916015625,0.7463597998046875
-0.206104375,0.08854977783203125,0.687130048828125
-0.31770771484375,0.13070531494140625,0.8554801708984375
-0.43174250000000003,0.1133039013671875,1.0621698828125
-0.32354318359375,-0.0411030078125,1.275986826171875
-0.4273658984375,-0.00213364501953125,1.4871003369140625
-0.6870442578125,0.17139031005859376,1.34430994140625
-0.5499107421875,0.067717099609375,1.0260421923828125
-0.49957982421875,-0.07713128662109375,0.9174133544921875
-0.461892421875,0.08070688720703124,0.8933282275390625
-0.32548833984375003,-0.02125069091796875,0.80558955078125
-0.1399690625,-0.09918941650390625,0.730384970703125
-0.216802734375,-0.16928525146484374,0.6534600244140625
-0.36633662109375,0.0270321044921875,0.658621123046875
-0.30895451171875,-0.03644629150390625,0.8869382958984375
-0.30263275390625,-0.08350363525390625,1.0933822412109375
-0.56206796875,0.13952856689453125,1.3067076513671876
-0.607779140625,0.246142861328125,1.2958939208984375
-0.40937320312500003,0.21991819580078126,1.2664019287109376
-0.475508515625,0.2811907788085938,1.147205126953125
-0.3476144921875,0.09639266845703125,1.2113502099609375
-0.53410634765625,0.042227705078125,1.312360283203125
-0.30798193359375,0.10570610107421875,1.282868291015625
-0.31770771484375,0.07041309326171875,1.238630302734375
-0.32354318359375,0.12090170166015625,1.1538408251953125
-0.45435494140625,-0.03350520751953125,0.9164302880859375
-0.47623794921875,-0.08693489990234375,0.6677144873046875
-0.294608984375,-0.03742665283203125,0.5502380517578125
-0.413263515625,-0.17663796142578125,0.473804638671875
-0.4789125390625,-0.14624676025390626,0.4769996044921875
-0.49860724609375,-0.11046357177734376,0.473804638671875
-0.415208671875,-0.0327699365234375,0.4470160791015625
-0.28512634765625,0.0765403515625,0.5635094482421875
-0.228473671875,0.0348749951171875,0.762826162109375
-0.207076953125,0.05276658935546875,1.0307117578125
-0.26129818359375,0.12947986328125,1.34430994140625
-0.53872609375,0.08168724853515624,1.60383947265625
-0.6850991015625,0.07384435791015626,1.618093935546875
-0.461892421875,0.13756784423828125,1.3086737841796876
-0.35272052734375,0.104970830078125,1.1277895654296874
-0.4195852734375,0.07457962890625,1.0825685107421874
-0.4896108984375,0.03610044677734375,1.05725455078125
-0.46116298828125,-0.09796396484375,0.8923451611328125
-0.5236511328125,-0.048945898437499996,0.64633279296875
-0.3952708203125,-0.0376717431640625,0.507228896484375
-0.20051205078125,-0.006790361328125,0.43792271484375
-0.20732009765625,-0.08203309326171875,0.4691350732421875
-0.3865176171875,-0.13007079833984375,0.5964421728515625
-0.543588984375,-0.10065995849609374,0.6883588818359375
-0.51538421875,0.057913486328125,0.7134270751953125
-0.1735230078125,0.07531489990234375,0.7753602587890625
-0.033958046875,0.1211467919921875,1.0284998583984375
-0.209022109375,0.2632991845703125,1.4502353466796876
-0.691420859375,0.12580350830078124,1.398870126953125
-0.69263658203125,0.22187891845703125,1.2098756103515624
-0.51538421875,0.111833359375,0.9847534033203125
-0.1910294140625,-0.0175743359375,1.0592206835937499
-0.144831953125,0.03217900146484375,1.1420440283203126
-0.2095083984375,0.03536517578125,1.1081282373046875
-0.6364701953125,0.01698340087890625,0.9940925341796875
-0.501768125,0.011346323242187501,0.83213234375
-0.411318359375,0.1280093212890625,0.7832247900390625
-0.4939875,0.12139188232421876,0.797233486328125
-0.4604335546875,0.19246807861328125,0.8195982470703125
-0.22920310546875,0.13805802490234376,0.6834435498046875
-0.41107521484375,0.06894255126953125,0.6097135693359375
-0.40475345703125,0.09026541015625,0.599637138671875
-0.3135742578125,-0.00752563232421875,0.5866115087890625
-0.1637972265625,-0.014633251953124999,0.6571465234375
-0.38384302734375,-0.00213364501953125,0.844420673828125
-0.377278125,0.081442158203125,1.04152548828125
-0.54918130859375,0.1534987158203125,1.1155012353515625
-0.5275414453125,0.1976149755859375,0.9641090087890625
-0.3952708203125,0.17727247802734375,0.9134810888671875
-0.30020130859375,0.21648693115234374,0.986965302734375
-0.1443456640625,0.12286242431640625,0.9818042041015624
-0.2902323828125,0.14492055419921876,1.1970957470703125
-0.28318119140625,0.143204921875,1.37970033203125
-0.526082578125,-0.05115171142578125,1.39837859375
-0.62455611328125,0.0294830078125,1.27254609375
-0.65859634765625,-0.08963089355468751,0.9277355517578125
-0.37168580078125,-0.055073156738281254,0.7684787939453125
-0.2892598046875,0.07090327392578125,0.7788009912109375
-0.3500459375,0.187321181640625,0.9129895556640625
-0.55307162109375,0.18168410400390625,1.04349162109375
-0.61726177734375,0.10570610107421875,0.9975332666015625
-0.35393625,0.0417375244140625,0.7397241015625
-0.14069849609375001,-0.00458454833984375,0.7404614013671875
-0.2610550390625,0.069677822265625,0.87047193359375
-0.36633662109375,0.04002189208984375,1.0896957421875
-0.61969322265625,0.17040994873046875,1.2958939208984375
-0.7395634765625,0.13315621826171875,1.250427099609375
-0.2921775390625,0.0451687890625,1.323174013671875
-0.2445212109375,0.0966377587890625,1.3789630322265625
-0.4098594921875,-0.1004148681640625,1.1636714892578124
-0.45484123046875,-0.0011532836914062497,0.9262609521484375
-0.44171142578125,-0.20506843994140625,0.83704767578125
-0.50736044921875,-0.2553119580078125,0.71121517578125
-0.58419412109375,-0.16046199951171874,0.6492819921874999
-0.3738741015625,-0.25359632568359375,0.5261529248046874
-0.3028758984375,-0.208744794921875,0.4475076123046875
-0.27807515625,-0.0602200537109375,0.41359182128906247
-0.35417939453125,-0.10899302978515625,0.476753837890625
-0.3553951171875,-0.0006631030273437505,0.6667314208984375
-0.5601228125,-0.0175743359375,0.9557529443359375
-0.61385775390625,0.053992041015625,1.2093840771484374
-0.53264748046875,0.05668803466796875,1.1946380810546875
-0.32402947265625,-0.0151234326171875,1.0923991748046875
-0.2644590625,-0.15114856689453124,1.028745625
-0.3670660546875,0.06747200927734374,0.9759058056640625
-0.43538966796875,0.11845079833984375,1.0149826953125
-0.30871136718750003,0.1123235400390625,1.0928907080078125
-0.27637314453125,0.12237224365234375,1.103458671875
-0.374360390625,0.0172284912109375,0.9444476806640625
-0.483289140625,0.03021827880859375,0.7443936669921875
-0.54334583984375,0.05889384765625,0.669434853515625
-0.4682141796875,0.1025199267578125,0.65616345703125
-0.3072525,0.0711483642578125,0.8618701025390625
-0.11054857421875,0.03021827880859375,1.111323203125
-0.49423064453125,-0.006790361328125,0.9847534033203125
-0.50687416015625,-0.057278969726562504,0.725469638671875
-0.47648109375000003,-0.1509034765625,0.54999228515625
-0.30117388671875,-0.096983603515625,0.47331310546875
-0.13194529296875,-0.01879978759765625,0.6099593359375
-0.15188314453125001,0.13462676025390624,0.9685328076171875
-0.37168580078125,0.2280061767578125,1.2666476953124999
-0.5644994140625,-0.07026875732421875,1.293682021484375
-0.59319046875,-0.06879821533203125,1.0889584423828125
-0.52340798828125,-0.04379900146484375,0.70138451171875
-0.27005138671875,0.06698182861328125,0.5254156249999999
-0.28074974609375003,0.09296140380859375,0.5743231787109375
-0.24622322265625,0.1642826904296875,0.6652568212890625
-0.27540056640625,0.2231043701171875,0.94911724609375
-0.41788326171875,0.15962597412109375,1.1572815576171875
-0.61045373046875,0.059874208984374996,1.1764513525390625
-0.222638203125,0.010611052246093749,1.118696201171875
-0.2099946875,0.01600303955078125,1.196358447265625
-0.52511,0.06992291259765625,1.2206893408203126
-0.6189637890625,0.09541230712890625,1.1211538671875
-0.641819375,0.0927163134765625,0.9513291455078126
-0.633066171875,-0.01781942626953125,0.8122252490234375
-0.32159802734375,-0.044534272460937496,0.674350185546875
-0.11103486328125,-0.1317864306640625,0.63256986328125
-0.17084841796875,-0.1729616064453125,0.6298664306640624
-0.2902323828125,-0.13791368896484374,0.7842078564453125
-0.51805880859375,-0.008751083984375,0.957473310546875
-0.56474255859375,0.06281529296875,0.9685328076171875
-0.3203823046875,0.0897752294921875,1.1722733203125
-0.41545181640625,0.13658748291015624,1.276478359375
-0.34883021484375,0.1760470263671875,1.1997991796875
-0.34056330078125,0.022620478515625,1.169815654296875
-0.45970412109375003,-0.03497574951171875,1.2015195458984376
-0.43393080078125,-0.1665892578125,1.19684998046875
-0.3573402734375,-0.1190417333984375,1.196358447265625
-0.4186126953125,-0.060710234375,1.0914161083984375
-0.49471693359375,-0.0249270458984375,0.89013326171875
-0.3690112109375,0.1025199267578125,0.7576650634765625
-0.401592578125,-0.0092412646484375,0.5807131103515625
-0.2299325390625,0.04124734375,0.5856284423828125
-0.28391062499999997,0.14688127685546876,0.8181236474609375
-0.49325806640625003,0.0270321044921875,0.9675497412109375
-0.553314765625,-0.03497574951171875,1.1081282373046875
-0.55307162109375,-0.18350049072265626,1.1700614208984375
-0.5576913671875,-0.0651218603515625,1.0668394482421875
-0.47769681640625,-0.0646316796875,0.897506259765625
-0.27005138671875,-0.006790361328125,0.8891501953125
-0.22336763671875,-0.0827683642578125,1.0255506591796875
-0.1034973828125,0.01992448486328125,1.1840701171874999
-0.39259623046875003,-0.045024453125,1.292207421875
-0.78016861328125,0.02727719482421875,1.175714052734375
-0.63403875,0.04296297607421875,0.7591396630859375
-0.52389427734375,-0.0376717431640625,0.4312870166015625
-0.172064140625,0.01404231689453125,0.396142392578125
-0.0723748828125,0.00619942626953125,0.520991826171875
-0.21193984375,0.13732275390625,0.7478343994140625
-0.58224896484375,0.053992041015625,0.8800568310546875
-0.65470603515625,0.06894255126953125,1.06708521484375
-0.668078984375,0.17653720703125,1.0806023779296874
-0.32159802734375,0.206928408203125,1.061678349609375
-0.10228166015625,0.1780077490234375,1.276478359375
-0.1803310546875,0.26084828125,1.3479964404296876
-0.47842625,-0.03154448486328125,1.1966042138671875
-0.50152498046875,-0.07443529296875,0.846386806640625
-0.461892421875,-0.07320984130859375,0.7045794775390625
-0.44803318359375,-0.07026875732421875,0.537212421875
-0.31965287109375,-0.052867343750000004,0.5635094482421875
-0.12635296875,0.0946770361328125,0.7271900048828125
-0.27394169921875,0.06355056396484375,0.7679872607421875
-0.53605150390625,0.1157548046875,0.8419630078125
-0.62698755859375,0.0740894482421875,0.915201455078125
-0.3894353515625,0.20766367919921874,0.871455
-0.2707808203125,-0.08399381591796876,1.00810123046875
-0.33764556640625,0.05105095703125,1.144255927734375
-0.300444453125,0.09443194580078125,0.9149556884765625
-0.41447923828125,0.104970830078125,0.8918536279296875
-0.53751037109375,0.16795904541015624,0.84097994140625
-0.4983641015625,0.2044775048828125,0.82918314453125
-0.36244630859375,0.24001560302734376,0.86359046875
-0.36098744140625,0.28021041748046877,0.96484630859375
-0.393811953125,0.0672269189453125,0.892590927734375
-0.34834392578125,-0.028113220214843748,1.1027213720703124
-0.34421046875,0.0250713818359375,1.117713134765625
-0.3962433984375,0.05668803466796875,1.0643817822265624
-0.3660934765625,0.10399046875,0.999745166015625
-0.36876806640625,0.19246807861328125,1.0058893310546875
-0.5000661132812501,0.04198261474609375,1.1272980322265624
-0.4993366796875,-0.04330882080078125,1.187510849609375
-0.27102396484375,0.1044806494140625,1.01006736328125
-0.49277177734375,0.03855135009765625,0.85081060546875
-0.504685859375,-0.0180645166015625,0.7694618603515625
-0.579574375,-0.0543378857421875,0.5615433154296875
-0.4623787109375,-0.03693647216796875,0.364192734375
-0.329621796875,-0.015368522949218751,0.3555909033203125
-0.11687033203125,-0.09036616455078125,0.362718134765625
-0.02058509765625,-0.04575972412109375,0.6652568212890625
-0.10690140625,0.20080114990234374,1.10247560546875
-0.5674171484375,0.20006587890625,1.2206893408203126
-0.77822345703125,0.20031096923828126,1.43081978515625
-0.6539766015625,0.37481528564453126,1.3003177197265625
-0.494960078125,0.26673044921875,1.265173095703125
-0.4156949609375,-0.07615092529296875,1.2251131396484376
-0.405482890625,0.16648850341796875,0.9960586669921875
-0.4108320703125,-0.00581,0.7380037353515625
-0.35028908203125,-0.075415654296875,0.685163916015625
-0.36463460937500003,-0.18448085205078124,0.7306307373046875
-0.52146283203125,-0.14967802490234375,0.85867513671875
-0.43198564453125,-0.0710040283203125,0.8967689599609375
-0.35126166015625,-0.1945295556640625,0.863098935546875
-0.3057936328125,-0.1788437744140625,0.9768888720703125
-0.57106431640625,0.02531647216796875,0.9115149560546875
-0.3709563671875,0.00276816162109375,0.7596311962890625
-0.2659179296875,-0.1572758251953125,0.8992266259765624
-0.5224354101562501,-0.10360104248046875,1.025304892578125
-0.6247992578125,0.02286556884765625,1.0265337255859375
-0.54869501953125,-0.096983603515625,0.843437607421875
-0.370470078125,-0.11561046875,0.7085117431640625
-0.22190876953125,-0.0415931884765625,0.7507835986328125
-0.32013916015625,-0.03840701416015625,0.8191067138671875
-0.4186126953125,0.00987578125,0.99040603515625
-0.493014921875,-0.03448556884765625,0.994829833984375
-0.4565432421875,-0.0567887890625,0.9501003125
-0.40864376953125,0.0103659619140625,0.8662939013671875
-0.4263933203125,-0.0229663232421875,0.93338818359375
-0.271267109375,0.00570924560546875,1.02579642578125
-0.3777644140625,0.1878113623046875,1.03661015625
-0.61483033203125,0.2260454541015625,1.0122792626953125
-0.46894361328125,0.017718671875,1.0110504296875
-0.27977716796875,-0.130315888671875,0.962388642578125
-0.11395259765625,0.0686974609375,1.127052265625
