ax,ay,az
-0.43441708984375,-0.0415931884765625,0.838522275390625
-0.3592854296875,-0.03056412353515625,0.832623876953125
-0.08988128906250001,0.0564429443359375,0.8053437841796875
-0.26275705078125,0.093206494140625,0.909303056640625
-0.20732009765625,0.120656611328125,0.9464138134765625
-0.160393203125,0.0525214990234375,1.00515203125
-0.2989855859375,0.11967625,1.1243488330078124
-0.42955419921875,0.157910341796875,1.0717547802734375
-0.234309140625,-0.0018885546875000003,1.0712632470703125
-0.34591248046875,0.11256863037109376,1.043000087890625
-0.312115390625,0.0819323388671875,0.9655836083984375
-0.3631757421875,-0.0543378857421875,1.004660498046875
-0.252788125,0.14443037353515625,1.05135615234375
-0.36633662109375,-0.0729647509765625,0.8852179296875
-0.19637859375,-0.12614935302734376,0.8458952734375
-0.20683380859375,-0.030319033203124998,0.8948028271484375
-0.11857234375,-0.067572763671875,0.882760263671875
-0.35077537109375,-0.0386521044921875,0.9650920751953125
-0.34032015625,0.00766996826171875,1.1341794970703125
-0.346155625,0.07923634521484375,1.181612451171875
-0.37922328125,0.06845237060546874,0.9936010009765625
-0.252788125,0.064776015625,0.9577190771484375
-0.2450075,0.10129447509765625,0.8970147265625
-0.27929087890625,0.017718671875,0.89013326171875
-0.32791978515625,-0.08546435791015625,1.026287958984375
-0.26154132812499997,0.04688442138671875,1.098051806640625
-0.29242068359375,0.05570767333984375,1.08379734375
-0.33715927734375,-0.028113220214843748,1.029237158203125
-0.27005138671875,0.12972495361328126,1.05725455078125
-0.16063634765625,0.01796376220703125,0.970253173828125
-0.3320532421875,0.0221302978515625,0.902421591796875
-0.33108066406250003,0.05497240234375,0.9591936767578125
-0.21266927734375,0.030463369140625002,0.956490244140625
-0.38724705078125,0.11943115966796874,0.963371708984375
-0.27685943359375,0.0907555908203125,1.027271025390625
-0.2678630859375,0.00791505859375,0.8048522509765625
-0.34007701171875,-0.01585870361328125,0.782487490234375
-0.0821006640625,-0.08742508056640624,0.8419630078125
-0.12805498046875,-0.12541408203125,0.9953213671875
-0.2921775390625,-0.142080224609375,1.0987891064453126
-0.30141703125,-0.08742508056640624,1.2206893408203126
-0.27199654296875,0.0544822216796875,1.116730068359375
-0.31478998046875,0.12531332763671876,0.9818042041015624
-0.29339326171875,0.13315621826171875,0.929947451171875
-0.2581373046875,0.07850107421875,0.9542783447265625
-0.30530734375,0.07261890625,0.9363373828125
-0.1637972265625,0.05913893798828125,0.965337841796875
-0.191515703125,-0.04085791748046875,0.9960586669921875
-0.30214646484375,-0.0925719775390625,1.088221142578125
-0.32864921874999997,0.03021827880859375,1.0206353271484374
-0.32305689453124997,-0.055073156738281254,0.917167587890625
-0.343237890625,0.034384814453125,0.95501564453125
-0.28974609375,0.16746886474609374,0.9990078662109375
-0.19856689453125,0.067717099609375,0.9282270849609375
-0.31770771484375,0.0613447509765625,0.956490244140625
-0.0976619140625,0.0868341455078125,0.9646005419921875
-0.36390517578125,-0.11561046875,0.9002096923828125
-0.14312994140625,0.10227483642578125,1.0228472265625
-0.39065107421875,-0.0464949951171875,1.0034316650390624
-0.29509527343749997,-0.07173929931640625,1.0309575244140625
-0.20829267578125,0.0152677685546875,1.0717547802734375
-0.40961634765625,0.077520712890625,1.120662333984375
-0.3048210546875,0.04835496337890625,1.112797802734375
-0.31819400390625,0.05668803466796875,1.03366095703125
-0.28950294921874997,0.04198261474609375,0.9832788037109375
-0.25011353515625,0.1358522119140625,0.9835245703125
-0.3072525,-0.00213364501953125,0.8567090039062499
-0.16793068359375,0.09100068115234375,0.8559717041015625
-0.3281629296875,0.09737302978515625,0.875387265625
-0.27005138671875,0.05276658935546875,1.066593681640625
-0.43247193359375,0.10619628173828125,1.1533492919921875
-0.2999581640625,-0.030073942871093752,1.063644482421875
-0.22579908203125,0.0535018603515625,0.9591936767578125
-0.36050115234375,0.00865032958984375,0.8780906982421874
-0.1706052734375,0.04051207275390625,0.93928658203125
-0.28172232421875,0.07065818359375,0.9336339501953125
-0.382141015625,-0.0033590966796874996,0.9724650732421874
-0.2523018359375,0.055952763671875,1.0110504296875
-0.30020130859375,-0.0592396923828125,0.97860923828125
-0.273212265625,7.216796875000007e-05,1.0307117578125
-0.24136033203125,-0.10703230712890625,0.92650671875
-0.25084296875,-0.07124911865234375,1.0388220556640624
-0.17960162109375,-0.0016434643554687498,1.07494974609375
-0.42225986328125,-0.047965537109375,0.988931435546875
-0.35563826171875,0.0211499365234375,1.0260421923828125
-0.27613,0.0917359521484375,0.9980247998046875
-0.32889236328125,0.010856142578125,0.883743330078125
-0.2931501171875,0.0368357177734375,0.913235322265625
-0.127325546875,-0.0268877685546875,0.8466325732421875
-0.24865466796875,-0.00581,0.78396208984375
-0.07942607421875,-0.1464918505859375,0.8599039697265625
-0.19248828125,-0.0415931884765625,1.1054248046875
-0.48061455078125,0.0417375244140625,1.251410166015625
-0.30214646484375,0.0544822216796875,1.1066536376953124
-0.36293259765625,0.077520712890625,1.00023669921875
-0.3281629296875,0.108892275390625,1.016948828125
-0.22750109375,0.0495804150390625,0.9380577490234375
-0.2902323828125,0.02776737548828125,0.89504859375
-0.21996361328125,0.06109966064453125,0.9021758251953125
-0.25862359375,-0.09036616455078125,0.9120064892578125
-0.2377131640625,-0.02517213623046875,1.0661021484375
-0.3359435546875,0.03119864013671875,1.1877566162109374
-0.33472783203125,-0.0435539111328125,1.0786362451171876
-0.25789416015625,0.0809519775390625,1.000728232421875
-0.3213548828125,0.02752228515625,0.945676513671875
-0.3344846875,0.1554594384765625,0.9439561474609375
-0.27783201171875,0.13756784423828125,0.91176072265625
-0.27977716796875,0.081442158203125,0.946168046875
-0.18154677734375,0.0721287255859375,0.9960586669921875
-0.310170234375,-0.00850599365234375,1.0162115283203126
-0.23260712890625002,-0.0739451123046875,1.074458212890625
-0.244034921875,-0.0210056005859375,1.0884669091796875
-0.48012826171875,-0.13325697265625,1.0481611865234375
-0.3320532421875,-0.063651318359375,1.0157199951171876
-0.259596171875,0.01649322021484375,0.9439561474609375
-0.28901666015625,-0.07271966064453125,0.773148359375
-0.27540056640625,-0.04772044677734375,0.79772501953125
-0.2542469921875,0.056933125,0.864082001953125
-0.19856689453125,-0.0001729223632812504,0.84884447265625
-0.23990146484375,0.07923634521484375,0.9577190771484375
-0.33253953125,-0.00605509033203125,0.9547698779296875
-0.323786328125,0.04051207275390625,0.986965302734375
-0.30992708984375,-0.02223105224609375,0.9218371533203125
-0.2955815625,7.216796875000007e-05,0.894557060546875
-0.23139140625,-0.09012107421875,0.8638362353515625
-0.26227076171875,-0.06781785400390625,0.9768888720703125
-0.339347578125,0.0010525292968750002,1.0619241162109374
-0.339347578125,0.02090484619140625,1.0565172509765626
-0.20051205078125,0.02482629150390625,1.0122792626953125
-0.31308796875,-0.0724745703125,0.8997181591796874
-0.12854126953125,-0.02149578125,0.9124980224609375
-0.2688356640625,-0.07860182861328124,0.9326508837890625
-0.3155194140625,-0.00997653564453125,0.9036504248046875
-0.23795630859375,-0.03105430419921875,0.83704767578125
-0.1910294140625,0.067717099609375,0.9955671337890625
-0.35199109375,0.0378160791015625,1.1061621044921874
-0.28974609375,0.0740894482421875,1.1223827001953124
-0.21850474609375,0.0927163134765625,1.1081282373046875
-0.329621796875,-0.027868129882812502,1.028745625
-0.25084296875,0.05962911865234375,0.9926179345703126
-0.27102396484375,-0.060710234375,0.96877857421875
-0.30020130859375,-0.04428918212890625,0.9380577490234375
-0.31089966796875,-0.00948635498046875,0.8240220458984375
-0.1978374609375,0.04786478271484375,0.8879213623046875
-0.2386857421875,0.06306038330078124,1.0083469970703125
-0.36098744140625,0.0843832421875,1.117713134765625
-0.38821962890625,0.057913486328125,1.10837400390625
-0.282938046875,-0.04919098876953125,0.9820499707031249
-0.26956509765625,0.12776423095703124,0.9262609521484375
-0.25473328125,-0.0631611376953125,0.785436689453125
-0.25886673828125,-0.04085791748046875,0.7908435546875
-0.372415234375,-0.08399381591796876,0.822793212890625
-0.19637859375,-0.0808076416015625,0.84687833984375
-0.20537494140625,-0.11193411376953125,0.881777197265625
-0.26251390625,-0.02125069091796875,0.983033037109375
-0.34931650390625,-0.032279755859375,1.10640787109375
-0.228473671875,0.0069346972656249995,1.1066536376953124
-0.39356880859375,0.0020328906249999995,1.0083469970703125
-0.27005138671875,0.0172284912109375,1.0299744580078125
-0.33108066406250003,0.08070688720703124,1.022355693359375
-0.29509527343749997,0.064776015625,0.9783634716796875
-0.35223423828125,0.09492212646484376,1.044966220703125
-0.30846822265625,7.216796875000007e-05,1.08379734375
-0.24087404296875,0.016738310546875,0.967303974609375
-0.21947732421875,0.07139345458984375,0.9110234228515625
-0.19321771484375,-0.046740085449218746,0.858183603515625
-0.22385392578125,-0.03129939453125,0.9704989404296875
-0.27540056640625,0.00570924560546875,1.064136015625
-0.35320681640625,-0.01438816162109375,1.0555341845703126
-0.40864376953125,0.05815857666015625,0.9356000830078125
-0.17084841796875,-0.08227818359375,0.819844013671875
-0.23066197265625,-0.1170810107421875,0.7534870312499999
-0.13291787109375,-0.07075893798828126,0.77216529296875
-0.2143712890625,-0.2190385888671875,0.8790737646484375
-0.33983386718749997,-0.063651318359375,0.9877026025390625
-0.3583128515625,-0.04477936279296875,0.99237216796875
-0.1633109375,0.055952763671875,1.0582376171875
-0.24281919921875,0.16550814208984374,1.1676037548828124
-0.424934453125,0.140263837890625,1.0707717138671875
-0.16549923828125,0.05619785400390625,0.9709904736328125
-0.30506419921875,0.1211467919921875,0.9815584374999999
-0.34202216796875,0.056933125,0.9631259423828125
-0.2377131640625,-0.03056412353515625,0.9572275439453125
-0.2688356640625,0.0446786083984375,1.062661416015625
-0.4487626171875,-0.0009081933593750001,1.053813818359375
-0.442440859375,0.05276658935546875,0.95894791015625
-0.2630001953125,-0.0268877685546875,0.822793212890625
-0.2172890234375,0.00668960693359375,0.8498275390625
-0.29631099609375,0.16844922607421875,0.9193794873046874
-0.29436583984375,-0.11757119140625,0.8938197607421875
-0.23163455078125,-0.03252484619140625,1.08379734375
-0.36366203125,0.07065818359375,1.13983212890625
-0.34493990234375,-0.13546278564453124,1.068559814453125
-0.2065906640625,0.032424091796875,1.106899404296875
-0.31138595703125,-0.020515419921875,0.9577190771484375
-0.31673513671875,-0.048455717773437504,0.946659580078125
-0.24330548828125,-0.05262225341796875,0.913235322265625
-0.3826273046875,-0.049926259765625,0.97369390625
-0.18689595703125,0.0711483642578125,0.98843990234375
-0.4127772265625,-0.042328459472656246,0.8746499658203125
-0.08817927734375,-0.020515419921875,1.0058893310546875
-0.1657423828125,-0.0396324658203125,1.1032129052734374
-0.4200715625,-0.01978014892578125,1.1997991796875
-0.3359435546875,-0.0053198193359375,1.1867735498046874
-0.25400384765625,-0.067572763671875,0.96877857421875
-0.2644590625,0.03315936279296875,0.892590927734375
-0.29144810546875,0.04198261474609375,0.958456376953125
-0.213885,0.04884514404296875,1.0024485986328124
-0.38505875,-0.0151234326171875,0.9582106103515625
-0.19710802734375,0.0976181201171875,0.986965302734375
-0.286828359375,-0.05360261474609375,0.8677685009765626
-0.34056330078125,-0.0210056005859375,0.8535140380859375
-0.216802734375,0.0544822216796875,0.9631259423828125
-0.4137498046875,-0.04821062744140625,0.924049052734375
-0.23698373046875,0.028502646484374998,0.93732044921875
-0.24038775390625,-0.0582593310546875,0.8694888671875
-0.30652306640625,-0.01879978759765625,0.8775991650390624
-0.30020130859375,0.0037485229492187503,0.867031201171875
-0.17911533203125,-0.0055649096679687505,0.922574453125
-0.3033621875,0.0152677685546875,0.946659580078125
-0.327676640625,0.030463369140625002,0.9596852099609375
-0.1569891796875,0.05962911865234375,0.9724650732421874
-0.35709712890625,-0.025662316894531252,0.9636174755859375
-0.2488978125,-0.029338671875,1.0874838427734375
-0.310170234375,-0.095022880859375,1.0575003173828126
-0.3339983984375,-0.05115171142578125,1.0511103857421875
-0.2484115234375,0.06158984130859375,1.0058893310546875
-0.26154132812499997,-0.057278969726562504,0.8849721630859375
-0.26081189453125,0.0280124658203125,0.9528037451171875
-0.2717533984375,-0.03399538818359375,0.9857364697265625
-0.3048210546875,0.0495804150390625,1.0393135888671874
-0.22823052734375,-0.052867343750000004,1.010558896484375
-0.33326896484375,-0.03595611083984375,0.9813126708984374
-0.19029998046875,-0.06267095703125,1.0339067236328126
-0.36682291015625,-0.0288484912109375,1.01399962890625
-0.2707808203125,-0.042083369140625,1.0280083251953125
-0.22725794921875,0.0035034326171875,0.943710380859375
-0.33667298828125003,-0.01487834228515625,0.954524111328125
-0.1958923046875,-0.00507472900390625,1.00515203125
-0.35709712890625,-0.0063001806640625,0.9852449365234375
-0.27102396484375,0.056933125,1.0255506591796875
-0.27005138671875,0.0368357177734375,0.8844806298828125
-0.20829267578125,0.00766996826171875,0.8557259375
-0.21947732421875,0.028257556152343752,0.966320908203125
-0.3690112109375,-0.08791526123046875,1.015474228515625
-0.29582470703125,0.026296833496093748,1.0368559228515626
-0.257651015625,-0.02958376220703125,0.941744248046875
-0.34421046875,7.216796875000007e-05,0.967303974609375
-0.24573693359375,-0.0043394580078125,1.013508095703125
-0.3096839453125,0.05472731201171875,1.0845346435546874
-0.27394169921875,0.0012976196289062499,1.0398051220703124
-0.2202067578125,0.01453249755859375,1.0186691943359376
-0.27418484375,-0.00213364501953125,1.026287958984375
-0.3223274609375,-0.03644629150390625,1.069542880859375
-0.2411171875,0.1064413720703125,1.094119541015625
-0.346155625,-0.03522083984375,0.950591845703125
-0.317950859375,-0.0288484912109375,0.9955671337890625
-0.26713365234374997,0.052031318359375,0.938303515625
-0.23917203125,-0.01585870361328125,0.8790737646484375
-0.28804408203125,0.02335574951171875,0.87243806640625
-0.18495080078125,-0.0170841552734375,0.9508376123046876
-0.34785763671875003,-0.02174087158203125,0.9621428759765625
-0.23528171875,0.010611052246093749,0.986965302734375
-0.28196546875,-0.057769150390625,0.9591936767578125
-0.26372962890625,0.026541923828125,1.0633987158203124
-0.325731484375,-0.03889719482421875,1.0235845263671874
-0.2299325390625,-0.09183670654296874,0.8820229638671875
-0.32889236328125,-0.02664267822265625,0.945676513671875
-0.28804408203125,-0.042328459472656246,0.9881941357421875
-0.2338228515625,0.02237538818359375,0.95698177734375
-0.3077387890625,-0.08644471923828125,0.9080742236328125
-0.3057936328125,0.0294830078125,0.9734481396484375
-0.14945169921875,0.0012976196289062499,0.9223286865234375
-0.41107521484375,-0.014633251953124999,0.9129895556640625
-0.22750109375,0.01649322021484375,0.9945840673828125
-0.23941517578125,0.05423713134765625,0.984999169921875
-0.37898013671874997,0.0008074389648437498,0.92748978515625
-0.21753216796875,0.04639424072265625,0.999745166015625
-0.2552195703125,0.0010525292968750002,0.9306847509765624
-0.25157240234375,-0.0018885546875000003,0.882760263671875
-0.28196546875,0.0701680029296875,0.94321884765625
-0.1764407421875,-0.008996174316406251,0.976151572265625
-0.31041337890625,0.03364954345703125,0.9626344091796875
-0.3787369921875,-0.01193725830078125,0.9636174755859375
-0.13948277343749999,-0.01953505859375,0.8540055712890625
-0.2484115234375,-0.0151234326171875,0.812471015625
-0.2435486328125,0.0191892138671875,0.9297016845703125
-0.20488865234375,0.008405239257812499,1.0184234277343749
-0.32451576171875,0.08413815185546875,1.0211268603515624
-0.22944625,0.0358553564453125,1.0112961962890625
-0.21072412109375,0.08070688720703124,0.9803296044921875
-0.32208431640625,0.0838930615234375,0.9700074072265625
-0.29096181640625,0.00619942626953125,0.9729566064453125
-0.19564916015625,0.0721287255859375,0.9759058056640625
-0.3155194140625,-0.040122646484374996,0.9356000830078125
-0.25862359375,0.0476196923828125,1.0503730859375
-0.1326747265625,-0.00581,1.0250591259765625
-0.38432931640625,-0.08644471923828125,0.9518206787109375
-0.32743349609375,-0.0072805419921875,1.04152548828125
-0.20586123046875,-0.0141430712890625,0.9940925341796875
-0.25740787109375,-0.014633251953124999,0.8540055712890625
-0.242089765625,-0.01046671630859375,0.83311541015625
-0.20488865234375,0.022620478515625,0.928964384765625
-0.205131796875,-0.0612004150390625,0.9621428759765625
-0.39478453125,-0.015368522949218751,1.067576748046875
-0.29047552734375,-0.01487834228515625,1.0923991748046875
-0.27540056640625,-0.00311400634765625,1.052830751953125
-0.32743349609375,-0.008996174316406251,0.9837703369140625
-0.17036212890625,-0.0013983740234375002,0.9901602685546875
-0.35466568359375,0.0319339111328125,0.9559987109375
-0.290718671875,0.03928662109375,1.0398051220703124
-0.34104958984375,-0.05017135009765625,0.9877026025390625
-0.2931501171875,0.13952856689453125,1.005643564453125
-0.2406308984375,-0.06928839599609375,0.9916348681640625
-0.24233291015625,-0.0513968017578125,1.0422627880859374
-0.3553951171875,0.0878145068359375,1.0314490576171875
-0.3500459375,-0.1102184814453125,0.959439443359375
-0.25497642578125,0.11305881103515625,1.0152284619140626
-0.3816547265625,-0.0011532836914062497,0.9405154150390624
-0.16647181640625,0.034384814453125,0.9609140429687499
-0.28634207031250003,-0.04330882080078125,0.98254150390625
-0.41204779296875,0.0530116796875,1.0324321240234375
-0.14215736328125,-0.0161037939453125,0.9660751416015625
-0.347128203125,-0.06634731201171876,1.0132623291015626
-0.31430369140625003,0.05178622802734375,1.12017080078125
-0.3446967578125,-0.0435539111328125,1.03169482421875
-0.30166017578125,-0.027868129882812502,0.97074470703125
-0.30603677734375,0.02482629150390625,0.88030259765625
-0.21558701171875,0.00668960693359375,0.9542783447265625
-0.30020130859375,0.01845394287109375,0.9931094677734374
-0.2960678515625,-0.040122646484374996,0.984016103515625
-0.29169125,0.07629526123046874,1.0692971142578125
-0.43879369140625,-0.06879821533203125,0.9835245703125
-0.18106048828125,0.02360083984375,0.9196252539062499
-0.23309341796875,-0.044534272460937496,0.8989808593749999
-0.34445361328125,-0.046740085449218746,1.0179318945312499
-0.21704587890625,-0.01291761962890625,1.0555341845703126
-0.3694975,-0.08203309326171875,1.01006736328125
-0.34104958984375,0.04149243408203125,1.0368559228515626
-0.20804953125,-0.04036773681640625,0.9464138134765625
-0.22385392578125,-0.05360261474609375,0.9297016845703125
-0.3019033203125,-0.06879821533203125,0.98057537109375
-0.257651015625,-0.00262382568359375,1.0088385302734375
-0.244034921875,-0.10752248779296875,0.93535431640625
-0.32451576171875,-0.05017135009765625,1.027271025390625
-0.2017277734375,0.0338946337890625,1.08478041015625
-0.3544225390625,-0.087179990234375,0.9813126708984374
-0.2980130078125,0.0201695751953125,1.0324321240234375
-0.19759431640625,-0.00654527099609375,0.9945840673828125
-0.27977716796875,-0.0759058349609375,0.9599309765625
-0.2552195703125,0.05913893798828125,1.0579918505859376
-0.26567478515625,0.016738310546875,1.043000087890625
-0.32500205078125,-0.042328459472656246,1.0117877294921875
-0.28901666015625,0.0505607763671875,0.9913891015625
-0.2333365625,-0.03742665283203125,0.9626344091796875
-0.20026890625,-0.042328459472656246,0.9488714794921875
-0.31989601562500003,0.06281529296875,1.07298361328125
-0.30457791015625,-0.069533486328125,1.0378389892578126
-0.2503566796875,-0.098944326171875,0.9572275439453125
-0.3320532421875,0.09002031982421875,1.0275167919921875
-0.1851939453125,-0.05801424072265625,1.009575830078125
-0.39308251953125,-0.035711020507812496,0.941744248046875
-0.24379177734375002,0.0466393310546875,1.054796884765625
-0.1492085546875,-0.01389798095703125,1.0004824658203124
-0.43830740234375,-0.067572763671875,0.9754142724609375
-0.1540714453125,0.0137972265625,0.981066904296875
-0.2260422265625,-0.0376717431640625,0.9815584374999999
-0.34810078125,-0.01683906494140625,1.0766701123046876
-0.2795340234375,-0.01438816162109375,1.1066536376953124
-0.27394169921875,-0.03595611083984375,0.9852449365234375
-0.29874244140625,-0.0018885546875000003,0.965337841796875
-0.24379177734375002,0.013552136230468751,1.047915419921875
-0.2639727734375,-0.013407800292968751,1.0739666796875
-0.4400094140625,-0.02321141357421875,1.0530765185546875
-0.13291787109375,-0.06095532470703125,0.9896687353515625
-0.33278267578125,-0.04306373046875,1.0270252587890625
-0.1715778515625,-0.00581,1.0491442529296875
-0.411318359375,-0.13742350830078126,1.0179318945312499
-0.28026345703125,0.06355056396484375,1.0024485986328124
-0.23114826171875,-0.01487834228515625,0.8734211328125
-0.26275705078125,-0.08056255126953125,0.9321593505859375
-0.2766162890625,0.05864875732421875,1.0378389892578126
-0.3262177734375,-0.0646316796875,0.9837703369140625
-0.26032560546875,0.0012976196289062499,0.8778449316406249
-0.304334765625,-0.05899460205078125,0.76921609375
-0.1939471484375,0.02286556884765625,0.873912666015625
-0.34202216796875,0.011346323242187501,1.0071181640625
-0.26518849609375,-0.10360104248046875,0.9481341796875
-0.263486484375,0.0397768017578125,0.89013326171875
-0.294608984375,7.216796875000007e-05,0.9193794873046874
-0.3330258203125,0.0280124658203125,0.9847534033203125
-0.24087404296875,-0.02517213623046875,0.9191337207031249
-0.3349709765625,-0.055808427734375,0.883251796875
-0.2099946875,0.064776015625,1.0216183935546874
-0.29290697265625,-0.01169216796875,0.9115149560546875
-0.3651208984375,-0.0151234326171875,0.9139726220703125
-0.24622322265625,0.04149243408203125,1.036118623046875
-0.38043900390625,0.0012976196289062499,0.9638632421875
-0.25108611328125,0.0020328906249999995,0.9739396728515625
-0.25789416015625,0.014777587890624999,0.928964384765625
-0.25546271484375,-0.01095689697265625,0.8741584326171875
-0.27588685546875,-0.013162709960937501,0.9815584374999999
-0.24330548828125,-0.046004814453125,0.9911433349609375
-0.33229638671875,-0.0631611376953125,0.8476156396484374
-0.24330548828125,0.03536517578125,0.8756330322265625
-0.21607330078125,-0.06291604736328126,0.8741584326171875
-0.273212265625,-0.01928996826171875,0.94223578125
-0.25692158203125,0.02727719482421875,1.0506188525390625
-0.3271903515625,0.00521906494140625,1.031203291015625
-0.35199109375,0.0378160791015625,0.9847534033203125
-0.2333365625,0.021640117187500002,1.020389560546875
-0.21364185546875,-0.00777072265625,0.95108337890625
-0.268349375,-0.00262382568359375,0.9638632421875
-0.257651015625,0.03561026611328125,0.9931094677734374
-0.26421591796875,-0.02174087158203125,0.9129895556640625
-0.32597462890625,-0.016593974609375,0.963371708984375
-0.2338228515625,-0.02517213623046875,1.0363643896484376
-0.234309140625,-0.0631611376953125,0.9773804052734375
-0.31576255859375,-0.03595611083984375,0.947642646484375
-0.25059982421875,-0.03350520751953125,0.9169218212890625
-0.2834243359375,-0.008751083984375,0.8992266259765624
-0.257651015625,0.01894412353515625,1.0398051220703124
-0.38335673828125,-0.012427438964843749,1.0395593554687501
-0.23406599609375,0.08364797119140625,1.06020375
-0.3111428125,0.01208159423828125,0.964354775390625
-0.2902323828125,-0.0229663232421875,0.9100403564453124
-0.22361078125,-0.015368522949218751,0.962388642578125
-0.36439146484375,-0.0018885546875000003,0.9990078662109375
-0.21583015625000002,-0.010221625976562499,0.964354775390625
-0.27345541015625,-0.02713285888671875,0.914218388671875
-0.26178447265625,-0.013652890625,0.9670582080078125
-0.27880458984375,0.00325834228515625,0.943710380859375
-0.27807515625,-0.04379900146484375,0.9518206787109375
-0.2736985546875,-0.06291604736328126,0.938303515625
-0.2318776953125,-0.0053198193359375,1.0083469970703125
-0.3184371484375,0.0427178857421875,1.097068740234375
-0.24768208984375,-0.08203309326171875,0.957473310546875
-0.3242726171875,0.049090234375,0.938795048828125
-0.16160892578125,-0.03105430419921875,0.9717277734375
-0.19759431640625,-0.01634888427734375,0.9808211376953125
-0.31965287109375,0.0299731884765625,1.06315294921875
-0.23795630859375,-0.02958376220703125,1.0142453955078126
-0.32791978515625,0.030708459472656248,0.917167587890625
-0.218747890625,0.01992448486328125,0.96288017578125
-0.34688505859375,-0.06683749267578125,0.9611598095703124
-0.2099946875,-0.0661022216796875,0.967303974609375
-0.259596171875,0.04443351806640625,0.9886856689453125
-0.24087404296875,-0.10507158447265624,0.966320908203125
-0.37995271484375,-0.05458297607421875,0.9795923046875
-0.2250696484375,0.0211499365234375,1.092153408203125
-0.33983386718749997,-0.0072805419921875,0.9950756005859375
-0.2795340234375,-0.05360261474609375,0.9798380712890625
-0.2488978125,-0.0013983740234375002,0.980083837890625
-0.26664736328125,-0.0543378857421875,0.9375662158203125
-0.2056180859375,-0.0097314453125,0.9532952783203125
-0.26616107421875,-0.077376376953125,0.9228202197265625
-0.29776986328125,-0.0038492773437499997,0.9478884130859375
-0.26081189453125,-0.02419177490234375,0.9759058056640625
-0.28366748046875,-0.09967959716796874,0.8918536279296875
-0.26129818359375,0.0044837939453125,0.9936010009765625
-0.23649744140625,0.02727719482421875,1.066593681640625
-0.333512109375,-0.055808427734375,0.9818042041015624
-0.131215859375,-0.00581,1.0442289208984374
-0.41812640624999997,-0.00777072265625,1.043983154296875
-0.25351755859375,-0.03154448486328125,1.0589749169921876
-0.22920310546875,-0.024436865234375,0.9862280029296875
-0.2736985546875,-0.035711020507812496,0.971236240234375
-0.2406308984375,-0.00777072265625,0.93437125
-0.30798193359375,-0.0406128271484375,0.993355234375
-0.21558701171875,0.00791505859375,1.0398051220703124
-0.33861814453125,-0.03840701416015625,0.916184521484375
-0.21072412109375,-0.11438501708984375,0.9149556884765625
-0.234309140625,-0.01879978759765625,0.9478884130859375
-0.252788125,-0.01438816162109375,1.029237158203125
-0.2240970703125,-0.0631611376953125,1.0103131298828125
-0.34007701171875,-0.00801581298828125,1.0142453955078126
-0.19905318359375002,0.0530116796875,1.05332228515625
-0.33521412109375,-0.029338671875,0.977626171875
-0.2688356640625,-0.004829638671875,1.0167030615234376
-0.247925234375,-0.02223105224609375,0.987948369140625
-0.268349375,-0.087179990234375,0.9641090087890625
-0.2591098828125,0.03413972412109375,1.02579642578125
-0.25692158203125,-0.063651318359375,0.948625712890625
-0.2221519140625,-0.0376717431640625,0.92650671875
-0.34542619140624997,-0.060710234375,0.9196252539062499
-0.1560166015625,0.01747358154296875,0.9606682763671874
-0.32500205078125,-0.0925719775390625,0.9120064892578125
-0.263486484375,-0.03399538818359375,1.0496357861328125
-0.170118984375,-0.01634888427734375,1.0063808642578125
-0.36050115234375,-0.04968116943359375,0.9341254833984375
-0.21510072265625,-0.06291604736328126,1.036118623046875
-0.2707808203125,-0.0415931884765625,0.9724650732421874
-0.32111173828125,-0.0009081933593750001,1.0228472265625
-0.23260712890625002,-0.112669384765625,0.9793465380859375
-0.2566784375,0.06257020263671875,0.97074470703125
-0.2581373046875,-0.10972830078125,0.928964384765625
-0.27540056640625,-0.029338671875,0.9734481396484375
-0.2099946875,-0.0337502978515625,0.9483799462890625
-0.3213548828125,-0.1116890234375,0.894557060546875
-0.17960162109375,0.053992041015625,1.0039231982421875
-0.3189234375,-0.0641414990234375,1.029237158203125
-0.21972046875,-0.0298288525390625,1.056271484375
-0.2707808203125,0.042227705078125,0.9940925341796875
-0.378250703125,-0.081297822265625,1.04545775390625
-0.26664736328125,0.044188427734375,1.000728232421875
-0.2357680078125,-0.09036616455078125,0.92748978515625
-0.2707808203125,-0.04772044677734375,1.0444746875
-0.35393625,-0.0700236669921875,1.0584833837890626
-0.2357680078125,-0.0935523388671875,0.95304951171875
-0.2800203125,-0.02713285888671875,0.9085657568359375
-0.2221519140625,-0.063651318359375,0.891116328125
-0.23212083984375,7.216796875000007e-05,0.938795048828125
-0.29825615234375,-0.07271966064453125,1.0255506591796875
-0.24622322265625,0.020659755859375,1.044966220703125
-0.19419029296875,-0.0239466845703125,0.9714820068359376
-0.312115390625,-0.042328459472656246,0.9547698779296875
-0.25473328125,-0.0121823486328125,1.0255506591796875
-0.20488865234375,-0.03938737548828125,1.0108046630859375
-0.32451576171875,0.028502646484374998,1.0250591259765625
-0.294608984375,-0.09624833251953124,1.0024485986328124
-0.20002576171875,-0.08840544189453126,0.9169218212890625
-0.183735078125,-0.0592396923828125,0.932896650390625
-0.32791978515625,-0.06879821533203125,0.97664310546875
-0.27637314453125,-0.0847290869140625,1.001711298828125
-0.29582470703125,-0.07320984130859375,0.91569298828125
-0.20415921875,0.00791505859375,0.9400238818359374
-0.32451576171875,-0.0602200537109375,0.900455458984375
-0.1706052734375,-0.0053198193359375,0.9591936767578125
-0.221665625,-0.00654527099609375,0.9680412744140625
-0.29290697265625,-0.076396015625,0.9815584374999999
-0.2795340234375,-0.025662316894531252,0.9950756005859375
-0.18397822265625,-0.02468195556640625,0.981066904296875
-0.29728357421875,-0.05556333740234375,0.97074470703125
-0.25983931640625,0.024581201171875,1.0358728564453126
-0.3320532421875,-0.0837487255859375,1.043983154296875
-0.2377131640625,-0.06340622802734375,1.001219765625
-0.23844259765625,0.01845394287109375,0.9646005419921875
-0.33278267578125,-0.144040947265625,0.9120064892578125
-0.25862359375,-0.015368522949218751,1.0098215966796875
-0.22774423828125,-0.0455146337890625,0.953541044921875
-0.24622322265625,-0.09796396484375,0.978117705078125
-0.29290697265625,0.01159141357421875,0.998762099609375
-0.2454937890625,0.03708080810546875,0.9542783447265625
-0.1764407421875,-0.0964934228515625,0.908319990234375
-0.30627992187499997,-0.0347306591796875,0.99630443359375
-0.2649453515625,0.00472888427734375,1.0353813232421876
-0.252788125,-0.07713128662109375,0.9459222802734375
-0.27296912109375,-0.0023787353515625003,0.977134638671875
-0.23528171875,-0.0239466845703125,0.9749227392578125
-0.3583128515625,-0.09036616455078125,0.976151572265625
-0.23990146484375,-0.02174087158203125,1.07101748046875
-0.2561921484375,-0.04330882080078125,1.009575830078125
-0.23892888671875,-0.06487677001953125,0.9582106103515625
-0.27005138671875,-0.0710040283203125,0.963371708984375
-0.15431458984375,-0.015368522949218751,1.029237158203125
-0.28074974609375003,-0.06977857666015624,1.0073639306640625
-0.331566953125,-0.0759058349609375,1.0073639306640625
-0.14969484375,-0.0464949951171875,0.9301932177734376
-0.33229638671875,-0.0788469189453125,0.8638362353515625
-0.27345541015625,-0.015368522949218751,0.9665666748046875
-0.247925234375,-0.09428760986328125,0.9631259423828125
-0.27491427734375,-0.07566074462890625,0.9557529443359375
-0.29242068359375,-0.0347306591796875,0.9714820068359376
-0.1988100390625,-0.0298288525390625,0.8854636962890625
-0.2255559375,-0.08056255126953125,0.8871840625
-0.317950859375,-0.01046671630859375,1.007609697265625
-0.20440236328125,-0.01144707763671875,0.9970417333984375
-0.288773515625,-0.12958061767578125,0.8879213623046875
-0.2240970703125,0.055462583007812497,0.9955671337890625
-0.25157240234375,-0.0055649096679687505,0.9599309765625
-0.3126016796875,-0.0724745703125,0.96484630859375
-0.2114535546875,0.03953171142578125,1.0594664501953126
-0.27540056640625,0.01208159423828125,1.016948828125
-0.37581925781250003,-0.008996174316406251,0.985490703125
-0.33959072265625,-0.00458454833984375,1.0294829248046875
-0.28464005859375,0.0378160791015625,0.958456376953125
-0.205131796875,0.00766996826171875,0.9835245703125
-0.29533841796875,-0.08546435791015625,1.0063808642578125
-0.2878009375,-0.04379900146484375,1.0722463134765625
-0.23357970703125,-0.02419177490234375,0.9675497412109375
-0.333512109375,-0.0827683642578125,0.811979482421875
-0.27394169921875,-0.07271966064453125,0.832623876953125
-0.3476144921875,-0.02223105224609375,0.92945591796875
-0.27394169921875,0.0152677685546875,0.990897568359375
-0.3553951171875,-0.09575815185546875,0.9336339501953125
-0.2513292578125,-0.01781942626953125,1.0132623291015626
-0.3126016796875,-0.037916833496093746,1.0004824658203124
-0.29339326171875,-0.040122646484374996,1.0058893310546875
-0.37581925781250003,0.0294830078125,1.0309575244140625
-0.35199109375,-0.05360261474609375,0.924049052734375
-0.29582470703125,-0.047965537109375,0.8500733056640625
-0.3573402734375,-0.01291761962890625,0.9262609521484375
-0.236254296875,-0.029338671875,0.977134638671875
-0.25692158203125,-0.0567887890625,0.926015185546875
-0.3252451953125,0.00521906494140625,0.970253173828125
-0.32500205078125,-0.046740085449218746,0.9363373828125
-0.31697828125,-0.05605351806640625,0.8301662109375
-0.26032560546875,-0.03301502685546875,0.80755568359375
-0.335457265625,-0.05654369873046875,0.9129895556640625
-0.378250703125,-0.05090662109375,0.987948369140625
-0.2114535546875,0.00276816162109375,0.9709904736328125
-0.347128203125,0.04737460205078125,0.8982435595703124
-0.30530734375,-0.0092412646484375,0.89996392578125
-0.2377131640625,0.0280124658203125,0.9975332666015625
-0.352963671875,0.00472888427734375,1.0191607275390624
-0.236254296875,-0.024436865234375,0.9537868115234375
-0.29387955078125,0.0069346972656249995,0.971236240234375
-0.16987583984375,-0.05360261474609375,0.95501564453125
-0.3476144921875,-0.0729647509765625,0.9503460791015625
-0.268349375,0.057913486328125,1.0147369287109376
-0.21655958984375,-0.10605194580078126,0.914709921875
-0.24379177734375002,0.062080021972656246,0.9975332666015625
-0.2659179296875,-0.04379900146484375,1.0398051220703124
-0.20926525390625,-0.015368522949218751,0.9677955078125
-0.1861665234375,0.04443351806640625,0.99040603515625
-0.35904228515625003,-0.12614935302734376,1.0314490576171875
-0.24938410156250002,-0.013652890625,1.107882470703125
-0.28464005859375,0.0231106591796875,1.0464408203125
-0.29728357421875,-0.05090662109375,1.02088109375
-0.226528515625,-0.067572763671875,1.010558896484375
-0.30749564453125,-0.0435539111328125,1.0289913916015625
-0.31333111328125,-0.02419177490234375,1.0614325830078124
-0.26129818359375,-0.10311086181640625,0.9881941357421875
-0.282938046875,-0.01781942626953125,0.9940925341796875
-0.21461443359375,-0.01291761962890625,1.0395593554687501
-0.18227621093750002,-0.1357078759765625,0.938795048828125
-0.0966893359375,-0.0210056005859375,0.933879716796875
-0.109819140625,-0.07860182861328124,0.958456376953125
-0.2668905078125,-0.05458297607421875,1.06511908203125
-0.2095083984375,-0.061690595703125004,1.1801378515625
-0.203186640625,0.057913486328125,1.2585373974609375
-0.329621796875,-0.0210056005859375,1.1155012353515625
-0.34639876953125,-0.05409279541015625,0.997779033203125
-0.143859375,-0.0239466845703125,0.959439443359375
-0.31381740234375,-0.07835673828125,0.9483799462890625
-0.25740787109375,-0.02149578125,0.95108337890625
-0.25400384765625,-0.08497417724609375,0.894557060546875
-0.28391062499999997,0.020659755859375,0.8938197607421875
-0.13291787109375,-0.0562986083984375,0.9429730810546875
-0.34421046875,0.04149243408203125,1.0597122167968749
-0.29922873046875,-0.07713128662109375,0.9677955078125
-0.27880458984375,0.01845394287109375,0.8913620947265625
-0.29776986328125,-0.008996174316406251,0.8864467626953125
-0.267376796875,0.0012976196289062499,0.8498275390625
-0.18689595703125,-0.05899460205078125,0.8584293701171875
-0.26956509765625,0.0760501708984375,0.9552614111328125
-0.29631099609375,0.0020328906249999995,0.9206083203125
-0.25643529296875,0.03855135009765625,0.97271083984375
-0.23066197265625,0.0294830078125,1.1469593603515624
-0.2873146484375,0.089285048828125,1.172764853515625
-0.28172232421875,-0.02737794921875,1.119679267578125
-0.27491427734375,-0.05458297607421875,1.06806828125
-0.294608984375,-0.030073942871093752,0.955507177734375
-0.23649744140625,-0.06193568603515625,0.929947451171875
-0.3894353515625,-0.0249270458984375,0.90193005859375
-0.25449013671875,-0.01953505859375,0.8245135791015625
-0.23309341796875,-0.04870080810546875,0.7439021337890624
-0.38481560546875,-0.12565917236328125,0.8557259375
-0.29679728515625,-0.0337502978515625,0.9881941357421875
-0.4098594921875,-0.025662316894531252,1.0307117578125
-0.34931650390625,-0.09012107421875,1.043983154296875
-0.2435486328125,0.04051207275390625,0.9670582080078125
-0.32305689453124997,-0.0646316796875,0.888658662109375
-0.27734572265625,0.0397768017578125,0.9820499707031249
-0.39478453125,0.07727562255859374,1.0766701123046876
-0.37581925781250003,0.01453249755859375,1.06118681640625
-0.35320681640625,-0.046004814453125,1.02088109375
-0.24087404296875,0.10202974609375,0.9842618701171875
-0.29509527343749997,0.0044837939453125,0.9090572900390625
-0.249870390625,-0.0200252392578125,0.8970147265625
-0.228473671875,0.0035034326171875,0.9992536328125
-0.25862359375,-0.06144550537109375,1.0818312109375
-0.23941517578125,0.02237538818359375,1.075441279296875
-0.23309341796875,-0.08497417724609375,0.9675497412109375
-0.185680234375,0.01575794921875,0.9754142724609375
-0.2688356640625,-0.0494360791015625,0.98254150390625
-0.28026345703125,-0.032279755859375,1.070525947265625
-0.35223423828125,0.0137972265625,1.0597122167968749
-0.19613544921875,0.0201695751953125,1.05135615234375
-0.2892598046875,-0.02321141357421875,1.0176861279296876
-0.28755779296875,0.01698340087890625,1.03759322265625
-0.2435486328125,-0.02027032958984375,0.94518498046875
-0.376305546875,-0.02615249755859375,0.914218388671875
-0.247925234375,0.038306259765625,1.003677431640625
-0.3067662109375,-0.1053166748046875,0.8943112939453125
-0.28853037109375,-0.0006631030273437505,1.011541962890625
-0.32840607421875,-0.0006631030273437505,1.0211268603515624
-0.45411179687500003,0.019679394531249998,0.9193794873046874
-0.18689595703125,0.0451687890625,0.9183964208984375
-0.3923530859375,-0.04036773681640625,0.907336923828125
-0.419098984375,0.05374695068359375,0.993355234375
-0.2347954296875,0.014777587890624999,0.9410069482421874
-0.33424154296874997,-0.0376717431640625,0.9459222802734375
-0.3456693359375,0.0603643896484375,1.0865007763671874
-0.253760703125,-0.015368522949218751,1.0830600439453124
-0.3923530859375,0.017718671875,1.108865537109375
-0.3077387890625,0.03462990478515625,1.1132893359375
-0.2328502734375,0.106931552734375,1.045949287109375
-0.33132380859375,-0.06634731201171876,0.9975332666015625
-0.42031470703125,-0.013652890625,1.040050888671875
-0.3126016796875,0.0182088525390625,0.975168505859375
-0.31722142578125,-0.13007079833984375,0.8073099169921875
-0.31576255859375,-0.02615249755859375,0.7928096875
-0.226528515625,0.01208159423828125,0.8830060302734375
-0.31430369140625003,-0.0567887890625,0.8783364648437499
-0.31284482421875,-0.01585870361328125,0.9638632421875
-0.36633662109375,-0.004829638671875,0.961897109375
-0.23406599609375,0.0348749951171875,0.92355751953125
-0.30117388671875,-0.03742665283203125,0.866048134765625
-0.32646091796875,0.023845930175781252,0.946168046875
-0.2989855859375,0.034384814453125,0.9763973388671875
-0.27102396484375,0.0015427099609375003,0.9685328076171875
-0.40937320312500003,0.01575794921875,0.9704989404296875
-0.44365658203125,-0.02174087158203125,0.966320908203125
-0.27588685546875,0.06306038330078124,0.9390408154296875
-0.42128728515625,-0.11757119140625,0.854251337890625
-0.32354318359375,-0.0376717431640625,0.7829790234375
-0.15820490234375,0.02286556884765625,0.81738634765625
-0.47040248046875,0.0270321044921875,0.99630443359375
-0.45313921875,-0.06781785400390625,1.0039231982421875
-0.23114826171875,-0.06732767333984375,0.8183694140625
-0.2484115234375,0.059874208984374996,0.7645465283203124
-0.327676640625,0.00619942626953125,0.7773263916015625
-0.25546271484375,0.046149150390625,0.900455458984375
-0.3690112109375,0.1079119140625,1.1115689697265625
-0.35174794921875,0.01845394287109375,1.1769428857421875
-0.292663828125,0.04590406005859375,1.1115689697265625
-0.46019041015625,0.1260485986328125,1.07691587890625
-0.39259623046875003,0.0142874072265625,0.9739396728515625
-0.3028758984375,-0.0661022216796875,0.8210728466796875
-0.23139140625,-0.07173929931640625,0.755944697265625
-0.25059982421875,-0.02713285888671875,0.6925369140625
-0.24281919921875,-0.030073942871093752,0.7733941259765625
-0.27929087890625,0.0103659619140625,0.97074470703125
-0.25838044921875,-0.01144707763671875,1.1290183984375
-0.37606240234375,0.028257556152343752,1.3027753857421875
-0.458002109375,0.09835339111328124,1.373310400390625
-0.45727267578124997,0.03266918212890625,1.1703071875
-0.37168580078125,-0.12958061767578125,0.9881941357421875
-0.292663828125,-0.0396324658203125,0.8498275390625
-0.19953947265625,-0.0001729223632812504,0.7296476708984375
-0.26324333984375,-0.14109986328125,0.74660556640625
-0.296554140625,-0.068553125,0.8662939013671875
-0.30068759765624997,0.05619785400390625,0.9242948193359375
-0.39308251953125,-0.09771887451171875,1.0638902490234374
-0.4900971875,-0.00948635498046875,1.190460048828125
-0.3777644140625,0.11011772705078125,1.106899404296875
-0.3019033203125,-0.0013983740234375002,0.9960586669921875
-0.339347578125,0.05521749267578125,0.9262609521484375
-0.2795340234375,0.01796376220703125,0.9247863525390625
-0.300444453125,-0.02370159423828125,1.0004824658203124
-0.30555048828125,0.05423713134765625,1.0284998583984375
-0.2980130078125,0.0005623486328125002,0.9360916162109375
-0.3612305859375,0.05497240234375,0.9498545458984375
-0.273212265625,-0.0376717431640625,0.945676513671875
-0.36755234375,-0.1474722119140625,0.8343442431640625
-0.045872128906250004,-0.0371815625,1.0653648486328124
-0.263486484375,0.05717821533203125,1.3420980419921875
-0.673914453125,-0.0651218603515625,1.1218911669921874
-0.41010263671875,0.00865032958984375,0.7935469873046875
-0.14264365234375,0.03144373046875,0.749554765625
-0.279047734375,-0.07026875732421875,0.7679872607421875
-0.1414279296875,-0.049926259765625,0.937811982421875
-0.36147373046875,0.048109873046875,1.1484339599609374
-0.45532751953125,0.0008074389648437498,1.1174673681640626
-0.24136033203125,-0.0464949951171875,0.8572005371093749
-0.23309341796875,0.1250682373046875,0.8790737646484375
-0.28950294921874997,-0.00801581298828125,1.094119541015625
-0.40815748046875,0.0103659619140625,1.082322744140625
-0.3690112109375,0.09443194580078125,0.9321593505859375
-0.30311904296875003,-0.1053166748046875,0.7512751318359375
-0.207076953125,-0.10703230712890625,0.65419732421875
-0.16136578125,-0.034240478515625,0.771673759765625
-0.1827625,-0.0474753564453125,1.061678349609375
-0.27540056640625,-0.02149578125,1.3170298486328125
-0.49982296875,0.10129447509765625,1.430328251953125
-0.53994181640625,0.0005623486328125002,1.1838243505859376
-0.26470220703125,-0.10409122314453124,0.8048522509765625
-0.12708240234375,-0.045024453125,0.5981625390625
-0.10130908203125,-0.09036616455078125,0.650756591796875
-0.29387955078125,-0.0631611376953125,0.7004014453125
-0.2639727734375,-0.035711020507812496,0.8144371484375
-0.3126016796875,-0.1180613720703125,0.8372934423828124
-0.37922328125,0.049090234375,0.916184521484375
-0.19564916015625,0.0025230712890624996,0.9847534033203125
-0.25400384765625,-0.0999246875,1.0226014599609374
-0.39648654296875,0.1133039013671875,1.160968056640625
-0.3573402734375,0.09100068115234375,1.2133163427734375
-0.43149935546875,0.0505607763671875,1.14376439453125
-0.33861814453125,0.10227483642578125,1.0697886474609375
-0.421044140625,0.17531175537109375,0.9501003125
-0.2513292578125,0.028257556152343752,0.9193794873046874
-0.3194097265625,-0.004829638671875,0.8412257080078125
-0.3359435546875,0.05815857666015625,0.8065726171875
-0.23114826171875,-0.02909358154296875,0.9218371533203125
-0.28974609375,-0.0033590966796874996,1.04939001953125
-0.44171142578125,0.0691876416015625,1.09952640625
-0.4458448828125,-0.0268877685546875,1.13786599609375
-0.31746457031249997,0.00963069091796875,1.106899404296875
-0.528027734375,0.0025230712890624996,1.010558896484375
-0.21655958984375,0.0054641552734375,0.989914501953125
-0.2027003515625,-0.07664110595703125,0.918150654296875
-0.4589746875,-0.09379742919921875,0.8997181591796874
-0.27977716796875,-0.0396324658203125,0.9523122119140625
-0.29922873046875,-0.04477936279296875,0.9011927587890625
-0.38432931640625,0.010611052246093749,0.9088115234375
-0.24962724609375,0.09884357177734375,0.9051250244140625
-0.3388612890625,0.03536517578125,0.810013349609375
-0.33715927734375,0.07384435791015626,0.713672841796875
-0.30627992187499997,-0.04134809814453125,0.588823408203125
-0.16914640625,-0.0013983740234375002,0.6200357666015625
-0.20683380859375,-0.04477936279296875,0.73480876953125
-0.35369310546875,-0.02149578125,0.810996416015625
-0.2921775390625,-0.07026875732421875,0.9508376123046876
-0.267376796875,-0.08105273193359375,0.997779033203125
-0.32159802734375,-0.02713285888671875,1.078390478515625
-0.2386857421875,0.05178622802734375,1.1169758349609376
-0.25643529296875,0.04982550537109375,1.1449932275390624
-0.31333111328125,0.0740894482421875,1.2354353369140625
-0.3641483203125,0.12163697265625,1.229782705078125
-0.22968939453125,-0.0553182470703125,1.11820466796875
-0.35126166015625,0.14516564453125,1.1395863623046876
-0.30895451171875,0.07531489990234375,1.0673309814453125
-0.16185207031249998,-0.06977857666015624,1.0791277783203126
-0.31697828125,0.10619628173828125,1.2093840771484374
-0.52778458984375,0.02531647216796875,1.1880023828125
-0.346155625,-0.04698517578125,1.09067880859375
-0.25862359375,0.10031411376953125,1.042017021484375
-0.42858162109375,0.0642858349609375,0.9704989404296875
-0.30117388671875,-0.0411030078125,1.00810123046875
-0.2756437109375,0.0642858349609375,0.9414984814453125
-0.31041337890625,-0.0317895751953125,0.891607861328125
-0.22944625,-0.1111988427734375,0.9051250244140625
-0.349073359375,-0.02860340087890625,0.9793465380859375
-0.21899103515625,-0.06267095703125,1.028254091796875
-0.3835998828125,-0.00360418701171875,1.000728232421875
-0.1890842578125,0.05668803466796875,0.93437125
-0.317950859375,0.03928662109375,0.92748978515625
-0.335457265625,0.103010107421875,1.0149826953125
-0.32889236328125,0.00325834228515625,0.9773804052734375
-0.24573693359375,-0.0072805419921875,0.977134638671875
-0.33326896484375,0.03217900146484375,1.0874838427734375
-0.1492085546875,-0.104826494140625,1.020389560546875
-0.333512109375,0.02874773681640625,0.9523122119140625
-0.2333365625,-0.055073156738281254,0.9940925341796875
-0.28196546875,0.030463369140625002,1.0461950537109375
-0.3524773828125,0.05668803466796875,1.1091113037109375
-0.2454937890625,0.033404453125,1.0471781201171875
-0.40523974609375,0.09026541015625,0.943710380859375
-0.13194529296875,0.0280124658203125,0.8773533984374999
-0.35709712890625,0.02360083984375,0.8852179296875
-0.37168580078125,0.0623251123046875,0.846386806640625
-0.1978374609375,-0.0055649096679687505,0.8380307421875
-0.39502767578125,0.011346323242187501,0.900455458984375
-0.335457265625,0.08168724853515624,0.9405154150390624
-0.210967265625,-0.0229663232421875,0.9041419580078125
-0.3884627734375,-0.02958376220703125,0.9188879541015624
-0.273212265625,0.03413972412109375,0.97467697265625
-0.20294349609375,-0.0254172265625,0.911269189453125
-0.39794541015625,-0.02370159423828125,0.9577190771484375
-0.22434021484375,0.0294830078125,0.9994993994140625
-0.4011062890625,0.0133070458984375,0.9724650732421874
-0.4079143359375,-0.0011532836914062497,0.871946533203125
-0.18835482421875,0.07041309326171875,0.8154202148437499
-0.255705859375,0.008895419921875,0.802148818359375
-0.356853984375,0.06600146728515625,0.9223286865234375
-0.21850474609375,-0.07762146728515625,0.985982236328125
-0.37995271484375,0.033404453125,1.0543053515625
-0.3223274609375,0.04982550537109375,1.0594664501953126
-0.1988100390625,0.01110123291015625,0.943710380859375
-0.35199109375,-0.05213207275390625,0.8254966455078125
-0.30871136718750003,0.0008074389648437498,0.868997333984375
-0.1501811328125,0.0476196923828125,0.930438984375
-0.35126166015625,-0.05213207275390625,0.8761245654296875
-0.28634207031250003,0.093206494140625,1.011541962890625
-0.28415376953125,-0.0396324658203125,0.9965502001953125
-0.30627992187499997,0.06502110595703126,0.9646005419921875
-0.268349375,-0.0317895751953125,0.912252255859375
-0.23941517578125,0.01575794921875,0.936828916015625
-0.376305546875,0.0231106591796875,0.915201455078125
-0.2445212109375,-0.0038492773437499997,0.9650920751953125
-0.29679728515625,0.0358553564453125,0.8712092333984375
-0.28123603515625,0.0309535498046875,0.96288017578125
-0.29485212890625,0.0907555908203125,1.0147369287109376
-0.39210994140625,-0.04919098876953125,0.9331424169921875
-0.24962724609375,0.0407571630859375,0.9931094677734374
-0.32889236328125,0.0201695751953125,0.95108337890625
-0.2425760546875,-0.0210056005859375,0.956490244140625
-0.27418484375,0.04320806640625,0.9129895556640625
-0.33521412109375,-0.03889719482421875,0.8930824609375
-0.2766162890625,0.0280124658203125,0.9262609521484375
-0.3612305859375,-0.0504164404296875,0.8751414990234375
-0.27199654296875,0.00178780029296875,0.9609140429687499
-0.312115390625,0.04320806640625,0.946168046875
-0.23017568359375,0.01306195556640625,0.9233117529296875
-0.2425760546875,-0.01561361328125,0.9646005419921875
-0.35199109375,0.013552136230468751,1.0235845263671874
-0.27929087890625,-0.0011532836914062497,1.037101689453125
-0.22579908203125,-0.010221625976562499,0.93535431640625
-0.31333111328125,0.0123266845703125,0.92159138671875
-0.31187224609374997,-0.0719843896484375,0.9768888720703125
-0.16744439453124998,0.0221302978515625,1.03169482421875
-0.37144265625,0.0819323388671875,1.046932353515625
-0.282938046875,-0.02762303955078125,0.9837703369140625
-0.24962724609375,0.04786478271484375,0.9488714794921875
-0.30919765625,-0.00777072265625,0.965829375
-0.27151025390625,0.04296297607421875,1.0176861279296876
-0.2902323828125,0.03266918212890625,0.9704989404296875
-0.3349709765625,0.00521906494140625,0.9709904736328125
-0.31722142578125,0.02776737548828125,0.946659580078125
-0.20586123046875,0.08462833251953125,1.0228472265625
-0.461892421875,0.05105095703125,1.001219765625
-0.22871681640625,-0.00997653564453125,1.02088109375
-0.38432931640625,0.0417375244140625,0.9768888720703125
-0.30652306640625,-0.010711806640625,0.99040603515625
-0.273212265625,-0.05654369873046875,0.929947451171875
-0.25692158203125,0.0672269189453125,0.961897109375
-0.34737134765625,-0.12516899169921875,0.90193005859375
-0.28634207031250003,0.07237381591796875,1.01203349609375
-0.29047552734375,0.03708080810546875,0.9815584374999999
-0.31089966796875,0.07065818359375,0.9360916162109375
-0.28634207031250003,0.10276501708984374,0.965829375
-0.31138595703125,-0.0011532836914062497,0.977626171875
-0.2707808203125,0.048109873046875,1.0395593554687501
-0.3223274609375,-0.01144707763671875,1.013508095703125
-0.28707150390625,-0.022476142578125,1.04545775390625
-0.31333111328125,-0.06046514404296875,1.0174403613281249
-0.32257060546875,0.04443351806640625,1.0909245751953125
-0.298499296875,-0.055808427734375,1.0112961962890625
-0.33861814453125,0.0172284912109375,0.9528037451171875
-0.3194097265625,-0.01193725830078125,0.959439443359375
-0.27734572265625,0.04100225341796875,0.98057537109375
-0.23528171875,-0.006790361328125,0.9498545458984375
-0.25011353515625,0.00619942626953125,0.871946533203125
-0.31916658203125,0.0172284912109375,0.9262609521484375
-0.19370400390625,-0.02419177490234375,0.9464138134765625
-0.39794541015625,-0.01781942626953125,0.9011927587890625
-0.29363640625,0.0427178857421875,0.9798380712890625
-0.27296912109375,0.0397768017578125,0.9886856689453125
-0.33813185546875,-0.0641414990234375,0.9965502001953125
-0.34226531250000003,0.1044806494140625,1.0619241162109374
-0.366579765625,0.01747358154296875,0.9188879541015624
-0.31089966796875,0.00865032958984375,0.9159387548828125
-0.33764556640625,0.03315936279296875,0.9815584374999999
-0.2299325390625,0.04884514404296875,0.97369390625
-0.37460353515625,-0.01095689697265625,0.943710380859375
-0.25594900390624997,0.057913486328125,0.9149556884765625
-0.228473671875,0.059874208984374996,0.85277673828125
-0.3544225390625,7.216796875000007e-05,0.89013326171875
-0.2250696484375,0.0946770361328125,1.070525947265625
-0.36147373046875,-0.01095689697265625,1.0299744580078125
-0.35393625,0.03610044677734375,1.01989802734375
-0.30263275390625,-0.0308092138671875,0.9419900146484375
-0.330594375,0.011346323242187501,0.938303515625
-0.27005138671875,0.01649322021484375,0.978117705078125
-0.25059982421875,-0.059729873046875,0.9886856689453125
-0.36463460937500003,0.06281529296875,1.0466865869140625
-0.23139140625,-0.03350520751953125,0.9759058056640625
-0.34980279296875,0.07727562255859374,0.9277355517578125
-0.23139140625,0.0037485229492187503,0.9065996240234375
-0.296554140625,0.0878145068359375,0.935845849609375
-0.31527626953125,0.008895419921875,0.9449392138671875
-0.30117388671875,-0.01928996826171875,1.0039231982421875
-0.304334765625,-0.0327699365234375,1.0334151904296875
-0.30530734375,-0.0612004150390625,0.985982236328125
-0.29631099609375,0.033404453125,0.97860923828125
-0.312115390625,-0.09036616455078125,0.9614055761718749
-0.38724705078125,-0.09722869384765626,0.9363373828125
-0.20877896484375,0.0603643896484375,1.0299744580078125
-0.41058892578125,-0.03840701416015625,0.9940925341796875
-0.27880458984375,-0.02860340087890625,0.9360916162109375
-0.30457791015625,0.038306259765625,0.9198710205078124
-0.25400384765625,-0.03889719482421875,0.86064126953125
-0.26859251953125,0.02335574951171875,0.8353273095703125
-0.2513292578125,0.07065818359375,0.934862783203125
-0.3116291015625,0.00766996826171875,0.9242948193359375
-0.30506419921875,0.05178622802734375,0.9520664453125
-0.312115390625,0.11305881103515625,1.028745625
-0.3135742578125,-0.03497574951171875,1.016457294921875
-0.30944080078125,0.05570767333984375,1.0857634765625
-0.2814791796875,0.021640117187500002,1.047915419921875
-0.34834392578125,0.02237538818359375,1.0348897900390626
-0.29582470703125,0.0309535498046875,1.0520934521484375
-0.26518849609375,0.019679394531249998,1.00023669921875
-0.34202216796875,0.013552136230468751,0.97369390625
-0.201241484375,0.03168882080078125,0.9714820068359376
-0.25497642578125,-0.0175743359375,0.8613785693359375
-0.28196546875,-0.028113220214843748,0.870963466796875
-0.23357970703125,0.05815857666015625,0.9154472216796875
-0.25400384765625,-0.02149578125,0.8923451611328125
-0.3485870703125,0.05105095703125,0.993355234375
-0.28585578125,0.03953171142578125,0.995812900390625
-0.28269490234375,-0.008751083984375,0.93338818359375
-0.37071322265625,0.03413972412109375,0.9449392138671875
-0.23528171875,0.01796376220703125,1.0226014599609374
-0.38043900390625,0.028502646484374998,1.0058893310546875
-0.312115390625,0.022620478515625,1.0324321240234375
-0.32889236328125,0.06257020263671875,0.9877026025390625
-0.2678630859375,0.0231106591796875,0.9110234228515625
-0.27491427734375,-0.03497574951171875,0.8458952734375
-0.249870390625,0.05668803466796875,0.856217470703125
-0.2707808203125,0.064776015625,0.867522734375
-0.31965287109375,-0.028113220214843748,0.8407341748046875
-0.25789416015625,-0.020515419921875,0.9134810888671875
-0.29631099609375,0.03757098876953125,0.9734481396484375
-0.29776986328125,-0.01487834228515625,1.0393135888671874
-0.382141015625,0.05913893798828125,1.083305810546875
-0.2688356640625,0.026051743164062502,1.0363643896484376
-0.37752126953125,0.03217900146484375,0.9641090087890625
-0.2299325390625,0.01698340087890625,0.99630443359375
-0.25254498046875,0.03659062744140625,0.95501564453125
-0.37995271484375,0.0338946337890625,0.9242948193359375
-0.199296328125,-0.02860340087890625,0.8677685009765626
-0.2338228515625,0.04541387939453125,0.8427003076171875
-0.25546271484375,-0.0072805419921875,0.859166669921875
-0.2892598046875,-0.03497574951171875,0.8967689599609375
-0.21655958984375,0.0338946337890625,0.969761640625
-0.31284482421875,0.0378160791015625,1.021372626953125
-0.304334765625,0.0015427099609375003,1.054796884765625
-0.315033125,0.0584036669921875,1.02776255859375
-0.34226531250000003,0.0133070458984375,0.9926179345703126
-0.3267040625,0.011346323242187501,0.9351085498046875
-0.29047552734375,0.0701680029296875,0.872929599609375
-0.292663828125,0.0012976196289062499,0.8655566015625
-0.29169125,0.0201695751953125,0.885709462890625
-0.2488978125,0.096147578125,0.9228202197265625
-0.2853694921875,0.0495804150390625,0.9326508837890625
-0.32281375,0.09149086181640625,0.925032119140625
-0.27929087890625,0.0887948681640625,0.9085657568359375
-0.30020130859375,0.08756941650390625,0.9734481396484375
-0.3262177734375,0.02972809814453125,0.9906518017578125
-0.35904228515625003,0.04737460205078125,1.01596576171875
-0.32013916015625,0.1495772705078125,1.086255009765625
-0.3388612890625,-0.05654369873046875,0.8884128955078126
-0.33083751953125,0.0686974609375,0.9297016845703125
-0.29825615234375,0.01698340087890625,0.9601767431640625
-0.22725794921875,-0.02370159423828125,0.9193794873046874
-0.2639727734375,0.04933532470703125,0.9459222802734375
-0.27296912109375,-0.048945898437499996,0.9311762841796875
-0.296554140625,0.0030132519531249997,0.9326508837890625
-0.24136033203125,0.061834931640625,1.004660498046875
-0.25935302734375,-0.01561361328125,0.99040603515625
-0.2746711328125,0.04345315673828125,1.074458212890625
-0.40037685546875,0.0025230712890624996,1.1054248046875
-0.3048210546875,0.05889384765625,1.05135615234375
-0.29509527343749997,0.06281529296875,0.9503460791015625
-0.3651208984375,-0.07443529296875,0.8830060302734375
-0.27053767578125,0.04933532470703125,0.9813126708984374
-0.3369161328125,-0.016593974609375,0.8692431005859375
-0.314060546875,0.0030132519531249997,0.85474287109375
-0.29169125,-0.04772044677734375,0.788385888671875
-0.277102578125,0.08021670654296875,0.83508154296875
-0.33253953125,0.0280124658203125,0.8348357763671875
-0.22725794921875,0.02972809814453125,0.9572275439453125
-0.33424154296874997,0.10987263671875,0.9641090087890625
-0.3203823046875,0.04296297607421875,0.9552614111328125
-0.230418828125,0.0897752294921875,0.9719735400390626
-0.3155194140625,0.11452935302734375,0.9493630126953125
-0.37703498046875,0.03217900146484375,0.9088115234375
-0.28026345703125,0.030463369140625002,0.9877026025390625
-0.32597462890625,0.06281529296875,1.0004824658203124
-0.34056330078125,0.02678701416015625,0.932896650390625
-0.2177753125,0.0593840283203125,0.9965502001953125
-0.26421591796875,0.03266918212890625,0.983033037109375
-0.28609892578125,0.05913893798828125,0.9547698779296875
-0.218747890625,0.0446786083984375,1.0093300634765625
-0.25594900390624997,0.048109873046875,1.03759322265625
-0.3028758984375,0.03757098876953125,0.9773804052734375
-0.32402947265625,0.05227640869140625,1.0346440234375
-0.28026345703125,0.01404231689453125,1.0103131298828125
-0.35199109375,0.06453092529296875,0.9410069482421874
-0.315033125,0.01845394287109375,0.97271083984375
-0.27515742187500003,0.05889384765625,0.969761640625
-0.333512109375,-0.060710234375,0.9503460791015625
-0.28901666015625,0.03144373046875,1.012525029296875
-0.24233291015625,0.08805959716796875,0.8879213623046875
-0.2484115234375,-0.0268877685546875,0.8869382958984375
-0.27491427734375,0.01649322021484375,1.016948828125
-0.32111173828125,-0.0141430712890625,1.02383029296875
-0.25254498046875,0.05668803466796875,1.0385762890625
-0.29728357421875,7.216796875000007e-05,1.0088385302734375
-0.39162365234375,0.03217900146484375,0.988931435546875
-0.2143712890625,0.019434304199218752,0.9916348681640625
-0.2980130078125,0.0672269189453125,0.99433830078125
-0.37119951171875,0.0535018603515625,1.016457294921875
-0.21996361328125,-0.05017135009765625,0.9464138134765625
-0.29169125,0.0417375244140625,0.9154472216796875
-0.2931501171875,0.01551285888671875,0.9572275439453125
-0.2542469921875,0.046149150390625,0.9783634716796875
-0.30700935546875,0.057668395996093746,0.988931435546875
-0.28196546875,0.050070595703125,1.033169423828125
-0.2785614453125,0.04394333740234375,1.0024485986328124
-0.29242068359375,0.10080429443359375,0.9591936767578125
-0.31187224609374997,0.02874773681640625,0.9365831494140625
-0.34250845703125,0.03021827880859375,0.9626344091796875
-0.30360533203125,0.10595119140625,1.0373474560546876
-0.32937865234375,0.00521906494140625,0.9739396728515625
-0.29971501953125,0.0368357177734375,1.0117877294921875
-0.30409162109375,0.02752228515625,1.0245675927734375
-0.27345541015625,0.05031568603515625,1.0953483740234375
-0.3651208984375,0.0476196923828125,1.056763017578125
-0.386031328125,0.06943273193359376,1.0373474560546876
-0.36366203125,-0.008996174316406251,0.9238032861328125
-0.2221519140625,-0.00777072265625,0.8530225048828125
-0.31381740234375,0.08560869384765625,0.7468513330078125
-0.09887763671875,0.0020328906249999995,0.762826162109375
-0.224583359375,0.03364954345703125,1.021372626953125
-0.4380642578125,0.14001874755859375,1.2192147412109375
-0.4244481640625,0.01404231689453125,1.2256046728515626
-0.2955815625,0.08242251953125,1.156052724609375
-0.47234763671875,0.03659062744140625,1.0063808642578125
-0.28561263671875,-0.028113220214843748,0.887675595703125
-0.1676875390625,-0.08301345458984374,0.749554765625
-0.3033621875,-0.05115171142578125,0.721537373046875
-0.22361078125,0.0054641552734375,0.7527497314453125
-0.19613544921875,-0.0788469189453125,0.85277673828125
-0.382141015625,0.08242251953125,1.0425085546875
-0.2800203125,0.0289928271484375,1.090187275390625
-0.29533841796875,0.01796376220703125,1.08084814453125
-0.327676640625,0.14688127685546876,1.039067822265625
-0.3057936328125,0.0010525292968750002,0.964354775390625
-0.30992708984375,0.00325834228515625,0.9284728515625
-0.27637314453125,0.06453092529296875,0.9822957373046874
-0.3077387890625,-0.0016434643554687498,0.989914501953125
-0.3189234375,0.0436982470703125,0.9520664453125
-0.3787369921875,-0.01193725830078125,0.9065996240234375
-0.2464663671875,0.06257020263671875,0.9488714794921875
-0.27929087890625,0.02237538818359375,0.894557060546875
-0.2921775390625,0.05227640869140625,0.932896650390625
-0.2688356640625,-0.0494360791015625,0.9115149560546875
-0.300444453125,0.0564429443359375,0.9631259423828125
-0.2163164453125,0.05178622802734375,0.94911724609375
-0.34810078125,0.019679394531249998,0.8775991650390624
-0.22093619140625,0.06992291259765625,1.0189149609375
-0.195406015625,0.015022678222656249,1.2403506689453125
-0.39940427734375,0.069677822265625,1.3494710400390626
-0.59975537109375,0.04688442138671875,1.2349438037109375
-0.31235853515625,0.02531647216796875,0.9783634716796875
-0.24184662109375,-0.04821062744140625,0.81345408203125
-0.2411171875,-0.0553182470703125,0.8235305126953125
-0.27345541015625,-0.015368522949218751,0.86260740234375
-0.240144609375,-0.0778665576171875,0.9311762841796875
-0.3767918359375,0.023845930175781252,0.9891772021484375
-0.30530734375,0.06011929931640625,0.9395323486328125
-0.142886796875,0.01551285888671875,0.973202373046875
-0.2722396875,0.085363603515625,1.1577730908203125
-0.3748466796875,0.0451687890625,1.2319946044921875
-0.35661083984374997,0.012816865234374999,1.197341513671875
-0.44657431640625,0.06011929931640625,1.095594140625
-0.37314466796875,-0.014633251953124999,0.8889044287109376
-0.23066197265625,0.0182088525390625,0.84294607421875
-0.2464663671875,0.056933125,0.951574912109375
-0.294608984375,-0.05262225341796875,1.0506188525390625
-0.3213548828125,0.0672269189453125,1.127543798828125
-0.35952857421875,0.04688442138671875,1.0857634765625
-0.31770771484375,0.06673673828125,1.00416896484375
-0.29436583984375,-0.0161037939453125,0.975168505859375
-0.22725794921875,0.019679394531249998,1.0108046630859375
-0.2566784375,-0.02149578125,1.0437373876953124
-0.4322287890625,-0.05017135009765625,1.0334151904296875
-0.38676076171875,0.05472731201171875,0.90389619140625
-0.2484115234375,-0.04183827880859375,0.7296476708984375
-0.19710802734375,-0.11095375244140625,0.7640549951171876
-0.2333365625,0.01796376220703125,0.9183964208984375
-0.26081189453125,0.1093824560546875,1.053813818359375
-0.39940427734375,0.02237538818359375,1.1410609619140626
-0.42955419921875,-0.0268877685546875,1.0761785791015626
-0.2503566796875,0.140263837890625,1.0186691943359376
-0.2299325390625,0.03953171142578125,0.9852449365234375
-0.300444453125,0.08634396484375,1.1253318994140624
-0.3189234375,0.07041309326171875,1.1486797265625
-0.33035123046875,-0.09918941650390625,0.9557529443359375
-0.263486484375,-0.00777072265625,0.8078014501953125
-0.17717017578125,0.0250713818359375,0.7522581982421875
-0.2591098828125,0.04737460205078125,0.954524111328125
-0.35612455078125,0.0809519775390625,1.15949345703125
-0.46481015625,0.03855135009765625,1.2231470068359376
-0.34688505859375,0.04100225341796875,1.116730068359375
-0.28561263671875,-0.04306373046875,0.978117705078125
-0.20440236328125,0.0530116796875,1.0147369287109376
-0.26056875,-0.02125069091796875,1.1041959716796874
-0.3106565234375,0.03610044677734375,1.13786599609375
-0.33642984375,0.0574233056640625,1.0604495166015624
-0.3777644140625,-0.09281706787109376,0.89799779296875
-0.2104809765625,-0.016593974609375,0.876861865234375
-0.17765646484375,-0.0680629443359375,0.9478884130859375
-0.2561921484375,-0.029338671875,1.0594664501953126
-0.37995271484375,-0.05899460205078125,0.987948369140625
-0.3077387890625,-0.046740085449218746,0.880794130859375
-0.2435486328125,-0.04870080810546875,0.882760263671875
-0.3466419140625,-0.09722869384765626,0.9709904736328125
-0.2488978125,0.048109873046875,1.1027213720703124
-0.27783201171875,-0.0043394580078125,1.1135351025390625
-0.3962433984375,0.0133070458984375,1.03169482421875
-0.34639876953125,0.0137972265625,0.8471241064453126
-0.2396583203125,-0.01978014892578125,0.7517666650390625
-0.24184662109375,0.00717978759765625,0.65223119140625
-0.14191421875,0.00816014892578125,0.708757509765625
-0.2416034765625,0.0427178857421875,0.89799779296875
-0.28804408203125,-0.0406128271484375,0.955507177734375
-0.33521412109375,0.09418685546875,1.0825685107421874
-0.27248283203125,0.11060790771484375,1.039067822265625
-0.27199654296875,0.04982550537109375,0.9832788037109375
-0.2240970703125,0.07874616455078125,1.1125520361328125
-0.29631099609375,0.016738310546875,1.1892312158203124
-0.39356880859375,0.06109966064453125,1.209138310546875
-0.31868029296875,-0.020515419921875,1.0307117578125
-0.3874901953125,0.00178780029296875,0.884726396484375
-0.154557734375,0.024581201171875,0.8535140380859375
-0.2357680078125,-0.02517213623046875,0.8176321142578125
-0.30141703125,0.07825598388671876,0.8972604931640625
-0.24233291015625,0.0760501708984375,0.909303056640625
-0.3019033203125,-0.00262382568359375,0.863098935546875
-0.22093619140625,0.07139345458984375,0.889641728515625
-0.2532744140625,-0.0778665576171875,0.859166669921875
-0.28415376953125,0.0074248779296875,0.9292101513671875
-0.32500205078125,-0.03693647216796875,1.0117877294921875
-0.33910443359375,-0.04772044677734375,1.00810123046875
-0.2834243359375,-0.01046671630859375,0.9921264013671875
-0.29193439453125003,0.01600303955078125,0.974185439453125
-0.35393625,-0.012427438964843749,0.952557978515625
-0.18689595703125,0.0691876416015625,0.97369390625
-0.317950859375,-0.00801581298828125,0.9414984814453125
-0.280992890625,-0.013407800292968751,0.9768888720703125
-0.2027003515625,-0.012672529296875,0.9744312060546875
-0.28804408203125,0.030708459472656248,0.9242948193359375
-0.18300564453125,0.00325834228515625,0.8970147265625
-0.35855599609375,0.01306195556640625,0.8933282275390625
-0.30457791015625,-0.02468195556640625,0.9562444775390625
-0.25643529296875,0.0299731884765625,0.957473310546875
-0.32937865234375,0.0486000537109375,0.97664310546875
-0.294608984375,-0.0161037939453125,0.9709904736328125
-0.23309341796875,0.06306038330078124,0.980083837890625
-0.345183046875,0.01894412353515625,0.913235322265625
-0.23357970703125,-0.00801581298828125,0.89504859375
-0.21583015625000002,0.0348749951171875,0.8736668994140625
-0.34493990234375,-0.05482806640625,0.8987350927734374
-0.27491427734375,0.0270321044921875,0.9891772021484375
-0.23795630859375,0.03659062744140625,0.91077765625
-0.23698373046875,-0.03154448486328125,0.8928366943359375
-0.26761994140625,0.0025230712890624996,0.922574453125
-0.25862359375,-0.03595611083984375,0.9481341796875
-0.339347578125,0.00963069091796875,0.9183964208984375
-0.236254296875,0.0064445166015625,0.9061080908203125
-0.27588685546875,0.0466393310546875,0.9041419580078125
-0.3359435546875,0.016738310546875,0.876861865234375
-0.28755779296875,0.0191892138671875,0.9424815478515625
-0.27807515625,0.06894255126953125,0.9444476806640625
-0.25546271484375,-0.0072805419921875,0.9960586669921875
-0.25449013671875,0.00227798095703125,1.0299744580078125
-0.25400384765625,0.010856142578125,1.0385762890625
-0.2523018359375,-0.051886982421875,0.938795048828125
-0.24719580078125,0.02237538818359375,1.009575830078125
-0.30627992187499997,0.0064445166015625,0.9331424169921875
-0.24938410156250002,-0.046740085449218746,0.921099853515625
-0.32354318359375,0.00570924560546875,0.9783634716796875
-0.2503566796875,-0.01978014892578125,0.9375662158203125
-0.352963671875,0.0069346972656249995,0.9675497412109375
-0.24938410156250002,0.0005623486328125002,0.95894791015625
-0.27418484375,-0.02860340087890625,0.8761245654296875
-0.2912049609375,-0.0337502978515625,0.926998251953125
-0.2416034765625,0.0069346972656249995,0.95501564453125
-0.237226875,-0.07222947998046875,0.8599039697265625
-0.24573693359375,-0.03742665283203125,0.9481341796875
-0.28464005859375,0.05962911865234375,1.048898486328125
-0.26616107421875,0.024581201171875,0.994829833984375
-0.29363640625,-0.00262382568359375,0.933879716796875
-0.31722142578125,0.019434304199218752,0.9719735400390626
-0.27053767578125,0.07065818359375,0.9857364697265625
-0.2561921484375,-0.04306373046875,0.9356000830078125
-0.2814791796875,0.05619785400390625,0.970253173828125
-0.2834243359375,-0.00507472900390625,0.9449392138671875
-0.25011353515625,-0.008751083984375,0.942727314453125
-0.25157240234375,-0.035711020507812496,0.9616513427734374
-0.2931501171875,-0.00213364501953125,0.9768888720703125
-0.2649453515625,-0.01169216796875,1.021372626953125
-0.32986494140625,-0.01634888427734375,0.96681244140625
-0.191515703125,0.05325677001953125,0.9493630126953125
-0.267376796875,-0.10850284912109374,0.891607861328125
-0.3641483203125,-0.01193725830078125,0.9936010009765625
-0.20975154296875,0.01208159423828125,0.9808211376953125
-0.34834392578125,-0.03056412353515625,0.92748978515625
-0.187625390625,0.0427178857421875,0.9606682763671874
-0.27880458984375,0.05423713134765625,0.9124980224609375
-0.29874244140625,-0.0018885546875000003,0.934862783203125
-0.20197091796875,0.0044837939453125,0.9272440185546875
-0.2211793359375,0.08021670654296875,0.9604225097656249
-0.26081189453125,-0.02149578125,0.9410069482421874
-0.302389609375,0.06109966064453125,1.014491162109375
-0.30895451171875,0.067717099609375,1.0447204541015624
-0.2980130078125,-0.1038461328125,0.9552614111328125
-0.2639727734375,-0.0004180126953125,1.0063808642578125
-0.333512109375,-0.015368522949218751,1.0049062646484375
-0.2600824609375,0.0358553564453125,0.943710380859375
-0.28123603515625,0.01575794921875,0.894557060546875
-0.28707150390625,0.0008074389648437498,0.9616513427734374
-0.22701480468750002,-0.0494360791015625,0.9351085498046875
-0.3072525,-0.016593974609375,0.948625712890625
-0.24087404296875,0.0037485229492187503,0.9390408154296875
-0.2211793359375,-0.03350520751953125,0.9773804052734375
-0.32475890625,0.0003172583007812497,1.036118623046875
-0.30360533203125,-0.038161923828125,1.095594140625
-0.32354318359375,0.0044837939453125,1.0307117578125
-0.3155194140625,0.01698340087890625,0.9518206787109375
-0.24038775390625,-0.0582593310546875,0.9085657568359375
-0.28609892578125,-0.029338671875,0.9007012255859375
-0.28318119140625,-0.020515419921875,0.930438984375
-0.27053767578125,-0.010221625976562499,0.9110234228515625
-0.29922873046875,-0.02174087158203125,0.9405154150390624
-0.29752671875000003,0.0191892138671875,0.949608779296875
-0.20586123046875,0.03266918212890625,0.9306847509765624
-0.32354318359375,0.081442158203125,1.0108046630859375
-0.09109701171875,-0.063651318359375,1.0329236572265625
-0.3515048046875,0.0358553564453125,1.1454847607421874
-0.4045103125,0.05913893798828125,1.0815854443359374
-0.20804953125,-0.04036773681640625,1.001219765625
-0.33715927734375,0.04198261474609375,0.9326508837890625
-0.286828359375,0.0358553564453125,0.91765912109375
-0.19832375,-0.05164189208984375,0.9233117529296875
-0.28585578125,0.09051050048828126,0.89504859375
-0.244034921875,-0.03595611083984375,0.8731753662109375
-0.18884111328125,-0.0180645166015625,0.9115149560546875
-0.25400384765625,-0.006790361328125,1.01006736328125
-0.33424154296874997,-0.032279755859375,0.9606682763671874
-0.16112263671875,-0.02762303955078125,0.9164302880859375
-0.23990146484375,-0.0739451123046875,0.92159138671875
-0.360744296875,-0.008996174316406251,1.0461950537109375
-0.30700935546875,-0.05090662109375,1.05233921875
-0.25740787109375,-0.01953505859375,0.99237216796875
-0.23917203125,-0.013162709960937501,0.93732044921875
-0.22823052734375,-0.0768861962890625,0.90782845703125
-0.28901666015625,-0.07566074462890625,0.9759058056640625
-0.2231244921875,0.032424091796875,1.1051790380859374
-0.31989601562500003,-0.06267095703125,1.0550426513671876
-0.28950294921874997,-0.02713285888671875,1.0555341845703126
-0.2411171875,0.0003172583007812497,1.0466865869140625
-0.2474389453125,0.02360083984375,0.9992536328125
-0.29752671875000003,-0.015368522949218751,0.9154472216796875
-0.18495080078125,0.0003172583007812497,0.9478884130859375
-0.337402421875,0.03512008544921875,0.9754142724609375
-0.26907880859375,0.00865032958984375,0.991880634765625
-0.252788125,0.01992448486328125,1.000728232421875
-0.26761994140625,0.02335574951171875,1.0024485986328124
-0.27734572265625,-0.0013983740234375002,1.0255506591796875
-0.25400384765625,0.04737460205078125,1.043983154296875
-0.30409162109375,0.01110123291015625,1.071509013671875
-0.22677166015625,0.0525214990234375,1.0235845263671874
-0.282938046875,0.03413972412109375,0.973202373046875
-0.2678630859375,0.0025230712890624996,0.974185439453125
-0.29874244140625,-0.015368522949218751,0.9233117529296875
-0.33521412109375,-0.02321141357421875,0.97369390625
-0.24622322265625,0.0280124658203125,1.000728232421875
-0.30627992187499997,-0.00801581298828125,0.95894791015625
-0.27005138671875,-0.037916833496093746,0.9297016845703125
-0.3184371484375,0.00963069091796875,0.909303056640625
-0.21412814453125,0.011346323242187501,0.92355751953125
-0.30555048828125,-0.01561361328125,0.8977520263671875
-0.26859251953125,0.00791505859375,0.9604225097656249
-0.28366748046875,0.06894255126953125,0.9886856689453125
-0.28172232421875,-0.01928996826171875,1.001711298828125
-0.28998923828125,0.01551285888671875,1.03169482421875
-0.2698082421875,-0.004829638671875,1.001711298828125
-0.265431640625,0.02360083984375,0.9685328076171875
-0.236254296875,-0.01389798095703125,0.9360916162109375
-0.30871136718750003,-0.01561361328125,0.9488714794921875
-0.27029453125,-0.038161923828125,0.92748978515625
-0.2114535546875,-0.0680629443359375,0.88620099609375
-0.28318119140625,-0.030073942871093752,0.9218371533203125
-0.27831830078124997,-0.05311243408203125,0.9520664453125
-0.22361078125,-0.0210056005859375,0.9965502001953125
-0.269321953125,0.042227705078125,1.0108046630859375
-0.29242068359375,-0.023456503906250002,0.9788550048828125
-0.23941517578125,0.05423713134765625,1.028745625
-0.25303126953125,0.03512008544921875,1.0437373876953124
-0.23552486328125,-0.00262382568359375,0.958456376953125
-0.26372962890625,0.064776015625,0.95501564453125
-0.24136033203125,0.03021827880859375,0.9835245703125
-0.27442798828125,0.0133070458984375,0.9999909326171875
-0.26761994140625,0.0010525292968750002,1.0071181640625
-0.34299474609375,-0.055808427734375,0.9994993994140625
-0.251815546875,0.04982550537109375,0.9926179345703126
-0.2659179296875,-0.0646316796875,0.933879716796875
-0.2766162890625,0.03708080810546875,1.0053977978515625
-0.27199654296875,-0.00409436767578125,1.0179318945312499
-0.2668905078125,0.02678701416015625,0.9749227392578125
-0.1803310546875,0.016738310546875,0.9365831494140625
-0.378250703125,0.0250713818359375,1.0049062646484375
-0.143859375,-0.0798272802734375,1.0444746875
-0.3563676953125,0.04541387939453125,0.998762099609375
-0.3009307421875,-0.0347306591796875,1.01006736328125
-0.2163164453125,0.01551285888671875,0.94715111328125
-0.2912049609375,0.013552136230468751,0.8938197607421875
-0.28974609375,-0.03644629150390625,0.9282270849609375
-0.206104375,0.03953171142578125,0.97664310546875
-0.28220861328125,-0.0072805419921875,1.0112961962890625
-0.30530734375,-0.03448556884765625,1.0565172509765626
-0.23747001953125,0.0231106591796875,1.072000546875
-0.27540056640625,-0.0778665576171875,0.98843990234375
-0.27053767578125,0.07531489990234375,1.004660498046875
-0.2240970703125,0.0162481298828125,0.9139726220703125
-0.31527626953125,0.017718671875,0.9297016845703125
-0.296554140625,0.0740894482421875,1.0633987158203124
-0.2668905078125,0.04933532470703125,1.0265337255859375
-0.25351755859375,-0.0175743359375,1.0727378466796875
-0.28391062499999997,0.0407571630859375,1.0648733154296874
-0.34421046875,-0.02468195556640625,0.9414984814453125
-0.152612578125,0.011346323242187501,0.9483799462890625
-0.277102578125,-0.03987755615234375,0.8884128955078126
-0.28318119140625,0.00816014892578125,0.91372685546875
-0.19759431640625,-0.025662316894531252,0.9002096923828125
-0.26616107421875,0.05521749267578125,0.929947451171875
-0.23357970703125,0.01575794921875,0.95698177734375
-0.3446967578125,0.00668960693359375,1.02383029296875
-0.24136033203125,0.0672269189453125,1.0899415087890625
-0.25059982421875,0.02531647216796875,0.98254150390625
-0.2464663671875,0.00816014892578125,0.9714820068359376
-0.26129818359375,0.015022678222656249,0.953541044921875
-0.33108066406250003,0.030708459472656248,0.9601767431640625
-0.2036729296875,0.0162481298828125,0.98057537109375
-0.3057936328125,0.04100225341796875,1.0058893310546875
-0.2678630859375,0.026051743164062502,1.0491442529296875
-0.25449013671875,-0.0175743359375,1.0162115283203126
-0.2707808203125,0.0191892138671875,1.024813359375
-0.18738224609375,-0.02713285888671875,0.913235322265625
-0.2328502734375,-0.01561361328125,0.906845390625
-0.30846822265625,-0.010221625976562499,0.91765912109375
-0.2289599609375,-0.0023787353515625003,0.915201455078125
-0.21607330078125,0.0133070458984375,0.9223286865234375
-0.23406599609375,0.00521906494140625,0.985490703125
-0.2878009375,-0.02419177490234375,0.98647376953125
-0.2309051171875,0.0103659619140625,1.015474228515625
-0.23163455078125,-0.01879978759765625,1.00810123046875
-0.26859251953125,0.0368357177734375,1.004660498046875
-0.25473328125,0.00570924560546875,1.0083469970703125
-0.2192341796875,0.03512008544921875,0.9567360107421875
-0.29193439453125003,0.06845237060546874,0.9739396728515625
-0.1881116796875,0.036345537109375,1.0014655322265624
-0.27831830078124997,0.0760501708984375,1.00416896484375
-0.29193439453125003,0.00178780029296875,1.019406494140625
-0.29485212890625,0.00570924560546875,0.9626344091796875
-0.253760703125,0.0319339111328125,0.90586232421875
-0.25789416015625,-0.06732767333984375,0.8648193017578125
-0.3057936328125,-0.0288484912109375,0.8893959619140624
-0.26567478515625,0.0309535498046875,0.9690243408203125
-0.32986494140625,0.008895419921875,0.959439443359375
-0.29436583984375,0.00276816162109375,1.0093300634765625
-0.27102396484375,0.08511851318359374,1.0653648486328124
-0.28172232421875,0.01257177490234375,0.9542783447265625
-0.234309140625,0.02360083984375,0.8830060302734375
-0.22579908203125,0.05374695068359375,0.94518498046875
-0.29752671875000003,0.008405239257812499,0.9700074072265625
-0.2075632421875,0.03512008544921875,1.0307117578125
-0.29776986328125,-0.038161923828125,0.9508376123046876
-0.2017277734375,0.00717978759765625,1.0122792626953125
-0.2814791796875,0.0255615625,1.0899415087890625
-0.3111428125,-0.07468038330078125,1.0815854443359374
-0.27029453125,0.0003172583007812497,0.993846767578125
-0.27151025390625,-0.0170841552734375,0.9031588916015625
-0.345183046875,0.00766996826171875,0.9105318896484375
-0.138996484375,0.00619942626953125,0.885709462890625
-0.2853694921875,0.0008074389648437498,0.8264797119140626
-0.23455228515625,0.04712951171875,0.8889044287109376
-0.2411171875,0.05325677001953125,0.923065986328125
-0.30068759765624997,-0.01634888427734375,0.98254150390625
-0.24670951171875,0.09296140380859375,1.009084296875
-0.253760703125,-0.0072805419921875,0.9397781152343749
-0.2571647265625,0.02727719482421875,1.02579642578125
-0.28561263671875,0.03144373046875,0.97860923828125
-0.21412814453125,0.053992041015625,1.0068723974609375
-0.3189234375,0.01012087158203125,1.05332228515625
-0.2941226953125,0.08168724853515624,1.0820769775390624
-0.29971501953125,0.011346323242187501,0.9926179345703126
-0.24136033203125,0.0525214990234375,0.9587021435546875
-0.2221519140625,0.0329142724609375,0.9245405859375
-0.29582470703125,-0.03840701416015625,0.8874298291015625
-0.207076953125,0.03266918212890625,0.964354775390625
-0.25862359375,0.01110123291015625,0.9154472216796875
-0.29533841796875,-0.0327699365234375,0.98057537109375
-0.1988100390625,0.014777587890624999,0.9815584374999999
-0.3019033203125,-0.027868129882812502,0.9822957373046874
-0.28950294921874997,0.04835496337890625,1.0555341845703126
-0.2114535546875,0.05080586669921875,0.97271083984375
-0.3339983984375,-0.0053198193359375,0.94223578125
-0.2668905078125,0.07335417724609375,1.0014655322265624
-0.20391607421875,0.064776015625,0.96877857421875
-0.28901666015625,-0.0082609033203125,0.925032119140625
-0.20634751953125,0.05497240234375,0.97369390625
-0.2153438671875,0.0064445166015625,0.9793465380859375
-0.2707808203125,-0.013407800292968751,1.0098215966796875
-0.2814791796875,-0.008996174316406251,1.0174403613281249
-0.230418828125,0.01306195556640625,0.9852449365234375
-0.3111428125,-0.004829638671875,0.9498545458984375
-0.2834243359375,0.0037485229492187503,0.917167587890625
-0.315033125,0.0137972265625,0.9609140429687499
