ax,ay,az
-0.16501294921875,0.021885207519531248,0.885709462890625
-0.23455228515625,0.04982550537109375,0.827708544921875
-0.26859251953125,0.0407571630859375,0.8245135791015625
-0.13389044921874999,-0.01781942626953125,0.8338527099609375
-0.12610982421875,0.07825598388671876,0.95304951171875
-0.1788721875,0.0417375244140625,0.9729566064453125
-0.17303671874999998,0.07850107421875,1.07888201171875
-0.244034921875,0.01894412353515625,1.0712632470703125
-0.20415921875,0.05497240234375,0.9572275439453125
-0.203186640625,0.02237538818359375,1.08379734375
-0.18884111328125,0.0172284912109375,1.11034013671875
-0.156502890625,-0.020515419921875,1.1361456298828125
-0.1297569921875,0.03708080810546875,1.1248403662109374
-0.230418828125,0.032424091796875,1.0255506591796875
-0.1399690625,0.01159141357421875,0.8879213623046875
-0.14167107421875,0.080461796875,0.8535140380859375
-0.10714455078125,0.13119549560546875,1.0117877294921875
-0.1005796484375,0.19884042724609374,1.2270792724609374
-0.1560166015625,0.20178151123046875,1.332021611328125
-0.11054857421875,0.0956573974609375,1.2885209228515624
-0.19419029296875,0.19295825927734375,1.230765771484375
-0.2484115234375,0.1211467919921875,1.0801108447265624
-0.27491427734375,0.04345315673828125,1.00023669921875
-0.218747890625,0.0750698095703125,0.95698177734375
-0.179844765625,0.07237381591796875,1.0031858984375
-0.181789921875,0.0348749951171875,0.9749227392578125
-0.10763083984374999,7.216796875000007e-05,0.89209939453125
-0.11054857421875,-0.028113220214843748,0.8254966455078125
-0.09206958984375,-0.07860182861328124,0.7507835986328125
-0.14191421875,0.05325677001953125,0.79772501953125
-0.0636216796875,0.10595119140625,0.8171405810546875
-0.12610982421875,0.07874616455078125,0.965829375
-0.06337853515625,0.081442158203125,0.9609140429687499
-0.12951384765625001,0.187321181640625,1.014491162109375
-0.16015005859375,0.253005390625,1.0186691943359376
-0.22628537109375,0.28021041748046877,1.1081282373046875
-0.23941517578125,0.293200205078125,1.094119541015625
-0.166228671875,0.30913107666015627,1.0786362451171876
-0.1258666796875,0.2936903857421875,1.0982975732421876
-0.03906408203125,0.27187734619140624,1.0759328125
-0.09912078125,0.2348687060546875,1.119679267578125
-0.07893978515625,0.09149086181640625,1.028254091796875
-0.1793584765625,0.09345158447265625,0.97860923828125
-0.18397822265625,0.1392834765625,0.917167587890625
-0.2347954296875,0.05717821533203125,0.88423486328125
-0.16258150390625,0.15276344482421875,0.8603955029296875
-0.14312994140625,0.118695888671875,0.8662939013671875
-0.168173828125,0.09394176513671874,0.9690243408203125
-0.16720125,0.017718671875,0.94911724609375
-0.06580998046875,0.04345315673828125,0.897506259765625
-0.09450103515625,0.190262265625,0.8783364648437499
-0.1321884375,0.1079119140625,0.8397511083984375
-0.15674603515625,0.12433296630859375,0.832623876953125
-0.1151683203125,0.1000690234375,0.876861865234375
-0.057056777343750004,0.15766525146484375,0.96484630859375
-0.09401474609375,0.1348718505859375,1.0221099267578124
-0.0025924023437500013,0.09051050048828126,1.0014655322265624
-0.0237459765625,0.13854820556640626,0.9926179345703126
-0.16063634765625,0.05472731201171875,1.061678349609375
-0.16987583984375,0.01110123291015625,1.098051806640625
-0.23212083984375,0.10717664306640624,1.1007552392578126
-0.2581373046875,0.1270289599609375,1.086255009765625
-0.19029998046875,0.07629526123046874,1.009084296875
-0.11735662109375,0.1368325732421875,0.9596852099609375
-0.08744984375,0.1554594384765625,0.9410069482421874
-0.08477525390625,0.17090012939453125,0.9999909326171875
-0.040766093749999996,0.153988896484375,1.0884669091796875
-0.10301109375,0.13217585693359374,1.196358447265625
-0.04781728515625,0.22751599609375,1.2246216064453126
-0.154557734375,0.214771298828125,1.1513831591796875
-0.09061072265625,0.17531175537109375,1.0638902490234374
-0.195406015625,0.16869431640625,1.0196522607421874
-0.1827625,0.208889130859375,1.0717547802734375
-0.2007551953125,0.21893783447265625,1.1346710302734375
-0.25692158203125,0.14639109619140625,1.1312302978515625
-0.1375376171875,0.20864404052734375,1.08478041015625
-0.11443888671875,0.22531018310546874,1.0550426513671876
-0.0543821875,0.1544790771484375,1.105916337890625
-0.0694571484375,0.09786321044921875,1.19095158203125
-0.054868476562500004,0.0270321044921875,1.102967138671875
-0.14945169921875,0.09198104248046875,0.9980247998046875
-0.22579908203125,0.04884514404296875,0.867522734375
-0.24233291015625,-0.0415931884765625,0.8267254785156251
-0.10033650390625,-0.09722869384765626,0.7881401220703125
-0.035903203125000005,0.0515411376953125,0.89013326171875
-0.07188859375000001,0.02286556884765625,0.928964384765625
-0.02787943359375,-0.038161923828125,1.021372626953125
0.01880431640625,0.1314405859375,1.0973145068359376
-0.04538583984375,0.14345001220703124,1.1926719482421875
-0.14580453125,0.13952856689453125,1.231748837890625
-0.13340416015625,0.15276344482421875,1.05332228515625
-0.1424005078125,0.20129133056640625,0.98254150390625
-0.18227621093750002,0.19344843994140626,1.008592763671875
-0.18884111328125,0.08021670654296875,1.0063808642578125
-0.00016095703124999888,0.06355056396484375,1.024321826171875
-0.040279804687500004,0.065756376953125,0.9980247998046875
-0.10179537109375,0.07482471923828125,1.0643817822265624
-0.19029998046875,0.04002189208984375,1.065610615234375
-0.19224513671875,0.07335417724609375,1.0825685107421874
-0.23017568359375,0.05423713134765625,1.0850261767578124
-0.14799283203125,0.02580665283203125,1.0621698828125
-0.0947441796875,-0.022476142578125,1.0771616455078126
-0.057543066406249996,0.01012087158203125,1.045949287109375
-0.13024328125,0.1270289599609375,0.990897568359375
-0.0947441796875,0.05815857666015625,0.9400238818359374
-0.1424005078125,0.01698340087890625,0.987948369140625
-0.17717017578125,0.0613447509765625,0.990897568359375
-0.14361623046875,0.13413657958984376,0.9395323486328125
-0.009400449218749999,0.0760501708984375,0.9911433349609375
-0.0976619140625,0.19442880126953124,1.1926719482421875
-0.12902755859375,0.12482314697265626,1.310394150390625
-0.170118984375,0.0701680029296875,1.1845616503906249
-0.24306234375,0.11305881103515625,1.0678225146484375
-0.33083751953125,0.0564429443359375,0.954524111328125
-0.31868029296875,0.09884357177734375,0.8294289111328125
-0.2834243359375,0.12188206298828125,0.771673759765625
-0.16306779296875,0.0750698095703125,0.72497810546875
-0.13972591796875,0.120656611328125,0.7704449267578125
-0.19346085937500002,0.142224560546875,0.867031201171875
-0.16306779296875,0.13805802490234376,0.934862783203125
-0.15820490234375,0.1848702783203125,0.9134810888671875
-0.1579617578125,0.23952542236328125,0.868014267578125
-0.16890326171875,0.22531018310546874,0.8638362353515625
-0.1997826171875,0.25079957763671873,0.95894791015625
-0.23163455078125,0.3039841796875,1.0778989453125
-0.21558701171875,0.32677758056640627,1.1250861328125
-0.26032560546875,0.35618842041015625,1.1508916259765625
-0.27102396484375,0.35471787841796876,1.100017939453125
-0.24087404296875,0.30569981201171875,1.01399962890625
-0.1988100390625,0.316728876953125,0.9695158740234375
-0.2240970703125,0.16305723876953124,0.9223286865234375
-0.20148462890625,0.14639109619140625,0.81935248046875
-0.17522501953125,0.11060790771484375,0.7117067089843749
-0.09498732421875,0.110852998046875,0.68270625
-0.044899550781250006,0.15668489013671874,0.8132083154296875
-0.09304216796875,0.15864561279296874,0.9346170166015625
-0.26664736328125,0.1397736572265625,0.9837703369140625
-0.27005138671875,0.1309504052734375,0.834590009765625
-0.15480087890625,0.2211436474609375,0.674350185546875
-0.07796720703125,0.205948046875,0.65419732421875
-0.057056777343750004,0.222614189453125,0.7493089990234375
-0.10957599609375,0.2887885791015625,0.9139726220703125
-0.16160892578125,0.3025136376953125,0.9604225097656249
-0.143859375,0.2966314697265625,0.9473968798828125
-0.1851939453125,0.24687813232421876,0.869980400390625
-0.17862904296875,0.269671533203125,0.8144371484375
-0.07577890625,0.2613384619140625,0.8215643798828125
-0.1103054296875,0.2726126171875,0.9090572900390625
-0.1754681640625,0.055462583007812497,0.9009469921875
-0.244034921875,0.0750698095703125,0.72104583984375
-0.15820490234375,-0.0097314453125,0.6308494970703125
-0.15528716796875,-0.0043394580078125,0.6141373681640625
-0.21412814453125,0.1289896826171875,0.651248125
-0.0714023046875,0.18609572998046875,0.7316138037109375
-0.13291787109375,0.2635442749023438,0.86359046875
-0.2007551953125,0.30275872802734377,1.0756870458984376
-0.2133987109375,0.332414658203125,1.182595517578125
-0.2085358203125,0.3390320971679687,1.15752732421875
-0.13826705078125,0.32971866455078125,1.0442289208984374
-0.1443456640625,0.30986634765625,1.0201437939453124
-0.245980078125,0.312807431640625,1.0629071826171874
-0.314060546875,0.29540601806640626,1.02186416015625
-0.3233000390625,0.2260454541015625,0.9223286865234375
-0.27199654296875,0.234378525390625,0.887675595703125
-0.237226875,0.220653466796875,0.83114927734375
-0.20586123046875,0.17653720703125,0.9326508837890625
-0.226528515625,0.14394019287109375,1.0928907080078125
-0.2153438671875,0.15815543212890626,1.178663251953125
-0.14556138671875,0.093206494140625,1.1813666845703126
-0.218747890625,0.1378129345703125,1.1769428857421875
-0.23917203125,0.10717664306640624,1.07888201171875
-0.21583015625000002,0.19222298828125,1.11820466796875
-0.18106048828125,0.13315621826171875,1.1762055859375
-0.17425244140625,0.046149150390625,1.2339607373046875
-0.1657423828125,0.0525214990234375,1.257308564453125
-0.0927990234375,0.08217742919921875,1.11230626953125
-0.16063634765625,0.01012087158203125,0.9965502001953125
-0.27005138671875,-0.01169216796875,0.9818042041015624
-0.33181009765625,-0.0411030078125,1.0395593554687501
-0.1939471484375,0.01649322021484375,1.0130165625
-0.2095083984375,-0.08252327392578125,1.06118681640625
-0.19419029296875,-0.077376376953125,1.0869923095703125
-0.17303671874999998,-0.1190417333984375,0.9940925341796875
-0.23941517578125,-0.087179990234375,0.9614055761718749
-0.27272597656249997,-0.10213050048828125,0.9056165576171875
-0.22239505859375,-0.0857094482421875,0.977134638671875
-0.1958923046875,0.0319339111328125,1.1002637060546876
-0.20294349609375,0.0211499365234375,1.24993556640625
-0.22190876953125,0.07850107421875,1.34824220703125
-0.22336763671875,0.16256705810546876,1.2963854541015625
-0.21023783203125002,0.173596123046875,1.25386783203125
-0.31916658203125,0.1760470263671875,1.3553694384765624
-0.337402421875,0.12580350830078124,1.3779799658203125
-0.2989855859375,0.18805645263671875,1.3337419775390624
-0.32500205078125,0.1927131689453125,1.35217447265625
-0.3602580078125,0.11501953369140624,1.3563525048828124
-0.3009307421875,0.146146005859375,1.36003900390625
-0.232363984375,0.12188206298828125,1.37970033203125
-0.26616107421875,0.0956573974609375,1.4671932421875
-0.32086859375,0.10227483642578125,1.446057314453125
-0.29631099609375,0.09835339111328124,1.344801474609375
-0.32500205078125,0.0652661962890625,1.2472321337890624
-0.28609892578125,0.12163697265625,1.247477900390625
-0.26713365234374997,0.057913486328125,1.207172177734375
-0.32257060546875,0.07850107421875,1.1803836181640626
-0.2878009375,0.09198104248046875,1.1759598193359375
-0.30506419921875,0.11943115966796874,1.2319946044921875
-0.2435486328125,0.14001874755859375,1.2364184033203125
-0.26567478515625,0.0701680029296875,1.2467406005859374
-0.13729447265625,0.08119706787109375,1.1789090185546875
-0.13048642578125,0.0133070458984375,1.0314490576171875
-0.06580998046875,0.03855135009765625,1.007609697265625
-0.10276794921875,0.0436982470703125,0.9591936767578125
-0.17327986328125,0.0103659619140625,0.93338818359375
-0.24281919921875,0.0338946337890625,0.9169218212890625
-0.286828359375,0.079481435546875,0.8726838330078125
-0.2484115234375,0.13315621826171875,0.8242678125
-0.2065906640625,0.15521434814453125,0.7733941259765625
-0.065080546875,0.210849853515625,0.7645465283203124
-0.0354169140625,0.21109494384765626,0.7964961865234375
0.005431367187500001,0.20815385986328125,0.926998251953125
0.0005684765624999998,0.2765340625,1.0860092431640624
-0.061676523437500005,0.3392771875,1.1508916259765625
-0.1511537109375,0.30962125732421875,0.9992536328125
-0.11857234375,0.2740831591796875,0.894557060546875
-0.16914640625,0.26844608154296873,0.86064126953125
-0.17084841796875,0.2917296630859375,0.8500733056640625
-0.1589343359375,0.27824969482421874,0.9245405859375
-0.156502890625,0.29418056640625,0.876861865234375
-0.17522501953125,0.2858474951171875,0.859658203125
-0.14556138671875,0.26942644287109374,0.8092760498046875
-0.17668388671875,0.26942644287109374,0.7746229589843749
-0.19370400390625,0.2137909375,0.6947488134765625
-0.20683380859375,0.2250650927734375,0.6372394287109375
-0.23649744140625,0.1868310009765625,0.596687939453125
-0.19953947265625,0.1760470263671875,0.502313564453125
-0.174981875,0.18364482666015625,0.49100830078125
-0.17473873046875,0.19589934326171876,0.5202545263671875
-0.1939471484375,0.21207530517578124,0.5706366796875
-0.191515703125,0.23413343505859374,0.602586337890625
-0.1861665234375,0.255946474609375,0.6925369140625
-0.19029998046875,0.3054547216796875,0.8195982470703125
-0.2561921484375,0.36010986572265624,0.9262609521484375
-0.32062544921875,0.3152583349609375,0.9704989404296875
-0.338375,0.28511222412109377,0.9247863525390625
-0.3019033203125,0.26942644287109374,0.748080166015625
-0.27540056640625,0.20864404052734375,0.657638056640625
-0.253760703125,0.21158512451171874,0.596687939453125
-0.1997826171875,0.19393862060546874,0.6453497265625
-0.26081189453125,0.18217428466796876,0.62077306640625
-0.23698373046875,0.2093793115234375,0.653705791015625
-0.17619759765625,0.24344686767578125,0.709740576171875
-0.2250696484375,0.24393704833984375,0.7114609423828124
-0.172064140625,0.17384121337890626,0.700892978515625
-0.0714023046875,0.140263837890625,0.7370206689453125
-0.2221519140625,0.169674677734375,0.7869112890625
-0.32305689453124997,0.22629054443359375,0.7856824560546875
-0.31187224609374997,0.19148771728515626,0.6927826806640625
-0.21072412109375,0.237319609375,0.6342902294921875
-0.244034921875,0.2280061767578125,0.6669771875
-0.2396583203125,0.24736831298828124,0.6957318798828125
-0.210967265625,0.30030782470703127,0.82131861328125
-0.2172890234375,0.33805173583984377,0.934862783203125
-0.30506419921875,0.35471787841796876,1.01399962890625
-0.3106565234375,0.33216956787109375,0.992863701171875
-0.28415376953125,0.34442408447265627,1.0343982568359376
-0.32354318359375,0.36868802734375,1.0830600439453124
-0.3835998828125,0.391236337890625,1.08379734375
-0.38870591796875,0.3667273046875,1.0638902490234374
-0.3889490625,0.3397673681640625,0.9709904736328125
-0.438550546875,0.29418056640625,0.8299204443359375
-0.41593810546875,0.27383806884765627,0.760860029296875
-0.4312562109375,0.31844450927734375,0.830657744140625
-0.41058892578125,0.32653249023437503,0.9046334912109375
-0.43927998046875,0.190262265625,0.9360916162109375
-0.2736985546875,0.1976149755859375,0.9262609521484375
-0.37995271484375,0.19687970458984375,0.89799779296875
-0.35466568359375,0.11158826904296874,0.8358188427734374
-0.44073884765625,0.1182057080078125,0.8594124365234375
-0.22920310546875,0.1417343798828125,0.757910830078125
-0.30068759765624997,0.15962597412109375,0.849336005859375
-0.30457791015625,0.11501953369140624,1.00220283203125
-0.3388612890625,0.0848734228515625,1.022355693359375
-0.36196001953125,0.0927163134765625,0.9877026025390625
-0.3028758984375,0.12163697265625,1.028745625
-0.28220861328125,0.10325519775390625,0.9739396728515625
-0.3194097265625,0.12580350830078124,0.9950756005859375
-0.28464005859375,0.13119549560546875,1.0619241162109374
-0.37606240234375,0.22236909912109376,1.12606919921875
-0.312115390625,0.15717507080078125,1.1823497509765626
-0.37363095703125,0.2299668994140625,1.252884765625
-0.45873154296875,0.28903366943359377,1.2678765283203126
-0.3933256640625,0.2887885791015625,1.2115959765625
-0.37071322265625,0.32163068359375,1.2108586767578124
-0.33618669921875,0.3123172509765625,1.313343349609375
-0.380195859375,0.35079643310546876,1.469159375
-0.481343984375,0.34123791015625,1.57139828125
-0.54237326171875,0.324571767578125,1.5269145263671875
-0.5421301171875,0.257907197265625,1.263206962890625
-0.3962433984375,0.05570767333984375,1.2187232080078125
-0.4370916796875,-0.0504164404296875,1.147205126953125
-0.372415234375,-0.09575815185546875,1.06315294921875
-0.3077387890625,-0.04821062744140625,1.001219765625
-0.2143712890625,-0.02027032958984375,1.0171945947265626
-0.4001337109375,-0.10654212646484375,1.1012467724609376
-0.403537734375,-0.083258544921875,1.0594664501953126
-0.4166675390625,-0.095022880859375,0.9646005419921875
-0.47842625,-0.0415931884765625,0.86850580078125
-0.46067669921875,-0.05017135009765625,0.776589091796875
-0.42760904296875,-0.07713128662109375,0.6873758154296875
-0.43757796875,-0.061690595703125004,0.6785282177734375
-0.4108320703125,-0.05605351806640625,0.64043439453125
-0.2017277734375,0.04933532470703125,0.595704873046875
-0.08988128906250001,0.0476196923828125,0.626179931640625
-0.12343523437500001,0.00619942626953125,0.6333071630859375
-0.18106048828125,0.13070531494140625,0.7714279931640625
-0.315033125,0.06109966064453125,0.840488408203125
-0.3203823046875,0.1544790771484375,0.893573994140625
-0.40767119140625,0.111833359375,0.8026403515625
-0.2095083984375,-0.02860340087890625,0.678282451171875
-0.06021765625,0.1534987158203125,0.64240052734375
-0.2377131640625,0.2142811181640625,0.627162998046875
-0.15382830078125,0.06698182861328125,0.625196865234375
-0.3028758984375,0.1436951025390625,0.632078330078125
-0.28974609375,0.165753232421875,0.6401886279296874
-0.12829812499999999,0.1260485986328125,0.699909912109375
-0.19564916015625,0.28241623046875,0.83901380859375
-0.27613,0.3630509497070312,0.980083837890625
-0.28269490234375,0.36084513671875,0.9090572900390625
-0.21315556640625,0.27383806884765627,0.672384052734375
-0.1686601171875,0.1936935302734375,0.6057813037109375
-0.23917203125,0.21158512451171874,0.5812046435546875
-0.27102396484375,0.2221240087890625,0.575060478515625
-0.2367405859375,0.2495741259765625,0.5974252392578125
-0.26129818359375,0.27579879150390624,0.692045380859375
-0.3349709765625,0.2789849658203125,0.741198701171875
-0.36098744140625,0.25177993896484374,0.72301197265625
-0.299471875,0.26060319091796874,0.663536455078125
-0.18495080078125,0.193203349609375,0.5640009814453125
-0.16914640625,0.2564366552734375,0.6291291308593749
-0.27272597656249997,0.26795590087890625,0.6731213525390625
-0.23819945312500002,0.2848671337890625,0.69548611328125
-0.19710802734375,0.26942644287109374,0.7561904638671875
-0.265431640625,0.1721255810546875,0.7837163232421875
-0.13486302734375,0.28217114013671873,0.80853875
-0.31722142578125,0.34736516845703125,0.9518206787109375
-0.42931105468749997,0.3387870068359375,1.028254091796875
-0.48547744140625,0.3824130859375,1.1010010058593749
-0.4993366796875,0.3485906201171875,1.09854333984375
-0.49034033203125,0.393197060546875,1.0481611865234375
-0.35806970703125,0.39221669921875,0.867522734375
-0.382141015625,0.33535574218749997,0.872929599609375
-0.393811953125,0.18609572998046875,0.8576920703124999
-0.22044990234375,0.128499501953125,0.9196252539062499
-0.07383375,0.2417312353515625,1.14671359375
-0.38141158203125003,0.3745701953125,1.354632138671875
-0.584437265625,0.3012881860351562,1.3258774462890626
-0.5445615625,0.27923005615234375,1.215036708984375
-0.6007279492187501,0.15080272216796875,1.1209081005859376
-0.6053476953125,0.17433139404296874,1.087729609375
-0.5917316015625,0.2554562939453125,1.23027423828125
-0.58322154296875,0.17727247802734375,1.3376742431640625
-0.58079009765625,0.22531018310546874,1.42983671875
-0.37898013671874997,0.097127939453125,1.111814736328125
-0.2853694921875,0.17090012939453125,0.8063268505859374
-0.3544225390625,0.23021198974609375,0.7124440087890624
-0.35588140625,0.1740863037109375,0.6549346240234375
-0.41034578125,0.09394176513671874,0.8365561425781249
-0.533863203125,0.11992134033203125,1.1835785839843749
-0.61969322265625,0.25128975830078126,1.3381657763671875
-0.5868687109375,0.28609258544921873,1.374785
-0.56620142578125,0.1809488330078125,1.296631220703125
-0.4011062890625,0.23119235107421876,0.9616513427734374
-0.27588685546875,0.18438009765625,0.810013349609375
-0.111764296875,0.24246650634765626,0.911269189453125
-0.09425789062500001,0.2829064111328125,1.1499085595703125
-0.15577345703125,0.13536203125,1.39739552734375
-0.3072525,-0.01144707763671875,1.571889814453125
-0.38287044921875,-0.044044091796875,1.4404046826171875
-0.42225986328125,-0.075415654296875,1.1801378515625
-0.40572603515625,0.0593840283203125,0.9572275439453125
-0.30895451171875,0.1348718505859375,0.8933282275390625
-0.27442798828125,-0.052867343750000004,0.9842618701171875
-0.16015005859375,-0.004829638671875,1.1572815576171875
-0.16355408203125,0.04320806640625,1.3696239013671876
-0.27540056640625,-0.075415654296875,1.3588101708984375
-0.19516287109375,-0.14477621826171874,1.081339677734375
-0.1482359765625,-0.13546278564453124,0.9473968798828125
-0.20634751953125,-0.120512275390625,0.9213456201171875
-0.25351755859375,-0.083258544921875,0.918150654296875
-0.39259623046875003,-0.01585870361328125,0.9641090087890625
-0.45192349609375,0.18413500732421875,1.025304892578125
-0.46213556640625,0.18511536865234374,1.033169423828125
-0.3223274609375,0.14884199951171875,1.1086197705078125
-0.34737134765625,0.248103583984375,1.2713172607421874
-0.21193984375,0.1289896826171875,1.2895039892578124
-0.41010263671875,0.2280061767578125,1.425412919921875
-0.51708623046875,0.1221271533203125,1.261240830078125
-0.46091984375,0.04982550537109375,1.0088385302734375
-0.467727890625,0.04296297607421875,0.8972604931640625
-0.470645625,0.06747200927734374,0.7942842871093749
-0.41302037109375,0.06894255126953125,0.7473428662109375
-0.37922328125,0.05668803466796875,0.683197783203125
-0.39502767578125,0.0368357177734375,0.66206185546875
-0.31697828125,0.02237538818359375,0.6077474365234374
-0.267376796875,-0.0016434643554687498,0.61487466796875
-0.20415921875,0.0505607763671875,0.660587255859375
-0.12221951171875,0.07237381591796875,0.7719195263671875
-0.1978374609375,-0.00703545166015625,0.887675595703125
-0.29169125,0.09443194580078125,1.0727378466796875
-0.3135742578125,0.0299731884765625,1.1130435693359375
-0.34980279296875,0.13511694091796875,1.15359505859375
-0.4925286328125,0.2280061767578125,1.0739666796875
-0.53021603515625,0.19982078857421876,0.9872110693359375
-0.49617580078125,0.2103596728515625,0.9331424169921875
-0.4594609765625,0.2623188232421875,0.859166669921875
-0.33667298828125003,0.306925263671875,0.8068183837890625
-0.13486302734375,0.2623188232421875,0.7539785644531249
-0.14069849609375001,0.2659951782226562,0.8063268505859374
-0.16695810546875,0.216732021484375,0.868997333984375
-0.3135742578125,0.2005560595703125,0.9650920751953125
-0.331566953125,0.22923162841796874,1.04545775390625
-0.34007701171875,0.1485969091796875,1.0899415087890625
-0.42274615234375,0.1887917236328125,1.12213693359375
-0.37071322265625,0.1510478125,0.99827056640625
-0.389921640625,0.15692998046875,0.8761245654296875
-0.257651015625,0.18021356201171876,0.72891037109375
-0.2955815625,0.083402880859375,0.602586337890625
-0.26907880859375,0.0451687890625,0.5635094482421875
-0.2630001953125,0.09418685546875,0.539670087890625
-0.138996484375,0.124578056640625,0.4686435400390625
-0.0762651953125,0.106931552734375,0.4288293505859375
-0.12635296875,0.1701648583984375,0.4408719140625
-0.2445212109375,0.15031254150390624,0.4185071533203125
-0.2649453515625,0.1574201611328125,0.434973515625
-0.28998923828125,0.1534987158203125,0.5123899951171875
-0.32986494140625,0.1711452197265625,0.65812958984375
-0.33570041015625,0.2309472607421875,0.742181767578125
-0.35369310546875,0.314768154296875,0.9149556884765625
-0.32937865234375,0.3681978466796875,1.07298361328125
-0.1064151171875,0.23119235107421876,1.3022838525390625
-0.08380267578125,0.25570138427734374,1.5976953076171876
-0.29339326171875,0.19810515625,1.8768861669921875
-0.37898013671874997,0.21893783447265625,1.673145654296875
-0.50371328125,0.2025167822265625,1.2840971240234376
-0.5671740039062501,0.20668331787109376,1.038084755859375
-0.5635268359375,0.1123235400390625,0.9346170166015625
-0.54723615234375,0.15472416748046874,0.9400238818359374
-0.54869501953125,0.18168410400390625,0.8812856640625
-0.5304591796875,0.16746886474609374,0.77609755859375
-0.49204234375,0.1682041357421875,0.7006472119140625
-0.34104958984375,0.18756627197265624,0.7547158642578125
-0.39745912109375,0.14492055419921876,0.9380577490234375
-0.57203689453125,0.1172253466796875,1.1132893359375
-0.65713748046875,0.11403917236328125,1.297614287109375
-0.5100350390625,0.1240878759765625,1.2496897998046874
-0.54285955078125,0.1235976953125,1.1159927685546875
-0.50395642578125,0.16550814208984374,0.9704989404296875
-0.532890625,0.10570610107421875,0.869980400390625
-0.3602580078125,0.05913893798828125,0.7807671240234375
-0.21558701171875,0.085363603515625,0.8540055712890625
-0.175954453125,0.0515411376953125,0.9088115234375
-0.11443888671875,-0.01193725830078125,0.92552365234375
-0.1103054296875,-0.0935523388671875,0.929947451171875
-0.30627992187499997,-0.189137568359375,1.0444746875
-0.50881931640625,-0.09869923583984375,0.9051250244140625
-0.39940427734375,0.019434304199218752,0.8574463037109374
-0.2124261328125,-0.17124597412109374,0.9609140429687499
-0.107873984375,-0.23447927978515626,1.0697886474609375
-0.0636216796875,-0.1866866650390625,1.18112091796875
-0.0937716015625,-0.20384298828125,1.25386783203125
-0.3719289453125,-0.2371752734375,1.1218911669921874
-0.35661083984374997,-0.21242114990234376,0.8264797119140626
-0.4108320703125,-0.1710008837890625,0.8382765087890625
-0.3330258203125,-0.14918784423828124,0.709740576171875
-0.2454937890625,-0.0955130615234375,0.8215643798828125
-0.31770771484375,-0.08423890625,0.8805483642578125
-0.41545181640625,-0.02615249755859375,0.907336923828125
-0.3855450390625,0.09051050048828126,0.867522734375
-0.518301953125,0.16697868408203126,0.914218388671875
-0.5158705078125,0.22923162841796874,0.9311762841796875
-0.56766029296875,0.30275872802734377,0.9685328076171875
-0.57398205078125,0.3806974536132812,1.096085673828125
-0.5683897265625,0.4789786767578125,1.1479424267578124
-0.47866939453125,0.5154971362304688,1.2201978076171875
-0.46091984375,0.559858486328125,1.23420650390625
-0.50954875,0.5076542456054688,1.2010280126953126
-0.5392123828125,0.46794961181640626,1.1715360205078125
-0.59440619140625,0.23217271240234374,1.13786599609375
-0.5314317578125,0.0059543359375,1.0221099267578124
-0.38773333984375,0.0535018603515625,0.8073099169921875
-0.25740787109375,0.0010525292968750002,0.84097994140625
-0.17303671874999998,-0.0435539111328125,0.9245405859375
-0.27929087890625,0.0255615625,1.189968515625
-0.4244481640625,0.046149150390625,1.3371827099609375
-0.3203823046875,0.13462676025390624,1.32661474609375
-0.23309341796875,0.20374223388671875,1.2201978076171875
-0.32305689453124997,0.14982236083984374,1.1440101611328124
-0.3126016796875,0.122617333984375,1.1209081005859376
-0.32208431640625,0.1976149755859375,1.076424345703125
-0.33035123046875,0.09737302978515625,1.1408151953125
-0.2289599609375,0.21158512451171874,1.2671392285156249
-0.24816837890625,0.2436919580078125,1.3873190966796876
-0.33229638671875,0.2780046044921875,1.449989580078125
-0.3967296875,0.1466361865234375,1.2506728662109374
-0.36196001953125,0.163792509765625,1.1464678271484374
-0.41885583984375,0.20864404052734375,1.1631799560546874
-0.44754689453125,0.1838899169921875,1.15949345703125
-0.424934453125,0.20276187255859374,1.13589986328125
-0.43733482421875003,0.18462518798828126,1.122628466796875
-0.423961875,0.228496357421875,1.0771616455078126
-0.47526537109375,0.21207530517578124,1.0299744580078125
-0.5032269921875,0.22947671875,0.9837703369140625
-0.389921640625,0.14001874755859375,0.902913125
-0.3223274609375,0.14443037353515625,0.8962774267578125
-0.31041337890625,0.10595119140625,0.9606682763671874
-0.28998923828125,0.0495804150390625,0.9940925341796875
-0.3967296875,-0.0028689160156250004,0.97860923828125
-0.4555706640625,-0.00458454833984375,0.924049052734375
-0.532890625,0.02286556884765625,0.8510563720703125
-0.514411640625,-0.0229663232421875,0.8254966455078125
-0.45386865234375,-0.06928839599609375,0.7748687255859374
-0.33667298828125003,-0.038161923828125,0.6335529296875
-0.2124261328125,0.020659755859375,0.5581025830078125
-0.144831953125,0.00791505859375,0.5236952587890625
-0.144831953125,0.015022678222656249,0.6062728369140625
-0.138996484375,0.02482629150390625,0.8340984765625
-0.329621796875,-0.06144550537109375,1.054796884765625
-0.3427516015625,-0.02272123291015625,1.25976623046875
-0.3505322265625,0.00399361328125,1.203239912109375
-0.489124609375,0.0123266845703125,0.8957858935546875
-0.50930560546875,0.0289928271484375,0.69548611328125
-0.46456701171875,-0.01634888427734375,0.604552470703125
-0.3651208984375,-0.01634888427734375,0.5959506396484375
-0.1657423828125,0.12433296630859375,0.6514938916015625
-0.27515742187500003,0.122617333984375,0.7090032763671875
-0.308225078125,0.0495804150390625,0.73087650390625
-0.21218298828125,-0.02027032958984375,0.7266984716796875
-0.181789921875,-0.0935523388671875,0.75840236328125
-0.24719580078125,-0.12958061767578125,0.7547158642578125
-0.30166017578125,-0.14502130859375,0.7296476708984375
-0.31138595703125,-0.13791368896484374,0.716622041015625
-0.40718490234375,-0.04575972412109375,0.7694618603515625
-0.38821962890625,0.02972809814453125,0.686146982421875
-0.3505322265625,0.04051207275390625,0.678282451171875
-0.316005703125,-0.046004814453125,0.66009572265625
-0.21972046875,-0.015368522949218751,0.7328426367187499
-0.20342978515625,-0.046740085449218746,0.7869112890625
-0.11784291015625001,0.0064445166015625,0.8746499658203125
-0.05900193359375,0.079481435546875,1.076424345703125
-0.055354765624999996,0.12482314697265626,1.32661474609375
-0.36828177734375,0.0003172583007812497,1.390022529296875
-0.45046462890625,0.14394019287109375,1.226833505859375
-0.50833302734375,0.1995756982421875,1.0869923095703125
-0.58419412109375,0.1407540185546875,0.9557529443359375
-0.58711185546875,0.1299700439453125,0.8461410400390625
-0.52681201171875,0.1510478125,0.6952403466796875
-0.37898013671874997,0.21354584716796876,0.558348349609375
-0.22531279296875,0.17237067138671874,0.526890224609375
-0.24136033203125,0.06257020263671875,0.5662128808593749
-0.486206875,0.13732275390625,0.6549346240234375
-0.31868029296875,0.18045865234375,0.7330884033203124
-0.27248283203125,0.17678229736328124,0.938303515625
-0.3126016796875,0.32653249023437503,1.2059433447265624
-0.477453671875,0.25766210693359376,1.3917428955078126
-0.57787236328125,0.10178465576171875,1.2391218359375
-0.4837754296875,0.16624341308593749,1.0058893310546875
-0.4643238671875,0.14001874755859375,0.82525087890625
-0.3033621875,0.16795904541015624,0.78494515625
-0.21315556640625,0.19540916259765626,0.949608779296875
-0.339347578125,0.24687813232421876,1.13589986328125
-0.47672423828125,0.1525183544921875,1.118696201171875
-0.43052677734375,0.008405239257812499,0.8377849755859375
-0.1910294140625,-0.065612041015625,0.5728485791015625
-0.12708240234375,0.028502646484374998,0.4376769482421875
-0.072861171875,0.03561026611328125,0.41629525390625
-0.07553576171875,-0.00507472900390625,0.458567109375
-0.25594900390624997,0.089285048828125,0.51853416015625
-0.39016478515624997,0.14124419921875,0.5615433154296875
-0.49374435546875,0.15300853515625001,0.8033776513671875
-0.4156949609375,0.3917265185546875,1.1567900244140625
-0.2999581640625,0.5370650854492187,1.542397822265625
-0.30555048828125,0.6218663403320313,1.7923424560546874
-0.31381740234375,0.6230917919921874,1.83584314453125
-0.384086171875,0.5581428540039063,1.6048225390625
-0.5489381640625,0.45961654052734374,1.34037767578125
-0.5508833203125,0.21256548583984375,1.1617053564453126
-0.39356880859375,0.08854977783203125,1.075441279296875
-0.43149935546875,-0.1719812451171875,0.9822957373046874
-0.49568951171875,-0.15801109619140624,0.9041419580078125
-0.4823165625,-0.1587463671875,0.9179048876953125
-0.4905834765625,-0.2425672607421875,1.0329236572265625
-0.53021603515625,-0.31045728271484374,1.1307387646484375
-0.3544225390625,-0.24918469970703125,1.08674654296875
-0.26713365234374997,-0.14330567626953125,1.072492080078125
-0.377278125,-0.10654212646484375,1.0987891064453126
-0.43247193359375,-0.10727739746093751,1.078390478515625
-0.43052677734375,-0.03987755615234375,0.9985163330078125
-0.41982841796875,0.028257556152343752,0.84294607421875
-0.1842213671875,0.028257556152343752,0.724486572265625
-0.1414279296875,0.0476196923828125,0.703842177734375
-0.23357970703125,0.024581201171875,0.6593584228515625
-0.25692158203125,0.026296833496093748,0.6205272998046875
-0.37533296875,0.09639266845703125,0.6529684912109375
-0.46894361328125,0.11796061767578125,0.778555224609375
-0.4195852734375,0.238299970703125,1.0071181640625
-0.45532751953125,0.352021884765625,1.1823497509765626
-0.37606240234375,0.44049949462890625,1.4399131494140625
-0.378250703125,0.4625576245117187,1.5067616650390625
-0.411318359375,0.4681947021484375,1.4121415234375
-0.34591248046875,0.42383335205078126,1.1916888818359375
-0.46870046875,0.34099281982421875,1.133442197265625
-0.43174250000000003,0.1157548046875,1.0058893310546875
-0.28585578125,0.15374380615234376,0.858183603515625
-0.35952857421875,0.17237067138671874,0.74660556640625
-0.26421591796875,0.03364954345703125,0.7360376025390625
-0.33521412109375,-0.03129939453125,0.8230389794921875
-0.47283392578125,0.011346323242187501,0.915201455078125
-0.5187882421875,0.0780108935546875,1.0722463134765625
-0.518301953125,0.04149243408203125,1.12410306640625
-0.510521328125,0.077520712890625,1.002694365234375
-0.36196001953125,0.08168724853515624,0.8567090039062499
-0.20804953125,0.0133070458984375,0.797233486328125
-0.24379177734375002,-0.05090662109375,0.7375122021484375
-0.28609892578125,-0.0621807763671875,0.6178238671875
-0.20197091796875,-0.04968116943359375,0.5708824462890625
-0.1871391015625,-0.09722869384765626,0.5566279833984376
-0.368524921875,-0.0768861962890625,0.56473828125
-0.401592578125,0.034384814453125,0.611433935546875
-0.374360390625,0.108892275390625,0.7576650634765625
-0.39575710937499997,0.15178308349609376,0.9097945898437501
-0.370470078125,0.22285927978515624,1.144255927734375
-0.3894353515625,0.267710810546875,1.4000989599609375
-0.49277177734375,0.4025104931640625,1.3964124609375
-0.42663646484375,0.23217271240234374,1.16342572265625
-0.28391062499999997,0.040266982421875,0.9233117529296875
-0.12465095703125,0.0201695751953125,0.7591396630859375
-0.07067287109375,0.10276501708984374,0.58145041015625
-0.10495625,0.06649164794921875,0.5123899951171875
-0.27540056640625,0.0137972265625,0.4981355322265625
-0.2805066015625,-0.02615249755859375,0.4666774072265625
-0.3267040625,-0.01781942626953125,0.5359835888671876
-0.41739697265625,0.02531647216796875,0.54802615234375
-0.42177357421875,0.1000690234375,0.5477803857421875
-0.432715078125,0.089285048828125,0.54802615234375
-0.26421591796875,0.19638952392578124,0.67975705078125
-0.17692703125,0.29025912109375,0.8653108349609375
-0.26372962890625,0.4047163061523438,1.0948568408203125
-0.4147223828125,0.5169676782226562,1.430328251953125
-0.49179919921875,0.5211342138671875,1.61956853515625
-0.52194912109375,0.39246178955078126,1.4939818017578126
-0.456056953125,0.10178465576171875,1.1631799560546874
-0.415208671875,0.05521749267578125,1.0206353271484374
-0.54650671875,0.1574201611328125,0.7613515625
-0.51270962890625,0.1476165478515625,0.675333251953125
-0.5559893554687501,0.064776015625,0.7298934375
-0.56571513671875,0.13707766357421874,0.9837703369140625
-0.55987966796875,0.257907197265625,1.208155244140625
-0.57495462890625,0.2522701196289063,1.4212348876953125
-0.56620142578125,0.1035002880859375,1.44261658203125
-0.45630009765625,0.01110123291015625,1.35807287109375
-0.33959072265625,-0.03252484619140625,1.1828412841796876
-0.323786328125,-0.12026718505859375,1.056763017578125
-0.22725794921875,-0.15457983154296875,0.9206083203125
-0.317950859375,-0.19330410400390624,0.820335546875
-0.40669861328125,-0.19918627197265626,0.7473428662109375
-0.50201126953125,-0.16462853515625,0.76626689453125
-0.5664445703125,-0.17810850341796874,0.8549886376953125
-0.518301953125,-0.13497260498046876,0.9429730810546875
-0.3009307421875,0.03119864013671875,1.1631799560546874
-0.35393625,0.0672269189453125,1.312360283203125
-0.34737134765625,0.04982550537109375,1.4318028515625
-0.34348103515625,0.06796218994140625,1.3216994140625
-0.36779548828124997,0.05497240234375,1.1479424267578124
-0.3612305859375,0.021885207519531248,0.9911433349609375
-0.38432931640625,0.01747358154296875,0.872929599609375
-0.37581925781250003,0.06600146728515625,0.7527497314453125
-0.4818302734375,0.01796376220703125,0.6913080810546874
-0.483289140625,0.05913893798828125,0.6863927490234375
-0.4059691796875,0.17678229736328124,0.686638515625
-0.3320532421875,0.26280900390625,0.7321053369140624
-0.37119951171875,0.30618999267578123,0.957473310546875
-0.44219771484375,0.23119235107421876,1.204222978515625
-0.4001337109375,0.26256391357421877,1.393954794921875
-0.33375525390625,0.253005390625,1.4217264208984375
-0.234309140625,0.27138716552734377,1.3755222998046874
-0.33910443359375,0.379472001953125,1.3819122314453125
-0.38287044921875,0.19246807861328125,1.229782705078125
-0.50249755859375,0.2123203955078125,1.16932412109375
-0.53702408203125,0.2721224365234375,1.0491442529296875
-0.50201126953125,0.19246807861328125,0.9090572900390625
-0.38578818359375,0.197124794921875,0.8778449316406249
-0.47672423828125,0.1956542529296875,0.7851909228515626
-0.39210994140625,0.07482471923828125,0.737266435546875
-0.27102396484375,0.0789912548828125,0.7168678076171875
-0.415208671875,0.12678386962890625,0.7974792529296875
-0.37363095703125,0.0289928271484375,0.8353273095703125
-0.27515742187500003,-0.1013952294921875,0.9488714794921875
-0.330594375,0.01845394287109375,1.0407881884765624
-0.3767918359375,-0.02125069091796875,0.954524111328125
-0.393811953125,-0.1229631787109375,0.8242678125
-0.43976626953125,-0.05458297607421875,0.7217831396484375
-0.4020788671875,-0.0013983740234375002,0.7365291357421875
-0.41885583984375,0.018699033203125,0.7741314257812499
-0.43976626953125,0.02286556884765625,0.806081083984375
-0.38043900390625,0.0008074389648437498,0.75250396484375
-0.3738741015625,0.0505607763671875,0.7394783349609375
-0.3349709765625,0.04590406005859375,0.77609755859375
-0.34348103515625,0.03536517578125,0.718588173828125
-0.42420501953125,0.0691876416015625,0.7117067089843749
-0.38335673828125,0.03855135009765625,0.683197783203125
-0.403537734375,0.0133070458984375,0.7168678076171875
-0.28196546875,0.09737302978515625,0.69941837890625
-0.3495596484375,0.048109873046875,0.7960046533203124
-0.4745359375,0.077520712890625,0.902421591796875
-0.6286895703125,0.05962911865234375,0.7822417236328125
-0.50687416015625,0.0760501708984375,0.733334169921875
-0.34591248046875,0.1270289599609375,0.7534870312499999
-0.2561921484375,0.15913579345703124,0.8087845166015625
-0.2639727734375,0.14050892822265626,0.9179048876953125
-0.403537734375,0.14737145751953126,1.0801108447265624
-0.55428734375,0.1113431787109375,1.072000546875
-0.44851947265625003,0.09492212646484376,1.0009739990234374
-0.4711319140625,0.11747043701171875,0.977626171875
-0.456056953125,0.110852998046875,1.009575830078125
-0.4594609765625,-0.0016434643554687498,1.016457294921875
-0.36925435546875,0.0035034326171875,1.0053977978515625
-0.40378087890625003,0.016738310546875,0.995812900390625
-0.36876806640625,0.026296833496093748,1.019406494140625
-0.489124609375,-0.02419177490234375,0.9788550048828125
-0.42858162109375,0.00399361328125,0.9390408154296875
-0.28707150390625,-0.010221625976562499,0.945676513671875
-0.37508982421875,-0.065612041015625,1.0171945947265626
-0.368524921875,-0.05311243408203125,1.0270252587890625
-0.4108320703125,-0.093062158203125,1.008592763671875
-0.56522884765625,-0.0523771630859375,0.965337841796875
-0.51173705078125,-0.0562986083984375,0.9375662158203125
-0.3913805078125,-0.1062970361328125,0.874895732421875
-0.4633512890625,0.0012976196289062499,0.9921264013671875
-0.4186126953125,-0.057278969726562504,0.9835245703125
-0.39259623046875003,-0.108747939453125,1.0029401318359374
-0.386031328125,-0.04821062744140625,1.0584833837890626
-0.4059691796875,-0.00997653564453125,1.0260421923828125
-0.378250703125,0.021885207519531248,0.942727314453125
-0.4195852734375,0.02433611083984375,0.9756600390625
-0.3777644140625,-0.01193725830078125,1.0412797216796874
-0.50979189453125,-0.0337502978515625,1.123611533203125
-0.41618125,0.026051743164062502,1.2265877392578124
-0.52000396484375,0.04492369873046875,1.2273250390625
-0.5290003125,0.02874773681640625,1.2491982666015624
-0.439523125,0.1000690234375,1.275986826171875
-0.54529099609375,0.11256863037109376,1.2666476953124999
-0.54237326171875,0.16305723876953124,1.1835785839843749
-0.436605390625,0.028502646484374998,1.08871267578125
-0.30311904296875003,0.0299731884765625,1.0904330419921875
-0.26251390625,0.0037485229492187503,1.1415524951171876
-0.39575710937499997,-0.049926259765625,1.2133163427734375
-0.6121557421875,-0.048455717773437504,1.1253318994140624
-0.6617572265625,-0.11830646240234374,0.9434646142578125
-0.5139253515625,-0.21928367919921876,0.8451579736328125
-0.41034578125,-0.25310614501953127,0.8068183837890625
-0.2931501171875,-0.19330410400390624,0.7964961865234375
-0.22142248046875002,-0.19281392333984376,0.788877421875
-0.26227076171875,-0.24477307373046875,0.8820229638671875
-0.36098744140625,-0.28300716552734373,1.0053977978515625
-0.41034578125,-0.30751619873046876,1.04152548828125
-0.4283384765625,-0.15016820556640625,1.0009739990234374
-0.42760904296875,-0.10850284912109374,0.945676513671875
-0.2902323828125,-0.10997339111328125,0.9292101513671875
-0.35199109375,0.008895419921875,1.1395863623046876
-0.47866939453125,0.009140510253906251,1.2344522705078125
-0.63136416015625,0.05472731201171875,1.168832587890625
-0.61288517578125,0.10276501708984374,0.920116787109375
-0.51538421875,0.10913736572265625,0.7606142626953125
-0.4497351953125,0.10374537841796876,0.7384952685546875
-0.3476144921875,0.062080021972656246,0.777080625
-0.43927998046875,0.06011929931640625,0.8301662109375
-0.43247193359375,0.16550814208984374,0.813945615234375
-0.29582470703125,0.06306038330078124,0.7571735302734375
-0.214857578125,-0.0347306591796875,0.823776279296875
-0.3670660546875,0.00717978759765625,0.9788550048828125
-0.46164927734375,-0.0631611376953125,1.05135615234375
-0.53118861328125,0.00570924560546875,1.044966220703125
-0.5265688671875,0.0417375244140625,0.8893959619140624
-0.392839375,0.04737460205078125,0.8557259375
-0.36974064453125,-0.01487834228515625,0.94223578125
-0.392839375,0.1613416064453125,1.0088385302734375
-0.421044140625,0.08413815185546875,0.9493630126953125
-0.46359443359375,0.1152646240234375,0.9469053466796875
-0.43247193359375,0.1260485986328125,0.82721701171875
-0.35174794921875,0.17384121337890626,0.875878798828125
-0.20294349609375,0.04198261474609375,0.9965502001953125
-0.343237890625,0.114774443359375,1.208155244140625
-0.4973915234375,0.1427147412109375,1.24207103515625
-0.57884494140625,-0.0308092138671875,1.0162115283203126
-0.5946493359375,-0.067572763671875,0.825742412109375
-0.45775896484375,-0.085219267578125,0.61094240234375
-0.2688356640625,-0.09967959716796874,0.497889765625
-0.13923962890625,-0.05458297607421875,0.5133730615234375
-0.19662173828125,-0.10188541015625,0.54999228515625
-0.19710802734375,-0.11585555908203125,0.6387140283203125
-0.34348103515625,-0.12026718505859375,0.9252778857421875
-0.56376998046875,-0.0455146337890625,1.1683410546875
-0.4312562109375,-0.0018885546875000003,1.3275978125
-0.5119801953125,-0.02370159423828125,1.3531575390625
-0.5586639453125,0.10962754638671875,1.17817171875
-0.4555706640625,0.04051207275390625,0.959439443359375
-0.33959072265625,0.0750698095703125,0.859658203125
-0.43198564453125,0.1240878759765625,0.7891231884765625
-0.423961875,0.0387964404296875,0.7139186083984375
-0.37314466796875,-0.00752563232421875,0.651248125
-0.46310814453125,0.0003172583007812497,0.656654990234375
-0.43636224609375,0.07776580322265625,0.7271900048828125
-0.31527626953125,-0.05874951171875,0.853268271484375
-0.26032560546875,0.0319339111328125,1.1268064990234374
-0.465782734375,0.02580665283203125,1.3175213818359375
-0.50979189453125,-0.11340465576171875,1.2796733251953125
-0.56522884765625,-0.12933552734375,1.1705529541015625
-0.58759814453125,-0.0612004150390625,1.0334151904296875
-0.52729830078125,-0.0366913818359375,0.890624794921875
-0.3106565234375,-0.1631579931640625,0.8721922998046875
-0.19029998046875,-0.15948163818359376,0.899472392578125
-0.3223274609375,-0.14967802490234375,0.9370746826171875
-0.41204779296875,-0.1808044970703125,0.9397781152343749
-0.53483578125,-0.18791211669921876,0.9795923046875
-0.5197608203125,-0.2504101513671875,0.8186151806640625
-0.34007701171875,-0.2925656884765625,0.82328474609375
-0.1599069140625,-0.18055940673828125,1.1145181689453125
-0.4667553125,-0.06487677001953125,1.2978600537109375
-0.701146640625,-0.12958061767578125,1.25780009765625
-0.5246237109375,-0.11438501708984375,1.007609697265625
-0.3437241796875,-0.114630107421875,0.8771076318359375
-0.3349709765625,-0.0999246875,0.9191337207031249
-0.40767119140625,-0.07958218994140626,1.0737209130859375
-0.43052677734375,-0.028358310546875,1.1390948291015626
-0.52316484375,-0.038161923828125,1.17129025390625
-0.57057802734375,-0.01634888427734375,1.1076367041015625
-0.39405509765625,0.0417375244140625,0.9557529443359375
-0.408400625,0.014777587890624999,0.8800568310546875
-0.32694720703125,0.0535018603515625,0.9739396728515625
-0.6024299609375,-0.130315888671875,0.923065986328125
-0.448276328125,-0.0749254736328125,0.8102591162109375
-0.4915560546875,0.02237538818359375,0.7797840576171875
-0.45411179687500003,0.0064445166015625,0.7522581982421875
-0.345183046875,-0.008751083984375,0.88226873046875
-0.3889490625,0.06894255126953125,1.0857634765625
-0.444386015625,0.0152677685546875,1.167849521484375
-0.42615017578125003,-0.06634731201171876,1.2113502099609375
-0.477453671875,0.0338946337890625,1.187510849609375
-0.46553958984375,-0.0028689160156250004,1.0594664501953126
-0.40718490234375,0.04492369873046875,0.9518206787109375
-0.4468174609375,0.1113431787109375,0.9439561474609375
-0.38505875,0.05913893798828125,0.9955671337890625
-0.5362946484375,0.0289928271484375,0.9567360107421875
-0.4672416015625,0.04492369873046875,0.9321593505859375
-0.37363095703125,0.024091020507812498,0.8667854345703125
-0.30141703125,0.01992448486328125,0.9881941357421875
-0.4390368359375,-0.006790361328125,1.0928907080078125
-0.44171142578125,0.00766996826171875,1.1341794970703125
-0.4575158203125,-0.09477779052734375,0.9827872705078124
-0.43344451171875,-0.04919098876953125,0.7397241015625
-0.30895451171875,-0.1249239013671875,0.683197783203125
-0.32475890625,-0.02076051025390625,0.6795112841796875
-0.36390517578125,0.0476196923828125,0.6984353125
-0.3972159765625,-0.03840701416015625,0.694994580078125
-0.3656071875,0.02335574951171875,0.741198701171875
-0.51027818359375,-0.0710040283203125,0.7409529345703125
-0.30992708984375,0.010856142578125,0.8333611767578125
-0.44924890625,0.03512008544921875,0.861132802734375
-0.36779548828124997,-0.0612004150390625,0.961897109375
-0.48985404296875,0.04835496337890625,1.046932353515625
-0.52778458984375,0.07335417724609375,0.996795966796875
-0.557205078125,0.0280124658203125,0.9994993994140625
-0.4361191015625,-0.0464949951171875,0.9414984814453125
-0.452166640625,-0.07713128662109375,0.8245135791015625
-0.220693046875,0.01306195556640625,0.8377849755859375
-0.25205869140625,0.03610044677734375,0.8812856640625
-0.37265837890625,-0.1092381201171875,1.0427543212890624
-0.4079143359375,-0.1170810107421875,1.1408151953125
-0.60461826171875,-0.12271808837890624,0.986965302734375
-0.61264203125,-0.10850284912109374,0.829674677734375
-0.45046462890625,-0.07124911865234375,0.662553388671875
-0.2095083984375,-0.03742665283203125,0.617332333984375
-0.13948277343749999,-0.0308092138671875,0.6291291308593749
-0.26056875,-0.11291447509765624,0.85081060546875
-0.4477900390625,-0.19183356201171875,0.935845849609375
-0.30409162109375,-0.07271966064453125,1.0683140478515625
-0.27637314453125,0.14394019287109375,1.3258774462890626
-0.50492900390625,-0.0798272802734375,1.468667841796875
-0.60364568359375,-0.153844560546875,1.409683857421875
-0.55039703125,0.03806116943359375,1.111814736328125
-0.5601228125,-0.013162709960937501,0.881777197265625
-0.31430369140625003,-0.00458454833984375,0.7532412646484374
-0.387976484375,0.09786321044921875,0.7114609423828124
-0.4118046484375,0.07972652587890625,0.507228896484375
-0.27102396484375,0.01600303955078125,0.5222206591796875
-0.27029453125,0.015022678222656249,0.6571465234375
-0.3816547265625,0.013552136230468751,0.94321884765625
-0.5917316015625,-0.013407800292968751,1.1720275537109375
-0.69166400390625,0.02678701416015625,1.410666923828125
-0.5820058203125,0.19540916259765626,1.4448284814453125
-0.486206875,0.042227705078125,1.35414060546875
-0.58151953125,0.03315936279296875,1.2595204638671875
-0.4769673828125,-0.06291604736328126,1.136391396484375
-0.4380642578125,-0.032279755859375,0.968287041015625
-0.4244481640625,-0.0249270458984375,0.8220559130859375
-0.31770771484375,0.04198261474609375,0.6976980126953125
-0.2941226953125,0.1064413720703125,0.592264140625
-0.2347954296875,0.0191892138671875,0.5797300439453125
-0.269321953125,0.07482471923828125,0.8790737646484375
-0.33570041015625,0.101049384765625,1.3057245849609376
-0.7385908984375,0.06551128662109375,1.6463570947265624
-0.7619327734375,0.16697868408203126,1.77882529296875
-0.650572578125,-0.018554697265625,1.3666747021484376
-0.57689978515625,-0.077376376953125,1.0393135888671874
-0.3223274609375,-0.110708662109375,0.8618701025390625
-0.277102578125,0.0008074389648437498,0.7709364599609375
-0.218747890625,0.055462583007812497,0.6374851953125
-0.22871681640625,-0.07958218994140626,0.6286375976562499
-0.4001337109375,-0.08399381591796876,0.735300302734375
-0.43733482421875003,-0.06536695068359374,0.8122252490234375
-0.47842625,-0.024436865234375,0.7999369189453125
-0.51805880859375,-0.00752563232421875,0.79182662109375
-0.4361191015625,0.12188206298828125,0.694994580078125
-0.41739697265625,-0.0011532836914062497,0.63650212890625
-0.450221484375,0.062080021972656246,0.7640549951171876
-0.48207341796875003,0.08242251953125,0.8215643798828125
-0.2824517578125,0.17482157470703125,0.8957858935546875
-0.160393203125,0.1348718505859375,0.98254150390625
-0.25935302734375,0.0652661962890625,1.1297556982421875
-0.39551396484375,0.0809519775390625,1.292207421875
-0.62650126953125,0.0593840283203125,1.24207103515625
-0.56960544921875,0.052031318359375,1.07298361328125
-0.42590703125,-0.0631611376953125,0.9803296044921875
-0.4857205859375,-0.08154291259765625,0.8117337158203125
-0.44560173828125,-0.02174087158203125,0.6033236376953125
-0.27637314453125,-0.1357078759765625,0.45512637695312497
-0.19832375,-0.10507158447265624,0.42366825195312496
-0.162338359375,-0.04919098876953125,0.621264599609375
-0.140941640625,0.0338946337890625,0.8097675830078125
-0.1920019921875,0.0701680029296875,1.2378930029296875
-0.51222333984375,-0.0043394580078125,1.69821384765625
-0.699201484375,-0.028358310546875,1.719349775390625
-0.61920693359375,-0.09845414550781251,1.108865537109375
-0.467727890625,-0.12712971435546874,0.701876044921875
-0.39356880859375,-0.15948163818359376,0.4467703125
-0.24938410156250002,-0.0945327001953125,0.344039873046875
-0.14361623046875,0.01551285888671875,0.2587588623046875
-0.1180860546875,0.026051743164062502,0.219190439453125
-0.1166271875,0.00816014892578125,0.3010307177734375
-0.08088494140625,0.05497240234375,0.5015762646484375
-0.37168580078125,0.08070688720703124,0.84687833984375
-0.5783586523437501,0.11599989501953126,1.124594599609375
-0.77676458984375,0.18119392333984374,1.36200513671875
-0.92313759765625,0.39613814453125,1.7495790673828124
-0.4079143359375,0.3542276977539062,1.5239653271484375
-0.3203823046875,0.1907524462890625,1.2349438037109375
-0.46991619140625,0.10766682373046875,0.94518498046875
-0.33035123046875,0.0407571630859375,0.7552073974609375
-0.360744296875,0.0054641552734375,0.615857734375
-0.4468174609375,0.0069346972656249995,0.5934929736328125
-0.31770771484375,0.07335417724609375,0.6040609375
-0.3816547265625,-0.02125069091796875,0.7498005322265625
-0.31478998046875,0.021640117187500002,0.8274627783203125
-0.5382398046875,0.07286399658203124,1.0068723974609375
-0.5995122265625,-0.04281864013671875,1.1892312158203124
-0.49471693359375,-0.130315888671875,1.3853529638671875
-0.62796013671875,0.08119706787109375,1.3878106298828126
-0.4283384765625,0.16207687744140625,1.214053642578125
-0.4176401171875,0.0691876416015625,1.1032129052734374
-0.333512109375,0.1191860693359375,1.0422627880859374
-0.38287044921875,0.080461796875,0.946168046875
-0.25205869140625,0.0074248779296875,0.942727314453125
-0.24233291015625,-0.13595296630859374,1.0909245751953125
-0.20537494140625,-0.19183356201171875,1.08871267578125
-0.2912049609375,-0.1386489599609375,1.0348897900390626
-0.6150734765625,-0.18840229736328126,0.9021758251953125
-0.590272734375,-0.20653898193359374,0.8461410400390625
-0.60510455078125,-0.165608896484375,0.8490902392578125
-0.55209904296875,-0.09281706787109376,0.975168505859375
-0.22361078125,0.05497240234375,1.1172216015625
-0.2221519140625,0.17825283935546876,1.23027423828125
-0.31697828125,0.0530116796875,1.26173236328125
-0.43101306640625,0.021640117187500002,1.2374014697265625
-0.53167490234375,0.19148771728515626,1.0516019189453125
-0.61385775390625,0.08413815185546875,0.9011927587890625
-0.62261095703125,-0.016593974609375,0.7571735302734375
-0.5829783984375,0.01796376220703125,0.7114609423828124
-0.55987966796875,0.02237538818359375,0.601603271484375
-0.48401857421875,0.06281529296875,0.6239680322265625
-0.471618203125,0.06624655761718751,0.71121517578125
-0.5431026953125,0.096147578125,0.831640810546875
-0.5635268359375,0.15276344482421875,0.9449392138671875
-0.51757251953125,0.08707923583984375,1.08871267578125
-0.389921640625,-0.012672529296875,1.324157080078125
-0.35028908203125,-0.1798241357421875,1.3376742431640625
-0.26956509765625,-0.14624676025390626,1.1258234326171874
-0.3602580078125,-0.09967959716796874,0.8235305126953125
-0.36828177734375,-0.1259042626953125,0.5635094482421875
-0.2824517578125,-0.1641383544921875,0.5114069287109375
-0.38676076171875,-0.15163874755859374,0.5153391943359376
-0.5003092578125,-0.042328459472656246,0.5910353076171875
-0.48110083984375,-0.00409436767578125,0.6937657470703125
-0.28998923828125,0.1338914892578125,0.9242948193359375
-0.2240970703125,0.19295825927734375,1.3445557080078125
-0.48815203125,0.1799684716796875,1.630873798828125
-0.53799666015625,0.1270289599609375,1.8454280419921876
-0.3028758984375,0.24393704833984375,1.5269145263671875
-0.4195852734375,0.0613447509765625,1.1125520361328125
-0.52972974609375,0.0294830078125,0.9768888720703125
-0.47623794921875,-0.15703073486328126,0.696960712890625
-0.24962724609375,-0.1592365478515625,0.332243076171875
-0.1735230078125,-0.07860182861328124,0.23885176757812498
-0.14264365234375,-0.04821062744140625,0.1520961572265625
-0.10617197265625,-0.0013983740234375002,0.143494326171875
-0.25400384765625,0.00423870361328125,0.29242888671875
-0.33959072265625,-0.00654527099609375,0.490025234375
-0.49860724609375,-0.01095689697265625,0.966320908203125
-0.5713074609375,0.18045865234375,1.467684775390625
-0.72521794921875,0.43412714599609376,1.8557502392578125
-0.726433671875,0.2547210229492187,2.129718558349609
-0.372415234375,-0.0219859619140625,1.63333146484375
-0.3019033203125,-0.0254172265625,0.93928658203125
-0.27272597656249997,-0.05703387939453125,0.3442856396484375
-0.1949197265625,-0.0513968017578125,0.2155039404296875
-0.11492517578125,-0.035711020507812496,0.03167052246093749
-0.0636216796875,-0.06732767333984375,0.1127735009765625
-0.0344443359375,-0.08056255126953125,0.2206650390625
-0.09401474609375,-0.07468038330078125,0.3767268310546875
-0.26640421875,-0.01095689697265625,0.8820229638671875
-0.5897864453125,0.00766996826171875,1.5146261962890626
-0.9413734375,0.183399736328125,1.9626587109375
-0.8411978906249999,0.52162439453125,2.129718558349609
-0.347128203125,0.34344372314453125,1.819131015625
-0.249870390625,0.2270258154296875,1.1422897949218749
-0.33570041015625,0.09933375244140626,0.7109694091796875
-0.4356328125,-0.04330882080078125,0.537212421875
-0.386031328125,-0.06536695068359374,0.51066962890625
-0.3972159765625,-0.0837487255859375,0.5846453759765625
-0.489124609375,-0.04526954345703125,0.626179931640625
-0.53507892578125,-0.04330882080078125,0.667468720703125
-0.40767119140625,-0.055808427734375,0.6967149462890625
-0.26470220703125,0.03659062744140625,0.82721701171875
-0.5061447265625,0.081442158203125,1.078390478515625
-0.63622705078125,0.1397736572265625,1.2963854541015625
-0.677804765625,0.1123235400390625,1.5677117822265625
-0.3028758984375,0.19099753662109376,1.601381806640625
-0.27029453125,0.3034939990234375,1.5163465624999999
-0.47842625,0.167713955078125,1.3234197802734375
-0.5450478515625,0.0427178857421875,1.0621698828125
-0.45095091796875,-0.10065995849609374,0.7571735302734375
-0.2659179296875,-0.21683277587890626,0.5684247802734375
-0.10714455078125,-0.17712814208984376,0.43988884765625
-0.02593427734375,-0.112669384765625,0.407939189453125
0.02853009765625,-0.053847705078125,0.4558636767578125
-0.02885201171875,-0.11242429443359375,0.752012431640625
-0.5178156640625,-0.02174087158203125,0.9577190771484375
-0.70722525390625,0.00766996826171875,1.5436266552734375
-0.6510588671875,0.12972495361328126,1.8444449755859376
-0.33715927734375,0.3044743603515625,1.65692505859375
-0.206104375,0.25325048095703123,1.1093570703125
-0.1453182421875,0.0054641552734375,0.78494515625
-0.28366748046875,-0.0513968017578125,0.7257154052734375
-0.4011062890625,-0.11389483642578124,0.5507295849609375
-0.25303126953125,-0.1111988427734375,0.384345595703125
-0.25692158203125,-0.01683906494140625,0.304717216796875
-0.27151025390625,-0.006790361328125,0.3504298046875
-0.27540056640625,0.009140510253906251,0.4435753466796875
-0.3583128515625,-0.0038492773437499997,0.75053783203125
-0.4978778125,-0.0038492773437499997,1.0879753759765625
-0.71062927734375,0.15692998046875,1.451955712890625
-0.91487068359375,0.2412410546875,1.7864440576171874
-0.766309375,0.36158040771484373,1.565991416015625
-0.23114826171875,0.2417312353515625,1.22044357421875
-0.17717017578125,0.0829127001953125,1.0130165625
-0.3942982421875,0.11060790771484375,0.769707626953125
-0.40864376953125,-0.02321141357421875,0.7335799365234374
-0.438550546875,-0.17810850341796874,0.7915808544921875
-0.461892421875,-0.1239435400390625,0.802148818359375
-0.34883021484375,-0.01169216796875,0.8903790283203125
-0.43174250000000003,-0.061690595703125004,0.945676513671875
-0.60899486328125,-0.1013952294921875,1.0049062646484375
-0.63768591796875,0.028257556152343752,1.05725455078125
-0.4594609765625,0.036345537109375,1.1582646240234376
-0.42055785156250003,0.06992291259765625,1.2020110791015626
-0.3349709765625,0.13511694091796875,1.103950205078125
-0.30749564453125,0.08242251953125,0.9852449365234375
-0.34980279296875,-0.00801581298828125,0.843437607421875
-0.35904228515625003,-0.0455146337890625,0.8365561425781249
-0.49885039062500003,-0.08987598388671875,0.7684787939453125
-0.4434134375,-0.19379428466796875,0.633061396484375
-0.35272052734375,-0.22712656982421875,0.54802615234375
-0.33424154296874997,-0.2641352099609375,0.5015762646484375
-0.42080099609375,-0.23104801513671874,0.5753062451171875
-0.30846822265625,0.0917359521484375,0.6283918310546874
-0.2591098828125,0.174576484375,0.832623876953125
-0.3417790234375,0.11379408203125,1.1700614208984375
-0.4468174609375,0.019679394531249998,1.394446328125
-0.33715927734375,0.11967625,1.5564065185546876
-0.17862904296875,0.10987263671875,1.528634892578125
-0.13291787109375,0.0927163134765625,1.4979140673828124
-0.21193984375,0.05178622802734375,1.4915241357421876
-0.49568951171875,0.1368325732421875,1.4861172705078125
-0.7638779296875,0.12678386962890625,1.3806833984375
-0.763391640625,0.0731090869140625,1.1604765234375
-0.4477900390625,0.12163697265625,1.0638902490234374
-0.1190586328125,0.05227640869140625,1.107882470703125
-0.4691867578125,0.03168882080078125,0.948625712890625
-0.5664445703125,-0.10605194580078126,0.6003744384765625
-0.32013916015625,-0.17639287109375001,0.4779826708984375
-0.27807515625,-0.1587463671875,0.42612591796875
-0.23017568359375,-0.14502130859375,0.4765080712890625
-0.18592337890625,-0.140119501953125,0.5551533837890625
-0.203186640625,-0.112669384765625,0.777572158203125
-0.48450486328125,-0.09183670654296874,0.9591936767578125
-0.60097109375,-0.10948321044921874,1.0486527197265625
-0.54626357421875,0.10570610107421875,1.13786599609375
-0.47137505859375,0.18364482666015625,1.106899404296875
-0.25205869140625,0.1789881103515625,0.9442019140625
-0.44997833984375,0.11771552734375,0.8884128955078126
-0.41034578125,-0.0268877685546875,0.8225474462890625
-0.36925435546875,0.044188427734375,0.7515208984375
-0.39502767578125,0.1515379931640625,0.728418837890625
-0.35466568359375,0.18952699462890624,0.72891037109375
-0.11443888671875,0.11158826904296874,0.85867513671875
-0.1608794921875,0.11845079833984375,1.1666206884765624
-0.39600025390625,0.0191892138671875,1.441141982421875
-0.6666201171875,0.0025230712890624996,1.387073330078125
-0.64935685546875,0.0760501708984375,1.0914161083984375
-0.489124609375,-0.0494360791015625,0.7139186083984375
-0.218747890625,-0.0661022216796875,0.5939845068359375
-0.15164,0.04100225341796875,0.5517126513671875
-0.12829812499999999,0.01404231689453125,0.4701181396484375
-0.2085358203125,-0.00507472900390625,0.5276275244140625
-0.401592578125,0.0329142724609375,0.6500192919921874
-0.50954875,0.06109966064453125,0.7842078564453125
-0.55550306640625,0.0020328906249999995,0.9051250244140625
-0.3612305859375,0.13511694091796875,0.9503460791015625
-0.3330258203125,0.1642826904296875,0.937811982421875
-0.40864376953125,-0.0249270458984375,0.865065068359375
-0.27977716796875,0.11550971435546875,0.8952943603515625
-0.3106565234375,0.05668803466796875,0.72104583984375
-0.19346085937500002,0.062080021972656246,0.884726396484375
-0.43927998046875,-0.144040947265625,1.0781447119140626
-0.4370916796875,-0.2278618408203125,1.1258234326171874
-0.33375525390625,0.091245771484375,1.01203349609375
-0.3972159765625,0.05080586669921875,0.7161305078125
-0.37144265625,-0.00458454833984375,0.626179931640625
-0.392839375,0.0574233056640625,0.8078014501953125
-0.366579765625,-0.027868129882812502,0.98942296875
-0.3865176171875,0.03610044677734375,1.1010010058593749
-0.52146283203125,0.26795590087890625,1.15556119140625
-0.63963107421875,0.27923005615234375,1.1813666845703126
-0.339347578125,0.1093824560546875,1.1172216015625
-0.209022109375,-0.06095532470703125,1.2806563916015625
-0.32937865234375,0.03757098876953125,1.3706069677734374
-0.54869501953125,0.0338946337890625,1.092153408203125
-0.401592578125,0.08756941650390625,0.82721701171875
-0.55453048828125,-0.0386521044921875,0.7556989306640625
-0.53070232421875,-0.14085477294921875,0.74857169921875
-0.43247193359375,0.0054641552734375,0.7556989306640625
-0.4769673828125,-0.06046514404296875,0.6750874853515625
-0.428824765625,-0.06242586669921875,0.5467973193359374
-0.26761994140625,-0.15286419921875,0.59914560546875
-0.13948277343749999,-0.21560732421875,0.932896650390625
-0.43344451171875,-0.23055783447265624,1.268122294921875
-0.5917316015625,-0.08105273193359375,1.4345062841796876
-0.384086171875,-0.03203466552734375,1.3647085693359375
-0.22677166015625,-0.2513905126953125,1.1386032958984376
-0.34542619140624997,-0.08742508056640624,0.9439561474609375
-0.33570041015625,-0.0661022216796875,0.8884128955078126
-0.40694175781249997,0.02874773681640625,1.0110504296875
-0.5606091015625,-0.0001729223632812504,1.269105361328125
-0.63039158203125,-0.06781785400390625,1.388056396484375
-0.55453048828125,0.01183650390625,1.3081822509765626
-0.40256515625,0.10815700439453126,1.0457035205078125
-0.4059691796875,-0.02468195556640625,0.640925927734375
-0.3033621875,-0.1641383544921875,0.5981625390625
-0.26178447265625,-0.17639287109375001,0.7729025927734375
-0.38919220703125,0.05889384765625,1.0137538623046876
-0.5829783984375,0.03536517578125,1.1565442578125
-0.6598120703125,-0.0200252392578125,1.11820466796875
-0.63525447265625,-0.05605351806640625,0.84884447265625
-0.4390368359375,0.0020328906249999995,0.74267330078125
-0.15431458984375,-0.03644629150390625,0.7556989306640625
-0.2435486328125,0.02580665283203125,0.7242408056640625
-0.3865176171875,-0.09428760986328125,0.7158847412109375
-0.504685859375,-0.20163717529296876,0.8240220458984375
-0.56474255859375,-0.2249207568359375,0.835573076171875
-0.36779548828124997,-0.1523740185546875,0.8498275390625
-0.23649744140625,0.08756941650390625,1.1445016943359374
-0.39843169921875,0.0927163134765625,1.3194875146484375
-0.57641349609375,0.097127939453125,1.365445869140625
-0.5275414453125,-0.049926259765625,1.303512685546875
-0.42955419921875,-0.16438344482421874,1.0447204541015624
-0.27296912109375,0.0191892138671875,0.9483799462890625
-0.43976626953125,-0.0881603515625,0.9395323486328125
-0.41399294921875,-0.2102153369140625,0.7399698681640625
-0.392839375,-0.216587685546875,0.490516767578125
-0.18300564453125,-0.17271651611328126,0.3880320947265625
-0.11687033203125,-0.0925719775390625,0.37205726562499997
-0.22190876953125,7.216796875000007e-05,0.4784742041015625
-0.30652306640625,-0.013407800292968751,0.58538267578125
-0.3962433984375,-0.13203152099609375,0.7316138037109375
-0.46310814453125,-0.0200252392578125,0.9193794873046874
-0.37922328125,0.19933060791015625,1.1705529541015625
-0.38189787109375,0.3277579418945312,1.3275978125
-0.30944080078125,0.31746414794921873,1.388056396484375
-0.18640966796875,0.111833359375,1.406243125
-0.18300564453125,0.16942958740234376,1.429345185546875
-0.47769681640625,-0.0327699365234375,1.284834423828125
-0.57203689453125,-0.02370159423828125,1.0582376171875
-0.59319046875,-0.0817880029296875,0.7183424072265625
-0.504685859375,-0.1116890234375,0.543602353515625
-0.47648109375000003,-0.1161006494140625,0.5064915966796875
-0.273212265625,0.03928662109375,0.49494056640625
-0.129270703125,0.07923634521484375,0.5640009814453125
-0.3155194140625,-0.02615249755859375,0.7891231884765625
-0.35369310546875,-0.18987283935546875,0.8849721630859375
-0.35028908203125,-0.25065524169921877,0.9655836083984375
-0.28269490234375,-0.15899145751953125,1.0810939111328124
-0.23357970703125,-0.20555862060546876,0.966320908203125
-0.333512109375,-0.1611972705078125,0.915201455078125
-0.5538010546875,-0.1347275146484375,0.9065996240234375
-0.52705515625,-0.0337502978515625,1.0289913916015625
-0.42055785156250003,-0.075415654296875,0.9493630126953125
-0.47137505859375,-0.00948635498046875,0.7908435546875
-0.2153438671875,0.073599267578125,0.6455954931640625
-0.1015522265625,0.018699033203125,0.54212775390625
-0.15917748046875,0.049090234375,0.6613245556640625
-0.4108320703125,0.0530116796875,0.7758517919921875
-0.44560173828125,0.0868341455078125,1.0147369287109376
-0.408400625,-0.02125069091796875,1.22830810546875
-0.53872609375,0.0966377587890625,1.2624696630859376
-0.6500862890625,0.01698340087890625,1.125577666015625
-0.55817765625,0.07261890625,0.950591845703125
-0.4059691796875,-0.0210056005859375,0.806081083984375
-0.2474389453125,-0.06781785400390625,0.9154472216796875
-0.36463460937500003,0.1113431787109375,1.1877566162109374
-0.3962433984375,0.16991976806640624,1.332021611328125
-0.5508833203125,-0.00605509033203125,1.2098756103515624
-0.45532751953125,0.0686974609375,1.0157199951171876
-0.41399294921875,-0.12541408203125,0.702367578125
-0.22920310546875,-0.14624676025390626,0.53622935546875
-0.205131796875,-0.1131595654296875,0.4617620751953125
-0.22336763671875,-0.10409122314453124,0.378447197265625
-0.2955815625,-0.18742193603515625,0.469872373046875
-0.4536255078125,-0.155805283203125,0.6623076220703125
-0.5421301171875,-0.1249239013671875,0.8223016796875
-0.4589746875,-0.015368522949218751,0.9444476806640625
-0.42663646484375,0.032424091796875,1.0732293798828125
-0.2912049609375,-0.093062158203125,1.1386032958984376
-0.32475890625,-0.0151234326171875,1.20078224609375
-0.30166017578125,-0.0053198193359375,1.02972869140625
-0.35223423828125,-0.1151202880859375,0.8584293701171875
-0.28609892578125,-0.09428760986328125,0.9070911572265625
-0.16793068359375,-0.0406128271484375,0.977626171875
-0.32159802734375,-0.16193254150390626,1.111323203125
-0.49520322265625,0.0603643896484375,1.2167570751953125
-0.6588394921875,0.16893940673828126,1.1848074169921876
-0.5820058203125,0.23119235107421876,1.1813666845703126
-0.459947265625,0.17506666503906249,1.1749767529296875
-0.32475890625,-0.02909358154296875,1.1958669140625
-0.3408064453125,0.01453249755859375,1.0722463134765625
-0.38335673828125,-0.1445311279296875,0.766758427734375
-0.2659179296875,-0.15850127685546875,0.6318325634765625
-0.29290697265625,-0.18252012939453124,0.6298664306640624
-0.47404964843749997,-0.20506843994140625,0.657638056640625
-0.4623787109375,-0.1979608203125,0.82721701171875
-0.31333111328125,-0.0964934228515625,0.88620099609375
-0.22044990234375,0.06673673828125,1.0739666796875
-0.39551396484375,0.2020266015625,1.1528577587890625
-0.61774806640625,0.1427147412109375,1.237155703125
-0.750748125,-0.050661530761718754,1.21454517578125
-0.70819783203125,0.08560869384765625,1.0068723974609375
-0.33229638671875,0.0966377587890625,0.75643623046875
-0.152612578125,0.10570610107421875,0.6632906884765625
-0.18251935546875,0.10374537841796876,0.5930014404296875
-0.1501811328125,-0.07664110595703125,0.581941943359375
-0.174981875,-0.05482806640625,0.799199619140625
-0.4137498046875,0.06845237060546874,1.25386783203125
-0.50201126953125,-0.08350363525390625,1.5829493115234374
-0.53118861328125,0.0530116796875,1.9862523046875
-0.5489381640625,0.1093824560546875,1.8346143115234375
-0.58662556640625,-0.0406128271484375,1.417548388671875
-0.35077537109375,-0.067572763671875,1.196358447265625
-0.4419545703125,0.00521906494140625,1.0801108447265624
-0.39065107421875,-0.1509034765625,0.88030259765625
-0.32475890625,-0.136198056640625,0.6593584228515625
-0.29193439453125003,-0.06977857666015624,0.4526687109375
-0.24573693359375,-0.081297822265625,0.395159326171875
-0.30141703125,-0.09967959716796874,0.326344677734375
-0.3388612890625,-0.08203309326171875,0.3364211083984375
-0.3748466796875,-0.065612041015625,0.3088952490234375
-0.2999581640625,-0.07075893798828126,0.35165863769531247
-0.312115390625,-0.0651218603515625,0.5502380517578125
-0.405482890625,0.02433611083984375,0.88423486328125
-0.46116298828125,0.1593808837890625,1.1189419677734376
-0.5382398046875,0.2976118310546875,1.3912513623046876
-0.377278125,0.16991976806640624,1.7579351318359375
-0.36755234375,-0.06585713134765625,1.7458925683593751
-0.3699837890625,0.1711452197265625,1.3420980419921875
-0.35077537109375,0.111833359375,0.92159138671875
-0.25546271484375,-0.0219859619140625,0.65616345703125
-0.3111428125,0.00276816162109375,0.5787469775390625
-0.4536255078125,7.216796875000007e-05,0.582925009765625
-0.45775896484375,0.0003172583007812497,0.57161974609375
-0.4594609765625,-0.029338671875,0.541636220703125
-0.38432931640625,0.01453249755859375,0.5050169970703124
-0.33959072265625,0.0530116796875,0.522957958984375
-0.30919765625,-0.0219859619140625,0.643875126953125
-0.32791978515625,-0.106787216796875,0.8392595751953125
-0.35466568359375,-0.06781785400390625,1.087729609375
-0.44706060546875,0.02237538818359375,1.2708257275390624
-0.3009307421875,-0.04330882080078125,1.1253318994140624
-0.26081189453125,-0.06267095703125,0.8382765087890625
-0.38967849609375,0.06060947998046875,0.6598499560546875
-0.3515048046875,0.1427147412109375,0.6020948046875
-0.32062544921875,0.177517568359375,0.600128671875
-0.36439146484375,0.171635400390625,0.77019916015625
-0.44657431640625,-0.08840544189453126,0.867031201171875
-0.51854509765625,-0.144040947265625,0.923065986328125
-0.54140068359375,0.0211499365234375,0.87440419921875
-0.3252451953125,-0.04281864013671875,0.834590009765625
-0.3427516015625,-0.01732924560546875,0.9837703369140625
-0.53872609375,-0.0700236669921875,1.13000146484375
-0.46164927734375,-0.1200220947265625,1.1427813281249999
-0.21218298828125,0.0338946337890625,1.1892312158203124
-0.12635296875,0.101049384765625,1.2600119970703125
-0.14191421875,0.1270289599609375,1.3224367138671875
-0.40572603515625,0.14786163818359374,1.333987744140625
-0.6024299609375,0.026541923828125,1.1100943701171875
-0.63379560546875,-0.04281864013671875,0.850319072265625
-0.5343494921875,-0.12933552734375,0.674350185546875
-0.298499296875,-0.0999246875,0.6387140283203125
-0.28609892578125,0.0451687890625,0.7291561376953125
-0.5112507617187501,-0.0602200537109375,0.75250396484375
-0.43782111328125,-0.059484782714843754,0.68172318359375
-0.27880458984375,-0.0759058349609375,0.823776279296875
-0.41447923828125,-0.17663796142578125,1.055779951171875
-0.636956484375,-0.16070708984375,1.162934189453125
-0.45873154296875,-0.0376717431640625,1.010558896484375
-0.15236943359375,-0.03448556884765625,0.8952943603515625
-0.09498732421875,-0.061690595703125004,0.9191337207031249
-0.267376796875,-0.2229600341796875,0.9847534033203125
-0.42979734375,-0.13350206298828124,1.048898486328125
-0.6403605078125,-0.07835673828125,0.9803296044921875
-0.6325798828125,-0.157766005859375,0.840488408203125
-0.5508833203125,-0.202862626953125,0.804606484375
-0.3281629296875,-0.08791526123046875,0.8616243359375
-0.30798193359375,0.04051207275390625,0.8687515673828125
-0.294608984375,0.03512008544921875,0.8397511083984375
-0.29290697265625,0.02482629150390625,0.8783364648437499
-0.36366203125,-0.04919098876953125,1.127543798828125
-0.33132380859375,0.15031254150390624,1.3352165771484374
-0.361716875,0.2583973779296875,1.5446097216796875
-0.41593810546875,0.18413500732421875,1.661840390625
-0.501768125,0.07457962890625,1.5106939306640625
-0.64376453125,0.01208159423828125,1.1211538671875
-0.4896108984375,-0.1131595654296875,0.798216552734375
-0.39113736328125,-0.10409122314453124,0.7404614013671875
-0.32257060546875,-0.08227818359375,0.89603166015625
-0.30871136718750003,-0.18423576171875,1.0083469970703125
-0.3719289453125,-0.18423576171875,1.08478041015625
-0.475508515625,-0.0474753564453125,0.954032578125
-0.48645001953125,-0.15605037353515624,0.7896147216796875
-0.3456693359375,-0.24330253173828126,0.647807392578125
-0.16355408203125,-0.2131564208984375,0.646824326171875
-0.096203046875,-0.1798241357421875,0.715638974609375
-0.2027003515625,-0.2844777075195313,0.84491220703125
-0.51659994140625,-0.24771415771484376,0.804606484375
-0.57106431640625,-0.18595139404296876,0.76233462890625
-0.570821171875,-0.200901904296875,0.6396970947265626
-0.34591248046875,-0.01095689697265625,0.6667314208984375
-0.1842213671875,-0.01781942626953125,0.7399698681640625
-0.1501811328125,-0.10727739746093751,0.694503046875
-0.172064140625,-0.15997181884765624,0.6846723828125
-0.19224513671875,-0.208744794921875,0.704825244140625
-0.25692158203125,-0.204823349609375,0.7239950390625
-0.4200715625,0.01110123291015625,0.829674677734375
-0.44900576171875,0.19099753662109376,1.095102607421875
-0.47964197265624997,0.10987263671875,1.3216994140625
-0.607779140625,0.1319307666015625,1.0850261767578124
-0.473563359375,0.22236909912109376,0.95894791015625
-0.3378887109375,0.09541230712890625,0.6947488134765625
-0.25254498046875,0.08070688720703124,0.6308494970703125
-0.3748466796875,-0.06438658935546875,0.6859012158203125
-0.42128728515625,-0.13595296630859374,0.8441749072265625
-0.2921775390625,-0.11683592041015625,1.0186691943359376
-0.35199109375,-0.08399381591796876,1.1833328173828126
-0.376305546875,0.033404453125,1.323174013671875
-0.5635268359375,0.06281529296875,1.4266417529296875
-0.5012818359375,0.010611052246093749,1.5195415283203124
-0.6423056640625,0.03757098876953125,1.46817630859375
-0.69506802734375,-0.08742508056640624,1.3452930078125
-0.58127638671875,-0.1298257080078125,1.0810939111328124
-0.4730770703125,-0.00777072265625,0.8810398974609375
-0.40062,-0.10458140380859375,0.658621123046875
-0.263486484375,-0.234234189453125,0.6328156298828125
-0.22701480468750002,-0.30114385009765626,0.7203085400390625
-0.23455228515625,-0.3160943603515625,0.814928681640625
-0.37654869140625,-0.22124440185546876,0.8146829150390625
-0.52340798828125,-0.233253828125,0.69941837890625
-0.50833302734375,-0.1347275146484375,0.6937657470703125
-0.255705859375,-0.10286577148437501,0.765283828125
-0.40256515625,-0.0239466845703125,1.024321826171875
-0.58419412109375,0.0544822216796875,1.1422897949218749
-0.493014921875,0.0686974609375,1.1282810986328125
-0.3767918359375,-0.06683749267578125,1.0039231982421875
-0.3787369921875,0.0064445166015625,0.9754142724609375
-0.19078626953125,-0.15850127685546875,0.9744312060546875
-0.21121041015625,-0.20898988525390624,0.9940925341796875
-0.31697828125,0.0427178857421875,1.0068723974609375
-0.36585033203125,-0.07860182861328124,0.9414984814453125
-0.35174794921875,-0.13791368896484374,0.9980247998046875
-0.463837578125,-0.11830646240234374,0.90586232421875
-0.47429279296875,-0.0406128271484375,0.7984623193359375
-0.43368765625,-0.14232531494140624,0.7552073974609375
-0.43004048828125,-0.09820905517578125,0.7281730712890625
-0.3135742578125,-0.0935523388671875,0.6190527001953126
-0.13680818359375,-0.16683434814453124,0.6156119677734375
-0.08963814453125,-0.1621776318359375,0.7247323388671875
-0.26421591796875,-0.163648173828125,1.0117877294921875
-0.413263515625,-0.17835359375,1.1857904833984374
-0.39843169921875,-0.11536537841796875,1.1484339599609374
-0.45168035156249997,-0.08497417724609375,1.1194335009765626
-0.3641483203125,-0.02664267822265625,1.0461950537109375
-0.345183046875,0.02752228515625,0.8943112939453125
-0.2250696484375,0.11060790771484375,0.82131861328125
-0.3344846875,0.0883046875,0.875387265625
-0.52729830078125,0.061834931640625,1.0865007763671874
-0.54042810546875,0.06257020263671875,1.2678765283203126
-0.547479296875,0.0319339111328125,1.3032669189453125
-0.47915568359375,0.18168410400390625,1.3492252734375
-0.46991619140625,0.0966377587890625,1.2393676025390625
-0.53459263671875,0.02727719482421875,1.0189149609375
-0.55039703125,-0.03056412353515625,0.90389619140625
-0.39478453125,0.023845930175781252,0.8360646093749999
-0.26640421875,-0.05090662109375,0.8839890966796875
-0.3267040625,-0.1621776318359375,0.96288017578125
-0.2644590625,-0.15850127685546875,1.0162115283203126
-0.36001486328125,-0.2516356030273437,0.8943112939453125
-0.43538966796875,-0.26241957763671875,0.6554261572265625
-0.47259078125,-0.25482177734375,0.650756591796875
-0.41302037109375,-0.28153662353515624,0.5772723779296876
-0.34980279296875,-0.29428132080078123,0.623722265625
-0.27783201171875,-0.10703230712890625,0.70924904296875
-0.22239505859375,-0.07271966064453125,0.8132083154296875
-0.2921775390625,-0.10605194580078126,0.9552614111328125
-0.50979189453125,-0.09404251953125001,1.024813359375
-0.3797095703125,0.024581201171875,1.0582376171875
-0.28707150390625,0.0623251123046875,0.943710380859375
-0.37849384765625,0.1564397998046875,0.9213456201171875
-0.4614061328125,0.1515379931640625,0.783470556640625
-0.45313921875,0.04712951171875,0.64240052734375
-0.33570041015625,0.026296833496093748,0.501330498046875
-0.18154677734375,-0.0063001806640625,0.4067103564453125
-0.12708240234375,-0.029338671875,0.375497998046875
-0.35174794921875,-0.02174087158203125,0.438414248046875
-0.43490337890624997,-0.0249270458984375,0.5069831298828125
-0.30603677734375,0.11771552734375,0.7709364599609375
-0.21899103515625,0.21844765380859374,1.07691587890625
-0.3223274609375,0.19687970458984375,1.3524202392578124
-0.5489381640625,0.11060790771484375,1.609246337890625
-0.38311359375,0.06011929931640625,1.57827974609375
-0.37217208984375,-0.05556333740234375,1.1872650830078124
-0.1628246484375,0.004973974609375,0.9965502001953125
-0.3057936328125,-0.0915916162109375,1.035135556640625
-0.46456701171875,-0.08644471923828125,0.954032578125
-0.32986494140625,-0.10360104248046875,0.8087845166015625
-0.35758341796875,-0.128355166015625,0.776589091796875
-0.4215304296875,-0.09379742919921875,0.7434106005859376
-0.38700390625000003,-0.10115013916015625,0.7389868017578125
-0.41058892578125,-0.08840544189453126,0.744147900390625
