ax,ay,az
-0.21193984375,0.0711483642578125,1.0739666796875
-0.31187224609374997,0.08217742919921875,1.0594664501953126
-0.24622322265625,0.0936966748046875,1.096085673828125
-0.27345541015625,0.065756376953125,1.03366095703125
-0.29679728515625,-0.00311400634765625,0.833606943359375
-0.01620849609375,-0.0063001806640625,0.8372934423828124
-0.140941640625,0.0927163134765625,1.0815854443359374
-0.4263933203125,0.12776423095703124,1.265173095703125
-0.3913805078125,0.04835496337890625,1.2233927734375
-0.31868029296875,0.0387964404296875,1.0029401318359374
-0.20586123046875,-0.03252484619140625,0.76233462890625
-0.15431458984375,-0.13350206298828124,0.7080202099609375
-0.2800203125,-0.08301345458984374,0.8048522509765625
-0.19905318359375002,0.08634396484375,0.8323781103515625
-0.20391607421875,-0.06781785400390625,0.8220559130859375
-0.3019033203125,-0.04870080810546875,0.9567360107421875
-0.26275705078125,-0.03840701416015625,0.9159387548828125
-0.16598552734375,-0.10556176513671875,0.82131861328125
-0.2411171875,0.10595119140625,0.8928366943359375
-0.24038775390625,0.01575794921875,0.8564632373046875
-0.2357680078125,0.05080586669921875,0.993355234375
-0.3116291015625,-0.01879978759765625,1.0019570654296874
-0.34445361328125,-0.075415654296875,1.0189149609375
-0.199296328125,-0.0543378857421875,0.941744248046875
-0.2484115234375,-0.12712971435546874,0.847369873046875
-0.257651015625,-0.0729647509765625,0.93142205078125
-0.22288134765625,-0.0011532836914062497,0.891607861328125
-0.2309051171875,-0.04306373046875,0.8825144970703125
-0.22871681640625,0.0936966748046875,0.9604225097656249
-0.15869119140625,0.080461796875,1.0255506591796875
-0.2698082421875,0.1025199267578125,1.21257904296875
-0.29533841796875,0.1584005224609375,1.319241748046875
-0.213885,0.0799716162109375,1.2718087939453124
-0.23552486328125,0.0672269189453125,1.23027423828125
-0.40669861328125,0.0015427099609375003,1.2155282421875
-0.2873146484375,0.0358553564453125,1.1840701171874999
-0.3835998828125,-0.011201987304687501,1.011541962890625
-0.3189234375,0.00570924560546875,0.7453767333984375
-0.18640966796875,-0.151883837890625,0.6308494970703125
-0.105928828125,-0.17418705810546875,0.6618160888671875
-0.22823052734375,-0.1509034765625,0.731368037109375
-0.2722396875,-0.1935491943359375,0.8318865771484375
-0.29776986328125,-0.11536537841796875,0.8132083154296875
-0.13923962890625,-0.09134652587890625,0.8530225048828125
-0.3126016796875,-0.07051384765625,0.880794130859375
-0.3369161328125,-0.03129939453125,0.946168046875
-0.33570041015625,-0.03497574951171875,0.96484630859375
-0.35855599609375,0.05227640869140625,0.9390408154296875
-0.18203306640625,0.0172284912109375,0.9242948193359375
-0.2853694921875,-0.08595453857421875,0.979100771484375
-0.22142248046875002,-0.0308092138671875,1.088221142578125
-0.31235853515625,-0.05997496337890625,1.0997721728515626
-0.3709563671875,0.00717978759765625,0.902913125
-0.12367837890625,0.01183650390625,0.7397241015625
-0.1706052734375,-0.05213207275390625,0.7960046533203124
-0.1754681640625,0.0584036669921875,0.9945840673828125
-0.16890326171875,-0.014633251953124999,1.1941465478515625
-0.46699845703125,0.07065818359375,1.3531575390625
-0.37338781249999997,0.16085142578125,1.19881611328125
-0.29971501953125,0.02360083984375,1.0019570654296874
-0.3583128515625,0.06355056396484375,0.9665666748046875
-0.2177753125,-0.00948635498046875,0.896523193359375
-0.2104809765625,-0.07443529296875,0.7394783349609375
-0.22336763671875,0.0074248779296875,0.68958771484375
-0.10374052734375,-0.0808076416015625,0.7114609423828124
-0.18640966796875,-0.0229663232421875,0.930930517578125
-0.25497642578125,-0.02076051025390625,1.060695283203125
-0.302389609375,-0.0788469189453125,1.17129025390625
-0.42906791015625,0.00816014892578125,1.1848074169921876
-0.31235853515625,-0.08963089355468751,1.0928907080078125
-0.22750109375,0.02874773681640625,1.08281427734375
-0.24379177734375002,-0.03497574951171875,1.0879753759765625
-0.300444453125,-0.055073156738281254,1.11623853515625
-0.316005703125,-0.02174087158203125,1.0444746875
-0.24379177734375002,0.02090484619140625,0.9783634716796875
-0.28366748046875,-0.010221625976562499,0.9292101513671875
-0.21169669921875,-0.02370159423828125,0.95108337890625
-0.119544921875,-0.03693647216796875,1.009084296875
-0.25254498046875,0.03757098876953125,1.1336879638671875
-0.1783858984375,0.00178780029296875,1.182103984375
-0.25011353515625,0.036345537109375,1.136391396484375
-0.3019033203125,0.11943115966796874,1.0987891064453126
-0.3189234375,0.0044837939453125,0.9434646142578125
-0.31478998046875,-0.05360261474609375,0.85277673828125
-0.25692158203125,-0.010221625976562499,0.7778179248046875
-0.20002576171875,-0.0180645166015625,0.7139186083984375
-0.14799283203125,-0.0229663232421875,0.7502920654296875
-0.15188314453125001,-0.06585713134765625,0.8736668994140625
-0.19759431640625,0.019434304199218752,1.0260421923828125
-0.27296912109375,0.0280124658203125,1.12606919921875
-0.32354318359375,-0.00948635498046875,1.0879753759765625
-0.1725504296875,0.09247122314453125,1.0653648486328124
-0.27515742187500003,0.04002189208984375,1.019406494140625
-0.1715778515625,0.05227640869140625,1.08084814453125
-0.31770771484375,-0.01561361328125,1.0806023779296874
-0.3680386328125,0.024581201171875,1.02972869140625
-0.30311904296875003,-0.00507472900390625,0.9837703369140625
-0.28707150390625,-0.048455717773437504,1.023338759765625
-0.19905318359375002,-0.060710234375,1.07101748046875
-0.17717017578125,0.00325834228515625,1.019406494140625
-0.154557734375,-0.012672529296875,0.9542783447265625
-0.2114535546875,0.01306195556640625,1.026287958984375
-0.26178447265625,0.06747200927734374,1.10640787109375
-0.23917203125,-0.035711020507812496,1.0471781201171875
-0.31868029296875,-0.00850599365234375,1.0226014599609374
-0.32597462890625,-0.0415931884765625,0.9567360107421875
-0.185680234375,-0.06928839599609375,0.8368019091796874
-0.27540056640625,-0.050661530761718754,0.8043607177734375
-0.279047734375,-0.046004814453125,0.8368019091796874
-0.2464663671875,-0.03595611083984375,0.8340984765625
-0.23917203125,0.0010525292968750002,0.78199595703125
-0.24233291015625,-0.09281706787109376,0.722520439453125
-0.280992890625,-0.03742665283203125,0.725469638671875
-0.2099946875,-0.01291761962890625,0.726452705078125
-0.12562353515625,-0.0886505322265625,0.7286646044921875
-0.1171134765625,-0.04428918212890625,0.800182685546875
-0.17230728515625,-0.106787216796875,0.9238032861328125
-0.21023783203125002,-0.03889719482421875,1.082322744140625
-0.2989855859375,0.021885207519531248,1.146222060546875
-0.29825615234375,-0.03644629150390625,1.10247560546875
-0.24938410156250002,0.18903681396484376,1.0860092431640624
-0.2853694921875,0.036345537109375,0.8721922998046875
-0.14799283203125,0.004973974609375,0.860149736328125
-0.203186640625,0.0059543359375,1.003677431640625
-0.1321884375,0.011346323242187501,0.9891772021484375
-0.195406015625,0.017718671875,1.0230929931640624
-0.2177753125,0.1863408203125,1.0742124462890625
-0.14580453125,-0.0415931884765625,0.856217470703125
-0.0568136328125,0.00668960693359375,0.84884447265625
-0.17862904296875,-0.0602200537109375,0.9734481396484375
-0.34493990234375,-0.1504132958984375,0.9326508837890625
-0.2347954296875,-0.12075736572265625,0.9097945898437501
-0.40232201171875,-0.169530341796875,0.790352021484375
-0.197351171875,-0.089140712890625,0.6662398876953125
-0.2328502734375,-0.0190448779296875,0.5526957177734375
-0.13194529296875,-0.09183670654296874,0.502313564453125
-0.12440781249999999,-0.00458454833984375,0.5920183740234375
-0.17619759765625,0.067717099609375,0.8043607177734375
-0.18884111328125,-0.02076051025390625,0.94321884765625
-0.16209521484375,0.01845394287109375,1.1073909375
-0.1803310546875,0.07335417724609375,1.1469593603515624
-0.29776986328125,0.00619942626953125,1.035135556640625
-0.25594900390624997,0.0446786083984375,1.0196522607421874
-0.2503566796875,0.118695888671875,0.9665666748046875
-0.30311904296875003,0.0255615625,0.9346170166015625
-0.218747890625,-0.04821062744140625,0.9862280029296875
-0.20683380859375,0.017718671875,0.9680412744140625
-0.2610550390625,0.07923634521484375,0.9218371533203125
-0.20634751953125,-0.006790361328125,1.0039231982421875
-0.25449013671875,0.04345315673828125,1.1479424267578124
-0.31041337890625,0.07090327392578125,1.16145958984375
-0.1034973828125,-0.02909358154296875,1.1774344189453125
-0.26518849609375,-0.03129939453125,1.1769428857421875
-0.30263275390625,-0.07124911865234375,1.05332228515625
-0.19467658203125,-0.07124911865234375,0.82918314453125
-0.17571130859375,-0.081297822265625,0.8746499658203125
-0.28634207031250003,0.00472888427734375,1.09264494140625
-0.389921640625,0.163792509765625,1.163917255859375
-0.3865176171875,0.1407540185546875,0.9503460791015625
-0.24816837890625,-0.01144707763671875,0.7974792529296875
-0.27296912109375,-0.01634888427734375,0.733825703125
-0.13607875,-0.0925719775390625,0.73087650390625
-0.16914640625,-0.19085320068359374,0.8972604931640625
-0.341292734375,-0.0180645166015625,0.8977520263671875
-0.42712275390625,0.03364954345703125,0.782487490234375
-0.3213548828125,-0.04723026611328125,0.6839350830078125
-0.26154132812499997,0.02752228515625,0.8068183837890625
-0.3349709765625,0.13119549560546875,0.8962774267578125
-0.14702025390625,0.0466393310546875,0.9218371533203125
-0.20464550781250002,0.05570767333984375,0.9196252539062499
-0.4438997265625,0.0037485229492187503,1.0314490576171875
-0.25789416015625,-0.0011532836914062497,0.9837703369140625
-0.24427806640625,0.0221302978515625,0.9936010009765625
-0.34153587890625,-0.0200252392578125,1.0936280078125
-0.23917203125,0.03953171142578125,1.2128248095703125
-0.27005138671875,0.04492369873046875,1.2796733251953125
-0.4098594921875,0.015022678222656249,1.336936943359375
-0.3135742578125,0.0495804150390625,1.2423168017578126
-0.3057936328125,0.06355056396484375,0.937811982421875
-0.20342978515625,-0.055808427734375,0.83508154296875
-0.1093328515625,-0.1259042626953125,0.9075826904296875
-0.34931650390625,-0.12541408203125,1.087729609375
-0.4380642578125,-0.0366913818359375,1.0560257177734376
-0.3344846875,-0.04379900146484375,0.8908705615234375
-0.18859796875,0.00717978759765625,0.8377849755859375
-0.09912078125,-0.00262382568359375,0.875878798828125
-0.25303126953125,0.00791505859375,1.0520934521484375
-0.263486484375,0.13756784423828125,1.2747579931640625
-0.294608984375,0.04296297607421875,1.4320486181640626
-0.36779548828124997,-0.0063001806640625,1.4836596044921875
-0.30627992187499997,0.17776265869140626,1.3497168066406249
-0.3660934765625,0.1289896826171875,1.2403506689453125
-0.37800755859375,-0.01683906494140625,1.1150097021484375
-0.48061455078125,-0.1062970361328125,0.9665666748046875
-0.2075632421875,-0.25874322265625,0.8267254785156251
-0.07504947265625,-0.2058037109375,0.829674677734375
-0.11468203125,-0.2023724462890625,0.9203625537109374
-0.15771861328125,-0.16585398681640626,1.0697886474609375
-0.20683380859375,-0.076396015625,1.1784174853515625
-0.38724705078125,-0.042328459472656246,1.1582646240234376
-0.32986494140625,-0.107767578125,1.0727378466796875
-0.3072525,0.04394333740234375,1.0466865869140625
-0.3777644140625,-0.16536380615234375,0.9808211376953125
-0.317950859375,-0.18815720703125,1.081339677734375
-0.21607330078125,0.049090234375,1.1489254931640625
-0.3033621875,-0.17516741943359376,1.0545511181640626
-0.19613544921875,-0.0680629443359375,1.091170341796875
-0.2406308984375,0.026051743164062502,1.044966220703125
-0.26129818359375,0.00276816162109375,1.0540595849609375
-0.3067662109375,0.0446786083984375,0.9970417333984375
-0.286828359375,-0.0175743359375,0.8783364648437499
-0.1647698046875,-0.028358310546875,0.851793671875
-0.04052294921875,-0.13595296630859374,1.055779951171875
-0.33570041015625,0.06306038330078124,1.374785
-0.496905234375,-0.00507472900390625,1.469159375
-0.5012818359375,0.1289896826171875,1.2462490673828124
-0.47380650390625,0.044188427734375,0.880794130859375
-0.247925234375,0.00227798095703125,0.7365291357421875
-0.08720669921875,-0.067572763671875,0.715638974609375
-0.19564916015625,0.10815700439453126,0.781012890625
-0.12659611328125,-0.0200252392578125,0.716622041015625
-0.06751199218750001,-0.0494360791015625,0.936828916015625
-0.31527626953125,0.0515411376953125,1.1990618798828125
-0.27734572265625,-0.107767578125,1.2963854541015625
-0.33618669921875,-0.05311243408203125,1.3017923193359375
-0.4122909375,-0.0259074072265625,1.14376439453125
-0.37849384765625,-0.14526639892578125,0.992863701171875
-0.41788326171875,-0.07517056396484376,0.8105048828125
-0.38578818359375,-0.02174087158203125,0.7670041943359375
-0.3111428125,-0.13717841796875,0.6699263867187499
-0.27248283203125,-0.0474753564453125,0.7129355419921874
-0.125380390625,-0.13448242431640625,0.7947758203124999
-0.25935302734375,-0.1808044970703125,0.911269189453125
-0.2338228515625,0.0182088525390625,1.0520934521484375
-0.3699837890625,0.050070595703125,1.1174673681640626
-0.36098744140625,0.02727719482421875,1.1223827001953124
-0.368524921875,-0.01487834228515625,0.984016103515625
-0.317950859375,0.0672269189453125,0.860149736328125
-0.2902323828125,0.01453249755859375,0.7856824560546875
-0.22677166015625,-0.0043394580078125,0.82721701171875
-0.31089966796875,0.018699033203125,0.9429730810546875
-0.310170234375,-0.055808427734375,1.0894499755859375
-0.277102578125,-0.0837487255859375,1.1617053564453126
-0.3057936328125,-0.13154134033203124,1.0560257177734376
-0.21583015625000002,-0.04772044677734375,0.98254150390625
-0.25789416015625,-0.0827683642578125,0.93437125
-0.2027003515625,0.083402880859375,0.979100771484375
-0.24136033203125,0.04100225341796875,0.9449392138671875
-0.30919765625,0.0152677685546875,0.983033037109375
-0.28998923828125,0.09835339111328124,1.0751955126953125
-0.28561263671875,0.08266760986328126,1.1135351025390625
-0.28512634765625,0.07261890625,1.064627548828125
-0.31089966796875,0.1005592041015625,0.9768888720703125
-0.335457265625,0.0250713818359375,0.9166760546875
-0.37119951171875,-0.01953505859375,0.94125271484375
-0.3967296875,-0.046004814453125,0.9992536328125
-0.3972159765625,-0.14722712158203125,0.9331424169921875
-0.3072525,-0.12320826904296875,0.84097994140625
-0.2717533984375,-0.15408965087890625,0.783470556640625
-0.20440236328125,-0.22345021484375,0.7999369189453125
-0.2357680078125,-0.21487205322265626,0.8844806298828125
-0.37557611328125,-0.11438501708984375,0.9820499707031249
-0.32402947265625,-0.06928839599609375,0.984999169921875
-0.3806821484375,-0.1092381201171875,0.904387724609375
-0.205131796875,0.01183650390625,0.9473968798828125
-0.33253953125,0.05178622802734375,1.0464408203125
-0.3213548828125,0.1133039013671875,1.1351625634765625
-0.31868029296875,0.1044806494140625,1.128526865234375
-0.4049966015625,0.0701680029296875,1.08871267578125
-0.26640421875,0.026296833496093748,1.047915419921875
-0.24670951171875,-0.0259074072265625,0.9992536328125
-0.23819945312500002,-0.09281706787109376,1.000728232421875
-0.2921775390625,-0.06781785400390625,1.075441279296875
-0.23114826171875,-0.012427438964843749,1.1093570703125
-0.29825615234375,-0.0562986083984375,1.0594664501953126
-0.31989601562500003,-0.04183827880859375,1.027271025390625
-0.1710915625,0.030708459472656248,0.9616513427734374
-0.33715927734375,-0.09820905517578125,0.8928366943359375
-0.38457246093749997,0.012816865234374999,0.9940925341796875
-0.3203823046875,-0.01095689697265625,0.9631259423828125
-0.34834392578125,-0.04379900146484375,0.9680412744140625
-0.23260712890625002,-0.07860182861328124,0.946168046875
-0.3038484765625,-0.09820905517578125,0.9277355517578125
-0.35223423828125,-0.0886505322265625,0.8839890966796875
-0.32451576171875,-0.030073942871093752,0.9061080908203125
-0.26518849609375,-0.179333955078125,0.868997333984375
-0.2600824609375,-0.10556176513671875,0.8223016796875
-0.2445212109375,-0.13007079833984375,0.8210728466796875
-0.28585578125,-0.19085320068359374,0.9011927587890625
-0.329621796875,-0.095022880859375,0.98057537109375
-0.3271903515625,-0.14918784423828124,0.9749227392578125
-0.321841171875,-0.146001669921875,0.999745166015625
-0.2017277734375,-0.04919098876953125,1.0678225146484375
-0.33424154296874997,-0.015368522949218751,1.064136015625
-0.29144810546875,0.0486000537109375,1.0560257177734376
-0.32475890625,-0.0028689160156250004,1.08084814453125
-0.33035123046875,0.08119706787109375,1.1722733203125
-0.3388612890625,0.018699033203125,1.1420440283203126
-0.30068759765624997,0.028502646484374998,1.1007552392578126
-0.21947732421875,0.07580508056640625,0.9267524853515625
-0.17133470703125,-0.09379742919921875,0.79575888671875
-0.29509527343749997,-0.13399224365234375,0.8864467626953125
-0.38189787109375,-0.06046514404296875,0.86359046875
-0.21461443359375,-0.10311086181640625,0.8544971044921875
-0.2805066015625,0.0054641552734375,0.9166760546875
-0.3077387890625,0.0280124658203125,0.8692431005859375
-0.28512634765625,-0.01095689697265625,0.9228202197265625
-0.2649453515625,0.00766996826171875,0.9881941357421875
-0.21972046875,-0.0837487255859375,0.9481341796875
-0.25303126953125,-0.1484525732421875,1.01596576171875
-0.29436583984375,-0.0680629443359375,0.961897109375
-0.113709453125,-0.03742665283203125,0.789368955078125
-0.3553951171875,-0.059729873046875,0.7709364599609375
-0.1492085546875,0.0760501708984375,0.943710380859375
-0.284883203125,-0.07762146728515625,1.2015195458984376
-0.5022544140625,0.18364482666015625,1.3637255029296875
-0.2630001953125,0.14982236083984374,1.1644087890625
-0.28950294921874997,0.07433453857421875,0.8987350927734374
-0.29387955078125,0.2270258154296875,0.8451579736328125
-0.22579908203125,0.0883046875,0.7709364599609375
-0.19832375,0.12776423095703124,0.742181767578125
-0.20877896484375,0.00816014892578125,0.915201455078125
-0.21461443359375,-0.00213364501953125,1.1572815576171875
-0.39162365234375,-0.120512275390625,1.1774344189453125
-0.2746711328125,-0.046249904785156254,1.068559814453125
-0.399647421875,0.016738310546875,1.009575830078125
-0.32743349609375,-0.114630107421875,0.8746499658203125
-0.36244630859375,-0.112669384765625,0.8382765087890625
-0.240144609375,-0.10164031982421876,0.888658662109375
-0.19710802734375,-0.18423576171875,0.933879716796875
-0.24330548828125,-0.046740085449218746,0.9267524853515625
-0.12902755859375,-0.1082577587890625,0.8151744482421874
0.002756777343749999,-0.0827683642578125,0.91569298828125
-0.45289607421875,0.0740894482421875,1.07888201171875
-0.38238416015625,-0.03840701416015625,0.9675497412109375
-0.2941226953125,-0.04036773681640625,1.06118681640625
-0.32597462890625,0.15472416748046874,1.076424345703125
-0.20245720703125,0.1157548046875,0.9837703369140625
-0.3077387890625,0.11796061767578125,1.0407881884765624
-0.29679728515625,0.0691876416015625,0.9670582080078125
-0.24938410156250002,0.008895419921875,0.930438984375
-0.39065107421875,0.07139345458984375,1.054796884765625
-0.31041337890625,-0.091101435546875,0.9316678173828125
-0.36244630859375,-0.00654527099609375,0.8697346337890625
-0.2255559375,0.0329142724609375,0.8200897802734375
-0.014506484375,-0.0464949951171875,0.922574453125
-0.33667298828125003,0.07384435791015626,1.154086591796875
-0.36098744140625,0.1142842626953125,1.197341513671875
-0.446331171875,0.1936935302734375,1.011541962890625
-0.31381740234375,-0.034240478515625,0.8707177001953125
-0.35977171875,0.0012976196289062499,0.9434646142578125
-0.38578818359375,-0.04330882080078125,0.9483799462890625
-0.18203306640625,-0.08399381591796876,0.8028861181640625
-0.26372962890625,-0.1513936572265625,0.7021218115234376
-0.27151025390625,-0.12565917236328125,0.6893419482421875
-0.26664736328125,-0.13325697265625,0.799199619140625
-0.33375525390625,-0.1013952294921875,0.890624794921875
-0.12829812499999999,-0.122472998046875,0.975168505859375
-0.3339983984375,-0.0955130615234375,1.075441279296875
-0.1706052734375,0.06060947998046875,1.13000146484375
-0.2523018359375,0.0069346972656249995,0.99237216796875
-0.3164919921875,0.0922261328125,1.0255506591796875
-0.35101851562499997,0.0956573974609375,1.0589749169921876
-0.38189787109375,0.01551285888671875,1.11034013671875
-0.21607330078125,0.028502646484374998,1.202256845703125
-0.352963671875,0.0005623486328125002,1.16145958984375
-0.378250703125,0.0012976196289062499,1.00515203125
-0.30530734375,-0.05311243408203125,0.8613785693359375
-0.249870390625,-0.06389640869140625,0.7630719287109375
-0.206104375,-0.02419177490234375,0.8736668994140625
-0.34250845703125,-0.087179990234375,1.0943653076171875
-0.374360390625,-0.0033590966796874996,1.174730986328125
-0.31868029296875,-0.03497574951171875,1.04349162109375
-0.27588685546875,-0.0415931884765625,0.82721701171875
-0.21121041015625,-0.04870080810546875,0.76036849609375
-0.279047734375,-0.08791526123046875,0.766758427734375
-0.36779548828124997,-0.02664267822265625,0.828200078125
-0.13778076171875,0.02041466552734375,0.9972875
-0.4380642578125,-0.03889719482421875,1.237647236328125
-0.39356880859375,-0.0161037939453125,1.24108796875
-0.1968648828125,0.04247279541015625,1.1312302978515625
-0.40086314453125,-0.0337502978515625,1.0668394482421875
-0.2221519140625,0.04100225341796875,1.0250591259765625
-0.15066742187499998,0.0294830078125,0.9675497412109375
-0.36293259765625,0.026296833496093748,1.025304892578125
-0.30409162109375,0.01551285888671875,1.00220283203125
-0.12076064453125,-0.0063001806640625,0.9921264013671875
-0.3889490625,0.04982550537109375,1.0280083251953125
-0.20342978515625,0.0211499365234375,1.0289913916015625
-0.302389609375,-0.03154448486328125,0.9321593505859375
-0.38773333984375,0.00766996826171875,0.9380577490234375
-0.28172232421875,-0.03840701416015625,0.972219306640625
-0.29169125,0.00987578125,0.9346170166015625
-0.2445212109375,0.00791505859375,0.998762099609375
-0.50881931640625,-0.030319033203124998,1.01989802734375
-0.082586953125,-0.04772044677734375,1.0226014599609374
-0.35101851562499997,0.02776737548828125,1.0570087841796876
-0.330594375,-0.0415931884765625,1.0228472265625
-0.2698082421875,-0.11095375244140625,0.95501564453125
-0.2182616015625,-0.14967802490234375,0.823776279296875
-0.2484115234375,0.0054641552734375,0.7908435546875
-0.3189234375,-0.15408965087890625,0.81738634765625
-0.1540714453125,-0.128355166015625,0.890624794921875
-0.37898013671874997,-0.09918941650390625,0.8658023681640625
-0.25351755859375,-0.065612041015625,0.8301662109375
-0.16209521484375,-0.1376685986328125,0.75447009765625
-0.3038484765625,-0.077376376953125,0.8105048828125
-0.22944625,0.080461796875,0.8422087744140625
-0.25108611328125,-0.0955130615234375,1.0181776611328126
-0.33035123046875,0.12139188232421876,1.252393232421875
-0.298499296875,0.185360458984375,1.18112091796875
-0.29096181640625,0.12972495361328126,0.9700074072265625
-0.1988100390625,0.0544822216796875,0.9267524853515625
-0.20440236328125,0.08315779052734375,0.9287186181640625
-0.29533841796875,-0.06267095703125,0.880794130859375
-0.14410251953125,-0.0190448779296875,0.813945615234375
-0.3485870703125,0.069677822265625,0.7571735302734375
-0.24233291015625,-0.04968116943359375,0.8063268505859374
-0.21655958984375,0.034384814453125,0.9245405859375
-0.43441708984375,0.0603643896484375,1.0024485986328124
-0.20975154296875,-0.00801581298828125,1.0540595849609375
-0.38287044921875,0.0201695751953125,1.01203349609375
-0.27418484375,-0.0190448779296875,0.9454307470703125
-0.20415921875,-0.10899302978515625,0.9665666748046875
-0.31430369140625003,0.01649322021484375,0.977626171875
-0.26518849609375,-0.01634888427734375,0.98843990234375
-0.30749564453125,-0.0523771630859375,0.995812900390625
-0.08963814453125,0.0191892138671875,1.0191607275390624
-0.38287044921875,0.01575794921875,1.0294829248046875
-0.3767918359375,0.04247279541015625,1.0152284619140626
-0.302389609375,-0.1308060693359375,0.8205813134765625
-0.2114535546875,0.0338946337890625,0.931913583984375
-0.35661083984374997,-0.04870080810546875,1.0044147314453125
-0.42566388671875,-0.095022880859375,0.9596852099609375
-0.33035123046875,-0.013162709960937501,0.824759345703125
-0.35904228515625003,-0.12541408203125,0.7212916064453125
-0.21169669921875,-0.1435507666015625,0.7291561376953125
-0.25205869140625,-0.0308092138671875,0.81148794921875
-0.19224513671875,-0.14771730224609375,0.9488714794921875
-0.29242068359375,0.0858537841796875,1.06905134765625
-0.3641483203125,0.05913893798828125,1.0604495166015624
-0.282938046875,-0.01144707763671875,1.135408330078125
-0.28707150390625,0.122617333984375,1.1513831591796875
-0.29752671875000003,0.0289928271484375,1.0186691943359376
-0.24816837890625,0.03413972412109375,1.05135615234375
-0.36585033203125,-0.0053198193359375,0.9709904736328125
-0.29144810546875,0.0003172583007812497,0.9365831494140625
-0.29047552734375,-0.02860340087890625,0.9233117529296875
-0.28172232421875,-0.09624833251953124,0.951574912109375
-0.3544225390625,-0.045024453125,1.0604495166015624
-0.31673513671875,-0.0006631030273437505,1.094119541015625
-0.415208671875,-0.068553125,0.9395323486328125
-0.197351171875,-0.05874951171875,0.7665126611328125
-0.13948277343749999,-0.08595453857421875,0.7397241015625
-0.23309341796875,-0.0974737841796875,0.862115869140625
-0.2523018359375,-0.10115013916015625,0.9483799462890625
-0.2566784375,0.03610044677734375,0.993846767578125
-0.323786328125,0.05864875732421875,0.9587021435546875
-0.35369310546875,-0.01169216796875,1.0110504296875
-0.32840607421875,0.04639424072265625,1.0869923095703125
-0.33861814453125,-0.024436865234375,1.0545511181640626
-0.4030514453125,0.021640117187500002,1.0304659912109375
-0.290718671875,-0.0778665576171875,0.88620099609375
-0.26056875,-0.10311086181640625,0.75840236328125
-0.2814791796875,-0.08301345458984374,0.79772501953125
-0.28196546875,-0.19820591064453125,0.775606025390625
-0.19419029296875,-0.15457983154296875,0.8026403515625
-0.325731484375,0.0721287255859375,0.9609140429687499
-0.249870390625,0.01453249755859375,1.0739666796875
-0.1219763671875,-0.075415654296875,1.2192147412109375
-0.20488865234375,0.12825441162109374,1.3966582275390624
-0.4244481640625,0.12188206298828125,1.405751591796875
-0.37849384765625,-0.0288484912109375,1.2472321337890624
-0.28220861328125,0.064776015625,1.1764513525390625
-0.44535859375,0.0020328906249999995,1.09264494140625
-0.24865466796875,-0.059729873046875,0.9842618701171875
-0.1161408984375,7.216796875000007e-05,0.97074470703125
-0.20391607421875,0.0030132519531249997,1.1140266357421875
-0.3189234375,0.065756376953125,1.1604765234375
-0.1920019921875,0.08413815185546875,1.182595517578125
-0.30846822265625,0.08413815185546875,1.2246216064453126
-0.49131291015625,-0.036201201171875,1.1499085595703125
-0.4127772265625,-0.08644471923828125,1.0358728564453126
-0.29047552734375,-0.1562954638671875,0.782487490234375
-0.174981875,-0.18595139404296876,0.6657483544921875
-0.2202067578125,-0.07762146728515625,0.7043337109375
-0.3096839453125,-0.17761832275390624,0.9002096923828125
-0.41691068359375,-0.01732924560546875,1.076424345703125
-0.40062,0.00619942626953125,1.070525947265625
-0.36536404296875,-0.051886982421875,1.009084296875
-0.2386857421875,-0.04428918212890625,0.8987350927734374
-0.08428896484375001,-0.0347306591796875,0.863098935546875
-0.31527626953125,-0.1357078759765625,0.84097994140625
-0.144831953125,-0.1116890234375,0.969761640625
-0.32840607421875,-0.07517056396484376,1.0579918505859376
-0.37557611328125,-0.055073156738281254,1.072492080078125
-0.3466419140625,-0.11046357177734376,0.9188879541015624
-0.3126016796875,-0.0955130615234375,0.796250419921875
-0.2377131640625,-0.13840386962890625,0.7129355419921874
-0.17692703125,-0.046004814453125,0.667468720703125
-0.020828242187500002,0.02972809814453125,0.73677490234375
-0.02544798828125,0.12090170166015625,0.9007012255859375
-0.25886673828125,0.19835024658203124,1.056271484375
-0.27248283203125,0.16648850341796875,1.1032129052734374
-0.2591098828125,0.03536517578125,1.1683410546875
-0.34493990234375,0.0427178857421875,1.1565442578125
-0.3349709765625,-0.0494360791015625,0.9247863525390625
-0.24330548828125,-0.01169216796875,0.7394783349609375
-0.2523018359375,-0.0670825830078125,0.759876962890625
-0.31333111328125,-0.098944326171875,0.8456495068359375
-0.32354318359375,0.04492369873046875,0.95501564453125
-0.21704587890625,0.11747043701171875,0.9459222802734375
-0.26178447265625,0.05619785400390625,0.9375662158203125
-0.255705859375,0.021640117187500002,1.031203291015625
-0.22725794921875,-0.069533486328125,1.1587561572265626
-0.30992708984375,-0.1210024560546875,1.2548508984375
-0.40426716796875,-0.11977700439453125,1.25583396484375
-0.37800755859375,-0.233253828125,1.158510390625
-0.43004048828125,-0.07370002197265625,0.97074470703125
-0.249870390625,-0.18889247802734374,0.7812586572265625
-0.1920019921875,-0.12467881103515625,0.78199595703125
-0.37363095703125,-0.09012107421875,0.7905977880859375
-0.19759431640625,-0.15654055419921875,0.8372934423828124
-0.209022109375,-0.026397587890625,0.9793465380859375
-0.24962724609375,-0.07713128662109375,1.0936280078125
-0.3748466796875,-0.006790361328125,1.0555341845703126
-0.44025255859375,0.05521749267578125,0.9773804052734375
-0.3281629296875,-0.036201201171875,0.901438525390625
-0.27613,-0.09281706787109376,0.7593854296875
-0.20391607421875,-0.03105430419921875,0.6043067041015625
-0.15164,-0.09845414550781251,0.529839423828125
-0.222638203125,-0.09281706787109376,0.5222206591796875
-0.24038775390625,0.07776580322265625,0.627162998046875
-0.26470220703125,0.20080114990234374,0.819844013671875
-0.3656071875,0.26501481689453127,1.0692971142578125
-0.38724705078125,0.2691813525390625,1.1801378515625
-0.25692158203125,0.10276501708984374,1.1784174853515625
-0.2328502734375,0.015022678222656249,1.083305810546875
-0.2367405859375,-0.04379900146484375,1.134916796875
-0.3690112109375,-0.03129939453125,1.1958669140625
-0.5071173046875,-0.0011532836914062497,0.97467697265625
-0.144831953125,-0.0239466845703125,0.9183964208984375
-0.21947732421875,-0.09404251953125001,1.013508095703125
-0.23552486328125,-0.036201201171875,1.2256046728515626
-0.4040240234375,-0.03889719482421875,1.233714970703125
-0.34007701171875,-0.1357078759765625,0.988931435546875
-0.2289599609375,-0.02174087158203125,0.813945615234375
-0.226528515625,-0.1435507666015625,0.7134270751953125
-0.14653396484375,-0.22761675048828126,0.7512751318359375
-0.247925234375,-0.2533512353515625,0.9090572900390625
-0.25351755859375,-0.2504101513671875,0.75840236328125
-0.2240970703125,-0.13448242431640625,0.651248125
-0.3048210546875,-0.068553125,0.728418837890625
-0.1774133203125,0.01600303955078125,0.9262609521484375
-0.2124261328125,-0.006790361328125,1.106899404296875
-0.3578265625,0.228496357421875,1.37773419921875
-0.3446967578125,0.3083958056640625,1.243545634765625
-0.2561921484375,0.08168724853515624,0.936828916015625
-0.11395259765625,0.03904153076171875,0.7694618603515625
-0.1764407421875,-0.04772044677734375,0.7886316552734375
-0.18349193359375,-0.11977700439453125,0.974185439453125
-0.228473671875,-0.00360418701171875,1.08281427734375
-0.41788326171875,0.08242251953125,1.054796884765625
-0.337402421875,0.08242251953125,1.0039231982421875
-0.3184371484375,0.06355056396484375,1.0304659912109375
-0.10714455078125,0.1838899169921875,1.1604765234375
-0.1278118359375,0.0319339111328125,1.3612678369140625
-0.35515197265625,0.01747358154296875,1.4030481591796875
-0.36098744140625,-0.0366913818359375,1.2034856787109376
-0.4195852734375,-0.1474722119140625,0.890624794921875
-0.38773333984375,-0.198941181640625,0.695977646484375
-0.33764556640625,-0.2043331689453125,0.55392455078125
-0.016451640625,-0.13693332763671875,0.580958876953125
-0.04538583984375,-0.1886473876953125,0.8731753662109375
-0.32013916015625,-0.081297822265625,1.08084814453125
-0.4079143359375,-0.03056412353515625,1.2713172607421874
-0.450221484375,0.01012087158203125,1.2039772119140626
-0.39648654296875,0.05889384765625,1.0250591259765625
-0.288773515625,0.023845930175781252,0.8815314306640625
-0.3145468359375,-0.03595611083984375,0.8159117480468749
-0.4215304296875,0.03536517578125,0.7286646044921875
-0.242089765625,-0.06144550537109375,0.6362563623046875
-0.30020130859375,-0.06585713134765625,0.671400986328125
-0.249870390625,0.09149086181640625,0.86653966796875
-0.23503857421875,0.07041309326171875,1.0742124462890625
-0.33642984375,0.012816865234374999,1.1199250341796876
-0.27394169921875,0.07041309326171875,1.0294829248046875
-0.207076953125,0.0407571630859375,1.01203349609375
-0.15066742187499998,0.0309535498046875,1.0388220556640624
-0.312115390625,-0.0219859619140625,1.081339677734375
-0.28658521484375,0.222614189453125,1.1366371630859375
-0.28755779296875,-0.03914228515625,1.0896957421875
-0.5148979296875,0.0250713818359375,1.140323662109375
-0.333512109375,0.083402880859375,1.1762055859375
-0.34056330078125,-0.08742508056640624,1.132459130859375
-0.4332013671875,0.04100225341796875,1.0717547802734375
-0.046358417968749996,-0.0651218603515625,0.9788550048828125
-0.0159653515625,-0.200901904296875,0.91372685546875
-0.4380642578125,-0.13301188232421876,1.02972869140625
-0.30020130859375,-0.22124440185546876,0.889641728515625
-0.29752671875000003,-0.15457983154296875,0.8903790283203125
-0.37071322265625,-0.03522083984375,0.9245405859375
-0.1492085546875,-0.11242429443359375,0.92552365234375
-0.31478998046875,-0.06879821533203125,1.019406494140625
-0.4711319140625,0.0701680029296875,1.0933822412109375
-0.49471693359375,0.00521906494140625,0.903404658203125
-0.27272597656249997,-0.01389798095703125,0.7763433251953125
-0.28391062499999997,-0.0180645166015625,0.7881401220703125
-0.11541146484375,0.00963069091796875,0.997779033203125
-0.30068759765624997,-0.1317864306640625,1.0796193115234376
-0.22385392578125,-0.11830646240234374,1.1386032958984376
-0.3388612890625,-0.06634731201171876,1.0555341845703126
-0.21947732421875,-0.04281864013671875,0.9346170166015625
-0.3155194140625,0.1270289599609375,0.978117705078125
-0.1657423828125,0.06698182861328125,1.0633987158203124
-0.28950294921874997,0.08021670654296875,1.2128248095703125
-0.3057936328125,0.1201664306640625,1.309411083984375
-0.47186134765625,0.05325677001953125,1.224867373046875
-0.23819945312500002,-0.0317895751953125,1.0358728564453126
-0.339347578125,-0.03252484619140625,0.8658023681640625
-0.269321953125,-0.12909043701171874,0.70728291015625
-0.16525609375,-0.2445279833984375,0.6406801611328125
-0.10690140625,-0.14281549560546875,0.793301220703125
-0.17619759765625,-0.118551552734375,0.8461410400390625
-0.26324333984375,-0.00777072265625,1.095102607421875
-0.299471875,-0.0798272802734375,1.2509186328125
-0.48450486328125,-0.0151234326171875,1.1956211474609375
-0.3301080859375,-0.07615092529296875,0.8869382958984375
-0.21169669921875,-0.12149263671875,0.8363103759765624
-0.2902323828125,-0.17075579345703126,0.7964961865234375
-0.19856689453125,-0.20065681396484375,0.7493089990234375
-0.23552486328125,-0.00360418701171875,0.8144371484375
-0.4011062890625,-0.075415654296875,0.96288017578125
-0.399647421875,0.05227640869140625,1.0661021484375
-0.24330548828125,0.13952856689453125,1.070525947265625
-0.34202216796875,-0.00360418701171875,0.9680412744140625
-0.201241484375,-0.052867343750000004,0.8834975634765625
-0.17717017578125,-0.067572763671875,0.7822417236328125
-0.0879361328125,-0.05556333740234375,0.8825144970703125
-0.32937865234375,0.00668960693359375,1.13983212890625
-0.53556521484375,0.1162449853515625,1.2103671435546874
-0.5255962890625,0.127519140625,0.93338818359375
-0.24087404296875,0.028257556152343752,0.6047982373046875
-0.1385101953125,0.0544822216796875,0.5576110498046875
-0.16112263671875,-0.0739451123046875,0.6706636865234374
-0.0957167578125,-0.050661530761718754,0.8530225048828125
-0.20026890625,-0.014633251953124999,0.9503460791015625
-0.36536404296875,-0.02615249755859375,1.1002637060546876
-0.4419545703125,-0.15359947021484374,0.9818042041015624
-0.1900568359375,-0.03546593017578125,0.930438984375
-0.22871681640625,-0.12541408203125,0.9990078662109375
-0.29290697265625,-0.13840386962890625,1.006626630859375
-0.33375525390625,-0.0249270458984375,0.8712092333984375
-0.30141703125,-0.04772044677734375,0.7999369189453125
-0.29874244140625,0.0829127001953125,0.8171405810546875
-0.30409162109375,-0.012427438964843749,0.7935469873046875
-0.14118478515625,0.016738310546875,0.8215643798828125
-0.09109701171875,0.02923791748046875,0.7817501904296875
-0.20294349609375,0.02433611083984375,0.83901380859375
-0.29631099609375,0.030463369140625002,0.989914501953125
-0.39867484375,-0.0151234326171875,1.1445016943359374
-0.3291355078125,-0.06536695068359374,1.21651130859375
-0.38724705078125,0.0358553564453125,1.2605035302734375
-0.4127772265625,-0.0494360791015625,1.0751955126953125
-0.30117388671875,0.06257020263671875,0.944693447265625
-0.31576255859375,0.18438009765625,0.9065996240234375
-0.23139140625,0.07482471923828125,0.9262609521484375
-0.12902755859375,-0.01389798095703125,1.0334151904296875
-0.265431640625,0.02580665283203125,1.085271943359375
-0.28853037109375,-0.10972830078125,0.9795923046875
-0.31746457031249997,0.017718671875,0.8962774267578125
-0.4127772265625,0.14345001220703124,0.9454307470703125
-0.23795630859375,0.05080586669921875,1.132459130859375
-0.28074974609375003,0.099088662109375,1.264190029296875
-0.3301080859375,0.06600146728515625,1.2954023876953125
-0.49812095703125,0.03953171142578125,0.996795966796875
-0.38627447265625,-0.076396015625,0.6736128857421875
-0.1881116796875,-0.15310928955078124,0.48584720214843746
-0.10544253906250001,-0.20997024658203126,0.605535537109375
-0.190543125,-0.12958061767578125,0.8520394384765625
-0.30871136718750003,-0.0254172265625,1.11230626953125
-0.42906791015625,-0.05360261474609375,1.285817490234375
-0.302389609375,-0.095022880859375,1.2197062744140625
-0.28074974609375003,0.023845930175781252,1.2157740087890625
-0.2172890234375,-0.1033559521484375,1.1695698876953124
-0.41618125,-0.07320984130859375,1.189968515625
-0.41034578125,0.06649164794921875,1.2312573046875
-0.36098744140625,-0.13840386962890625,0.91765912109375
-0.21801845703125,-0.05654369873046875,0.7736398925781249
-0.18835482421875,-0.09379742919921875,0.76626689453125
-0.24087404296875,-0.20898988525390624,0.9936010009765625
-0.2955815625,-0.177373232421875,1.232731904296875
-0.35515197265625,-0.05360261474609375,1.333004677734375
-0.27199654296875,-0.06634731201171876,1.1617053564453126
-0.352963671875,-0.1435507666015625,1.0149826953125
-0.32937865234375,-0.09012107421875,0.9363373828125
-0.312115390625,0.00816014892578125,0.9572275439453125
-0.3651208984375,-0.1004148681640625,0.89406552734375
-0.20780638671875,-0.01830960693359375,0.9238032861328125
-0.27345541015625,-0.0533575244140625,0.9410069482421874
-0.3038484765625,-0.12933552734375,0.94911724609375
-0.26859251953125,-0.0906112548828125,1.0461950537109375
-0.434660234375,-0.015368522949218751,1.145238994140625
-0.43636224609375,-0.0621807763671875,1.08478041015625
-0.2630001953125,-0.07713128662109375,0.9208540869140625
-0.23503857421875,0.06600146728515625,0.865065068359375
-0.2211793359375,-0.139139140625,0.831640810546875
-0.2523018359375,-0.11291447509765624,0.965337841796875
-0.37898013671874997,-0.0210056005859375,1.1037044384765624
-0.39794541015625,-0.13252170166015625,1.1479424267578124
-0.31673513671875,-0.057278969726562504,1.0265337255859375
-0.2678630859375,-0.10016977783203125,0.8672769677734375
-0.21558701171875,-0.147962392578125,0.7586481298828125
-0.23309341796875,-0.17639287109375001,0.729401904296875
-0.28901666015625,-0.08448399658203125,0.7630719287109375
-0.290718671875,-0.14967802490234375,0.9567360107421875
-0.45702953125,-0.1273748046875,1.1749767529296875
-0.38967849609375,-0.06928839599609375,1.2273250390625
-0.121490078125,-0.161687451171875,1.081339677734375
-0.3033621875,-0.09820905517578125,0.9414984814453125
-0.21412814453125,-0.030319033203124998,0.8495817724609375
-0.23941517578125,0.0593840283203125,0.8830060302734375
-0.177899609375,-0.08399381591796876,1.0761785791015626
-0.323786328125,0.00227798095703125,1.4177941552734374
-0.50055240234375,0.07286399658203124,1.45244724609375
-0.36341888671875,0.09810830078125,1.2197062744140625
-0.28464005859375,0.0172284912109375,1.0535680517578125
-0.3904079296875,0.14124419921875,0.96877857421875
-0.29047552734375,-0.03301502685546875,0.93142205078125
-0.20975154296875,-0.01561361328125,0.969761640625
-0.28512634765625,-0.0337502978515625,0.9783634716796875
-0.22750109375,-0.09232688720703125,1.027271025390625
-0.2591098828125,0.0368357177734375,1.046932353515625
-0.32086859375,-0.122472998046875,0.9621428759765625
-0.34834392578125,-0.012672529296875,1.080356611328125
-0.442440859375,-0.08399381591796876,1.1617053564453126
-0.43636224609375,-0.06879821533203125,1.208155244140625
-0.26251390625,-0.0063001806640625,1.1228742333984374
-0.34104958984375,-0.07443529296875,0.9587021435546875
-0.24136033203125,-0.067572763671875,0.92650671875
-0.22434021484375,-0.124433720703125,0.84884447265625
-0.25546271484375,-0.00654527099609375,0.777572158203125
-0.206104375,-0.09477779052734375,0.81148794921875
-0.22628537109375,-0.14673694091796874,0.924049052734375
-0.22725794921875,-0.0808076416015625,1.0024485986328124
-0.19029998046875,-0.065612041015625,1.0073639306640625
-0.269321953125,-0.06659240234375,1.0117877294921875
-0.2566784375,0.01306195556640625,0.985490703125
-0.31478998046875,-0.060710234375,0.9614055761718749
-0.31746457031249997,-0.014633251953124999,1.083305810546875
-0.419098984375,-0.1121792041015625,1.0324321240234375
-0.27296912109375,0.0037485229492187503,0.8775991650390624
-0.06848457031249999,-0.0690433056640625,0.844420673828125
0.0229377734375,-0.12369844970703125,1.0992806396484376
-0.22239505859375,0.077520712890625,1.536007890625
-0.51951767578125,0.0868341455078125,1.3307927783203124
-0.242089765625,-0.08105273193359375,1.004660498046875
-0.273212265625,0.044188427734375,0.8348357763671875
-0.191515703125,-0.0023787353515625003,0.8397511083984375
-0.0932853125,-0.14502130859375,0.875387265625
-0.37995271484375,0.089285048828125,0.9041419580078125
-0.42760904296875,-0.02860340087890625,0.8028861181640625
-0.3252451953125,-0.14036459228515624,0.885709462890625
-0.40523974609375,-0.12222790771484375,0.9520664453125
-0.21607330078125,-0.2347243701171875,0.83114927734375
-0.053409609375,-0.198941181640625,0.7414444677734375
-0.2474389453125,-0.16462853515625,0.7380037353515625
-0.25983931640625,-0.20751934326171875,0.7655295947265625
-0.34931650390625,-0.0719843896484375,0.8574463037109374
-0.30871136718750003,0.18952699462890624,0.9331424169921875
-0.19759431640625,0.12776423095703124,0.9874568359375
-0.20026890625,-0.00801581298828125,1.0648733154296874
-0.27783201171875,0.069677822265625,0.9992536328125
-0.3378887109375,0.026051743164062502,1.003677431640625
-0.3369161328125,0.02972809814453125,0.98843990234375
-0.417153828125,0.11992134033203125,1.00810123046875
-0.46870046875,-0.14624676025390626,0.901438525390625
-0.341292734375,-0.130315888671875,0.6964691796875
-0.144831953125,-0.13987441162109376,0.5689163134765625
-0.1477496875,-0.00777072265625,0.611433935546875
-0.18495080078125,-0.06144550537109375,0.8107506494140625
-0.25400384765625,-0.05213207275390625,1.0093300634765625
-0.3967296875,0.11796061767578125,1.1705529541015625
-0.3417790234375,0.064776015625,1.1081282373046875
-0.300444453125,-0.0631611376953125,0.8874298291015625
-0.28026345703125,0.10766682373046875,0.7539785644531249
-0.28196546875,-0.0749254736328125,0.6863927490234375
-0.2095083984375,-0.16732452880859375,0.871946533203125
-0.37922328125,-0.01291761962890625,1.009084296875
-0.27685943359375,-0.01095689697265625,1.0417712548828124
-0.27296912109375,0.10080429443359375,1.159984990234375
-0.4672416015625,0.1113431787109375,1.1091113037109375
-0.21850474609375,0.0211499365234375,0.876861865234375
-0.13632189453125,0.08560869384765625,0.724486572265625
-0.031769746093749995,0.03364954345703125,0.683197783203125
-0.018883085937500002,-0.17320669677734374,0.922574453125
-0.2736985546875,0.0152677685546875,1.2334692041015625
-0.5362946484375,0.1515379931640625,1.178663251953125
-0.38773333984375,-0.0141430712890625,0.9080742236328125
-0.280992890625,0.03610044677734375,0.9709904736328125
-0.2902323828125,0.1613416064453125,0.9972875
-0.1141957421875,0.042227705078125,1.11820466796875
-0.07602205078125,0.0731090869140625,1.1941465478515625
-0.2707808203125,-0.00507472900390625,1.17129025390625
-0.2095083984375,-0.11634573974609375,1.1621968896484376
-0.28512634765625,-0.212666240234375,1.1666206884765624
-0.2581373046875,-0.0881603515625,1.1880023828125
-0.30895451171875,-0.08963089355468751,1.0329236572265625
-0.24087404296875,-0.2474690673828125,0.8957858935546875
-0.1949197265625,-0.22908729248046875,0.9287186181640625
-0.2688356640625,-0.10360104248046875,1.1449932275390624
-0.3631757421875,0.0012976196289062499,1.2826225244140625
-0.49374435546875,0.1456558251953125,1.2103671435546874
-0.35393625,0.1417343798828125,0.81640328125
-0.10908970703125,-0.0268877685546875,0.51755109375
-0.018883085937500002,-0.09796396484375,0.42317671875
-0.04295439453125,-0.16340308349609375,0.492482900390625
-0.11006228515625,-0.14967802490234375,0.668451787109375
-0.22531279296875,-0.01561361328125,1.0186691943359376
-0.48110083984375,-0.0406128271484375,1.26369849609375
-0.4691867578125,0.05178622802734375,1.310394150390625
-0.41010263671875,0.14982236083984374,1.1356540966796875
-0.35758341796875,0.18438009765625,0.82328474609375
-0.2912049609375,-0.14036459228515624,0.469872373046875
-0.2153438671875,-0.11977700439453125,0.4298124169921875
-0.07359060546875,-0.040122646484374996,0.5472888525390625
-0.004051269531250002,-0.11340465576171875,0.822793212890625
-0.32086859375,0.1784979296875,1.2762325927734375
-0.61823435546875,0.17531175537109375,1.508973564453125
-0.54334583984375,0.15325362548828125,1.48980376953125
-0.46699845703125,0.19687970458984375,1.5396943896484374
-0.23406599609375,-0.05482806640625,1.252393232421875
-0.0412523828125,0.00791505859375,0.9301932177734376
-0.23139140625,-0.0229663232421875,0.7928096875
-0.28464005859375,-0.06438658935546875,0.792318154296875
-0.43927998046875,-0.01291761962890625,1.00416896484375
-0.483289140625,-0.09796396484375,1.024813359375
-0.36974064453125,-0.04526954345703125,1.0879753759765625
-0.30555048828125,-0.1131595654296875,1.0078554638671875
-0.20537494140625,-0.10188541015625,0.947642646484375
-0.16720125,-0.024436865234375,0.9297016845703125
-0.34299474609375,-0.1857063037109375,0.9046334912109375
-0.31868029296875,0.03953171142578125,0.925032119140625
-0.39259623046875003,0.15227326416015624,0.884726396484375
-0.337402421875,-0.0053198193359375,0.69941837890625
-0.098148203125,-0.0200252392578125,0.76233462890625
-0.20586123046875,0.04394333740234375,0.999745166015625
-0.33083751953125,0.06355056396484375,1.1835785839843749
-0.30530734375,0.14443037353515625,1.3229282470703125
-0.45532751953125,-0.006790361328125,1.3853529638671875
-0.39891798828125,-0.012672529296875,1.0860092431640624
-0.3271903515625,-0.008751083984375,0.664519521484375
-0.10690140625,-0.1425704052734375,0.5099323291015625
-0.06289224609374999,-0.224430576171875,0.58145041015625
-0.053409609375,-0.20359789794921876,0.83311541015625
-0.36730919921875,0.0123266845703125,1.056763017578125
-0.35223423828125,-0.03448556884765625,1.2118417431640625
-0.16452666015625,0.09541230712890625,1.4512184130859376
-0.3889490625,0.22776108642578125,1.5244568603515625
-0.220693046875,0.1309504052734375,1.34037767578125
-0.43393080078125,0.12776423095703124,1.06020375
-0.3301080859375,-0.0023787353515625003,0.83311541015625
-0.1083602734375,-0.16977543212890625,0.6878673486328125
-0.129270703125,-0.08423890625,0.831640810546875
-0.27540056640625,-0.14624676025390626,1.0280083251953125
-0.32159802734375,-0.07664110595703125,1.087238076171875
-0.29339326171875,-0.032279755859375,1.0083469970703125
-0.33521412109375,0.02580665283203125,1.026287958984375
-0.321841171875,0.0348749951171875,0.9768888720703125
-0.2333365625,-0.12811007568359375,0.8510563720703125
-0.09425789062500001,-0.13693332763671875,0.86850580078125
-0.33278267578125,-0.075415654296875,0.8869382958984375
-0.32451576171875,-0.19771572998046874,0.90586232421875
-0.32597462890625,-0.144040947265625,0.91765912109375
-0.28123603515625,-0.04330882080078125,1.076424345703125
-0.31722142578125,0.21207530517578124,1.2025026123046876
-0.16136578125,0.00521906494140625,1.230765771484375
-0.20294349609375,0.044188427734375,1.291715888671875
-0.4156949609375,0.09443194580078125,1.006626630859375
-0.2163164453125,-0.03350520751953125,0.724486572265625
-0.07018658203125,0.09982393310546875,0.6436293603515625
-0.1229489453125,0.07237381591796875,0.74857169921875
-0.4122909375,-0.1504132958984375,0.9206083203125
-0.31138595703125,-0.10286577148437501,0.9523122119140625
-0.5236511328125,-0.02125069091796875,0.85474287109375
-0.31576255859375,0.00987578125,0.685163916015625
-0.387976484375,0.03217900146484375,0.706791376953125
-0.20975154296875,0.07874616455078125,0.734317236328125
-0.10665826171875001,-0.0028689160156250004,0.7409529345703125
-0.3028758984375,0.05497240234375,0.832623876953125
-0.2474389453125,0.0780108935546875,0.7817501904296875
-0.2785614453125,-0.11438501708984375,0.87931953125
-0.19759431640625,0.08217742919921875,1.0761785791015626
-0.26470220703125,0.06747200927734374,1.1966042138671875
-0.33472783203125,0.05080586669921875,1.3013007861328125
-0.5294866015625,-0.0425735498046875,1.2668934619140626
-0.31308796875,0.0608545703125,1.05528841796875
-0.302389609375,0.06060947998046875,0.8773533984374999
-0.4122909375,-0.020515419921875,1.0049062646484375
-0.35977171875,-0.0641414990234375,1.080356611328125
-0.35272052734375,0.13315621826171875,0.9754142724609375
-0.2240970703125,0.0329142724609375,0.63453599609375
-0.24379177734375002,-0.1298257080078125,0.7227662060546876
-0.09158330078125,0.07776580322265625,0.899472392578125
-0.2639727734375,0.064776015625,1.0245675927734375
-0.2571647265625,-0.0494360791015625,1.1331964306640625
-0.14021220703125,0.06698182861328125,1.191443115234375
-0.3164919921875,-0.10458140380859375,1.074458212890625
-0.3505322265625,-0.0004180126953125,1.0110504296875
-0.22482650390625,0.0211499365234375,0.8146829150390625
-0.2902323828125,0.05105095703125,0.8790737646484375
-0.31965287109375,-0.03522083984375,0.9036504248046875
-0.26081189453125,0.08634396484375,0.8908705615234375
-0.35101851562499997,-0.05850442138671875,0.7247323388671875
-0.1949197265625,-0.01561361328125,0.6696806201171875
-0.16695810546875,0.04492369873046875,0.623722265625
-0.2435486328125,0.03953171142578125,0.7964961865234375
-0.20804953125,0.116735166015625,1.0014655322265624
-0.28634207031250003,0.07433453857421875,1.1562984912109375
-0.42615017578125003,0.050070595703125,1.088221142578125
-0.2921775390625,0.00276816162109375,0.8284458447265625
-0.22920310546875,-0.014633251953124999,0.63650212890625
-0.24670951171875,-0.03938737548828125,0.6470700927734375
-0.1492085546875,-0.01193725830078125,0.6264256982421875
-0.25473328125,-0.0161037939453125,0.7861739892578125
-0.33715927734375,0.01845394287109375,0.883743330078125
-0.21899103515625,-0.038161923828125,0.8500733056640625
-0.32475890625,-0.00605509033203125,0.8431918408203125
-0.34104958984375,0.014777587890624999,0.8741584326171875
-0.27442798828125,0.04590406005859375,0.84097994140625
-0.3164919921875,-0.03448556884765625,0.7950215869140624
-0.22142248046875002,0.046149150390625,0.7950215869140624
-0.28512634765625,0.04786478271484375,0.7453767333984375
-0.175954453125,-0.02909358154296875,0.7011387451171875
-0.25789416015625,0.095167216796875,0.623230732421875
-0.24476435546875,0.16648850341796875,0.6800028173828125
-0.11857234375,-0.00997653564453125,0.840488408203125
-0.1958923046875,0.12776423095703124,1.2054518115234374
-0.50347013671875,0.1956542529296875,1.394446328125
-0.32111173828125,0.09884357177734375,1.36986966796875
-0.38043900390625,0.0593840283203125,1.21454517578125
-0.35101851562499997,0.0976181201171875,1.089204208984375
-0.32597462890625,-0.01928996826171875,0.9999909326171875
-0.3967296875,-0.01144707763671875,0.876861865234375
-0.12659611328125,-0.08154291259765625,0.7581565966796875
-0.18446451171875,-0.0710040283203125,0.84097994140625
-0.1530988671875,-0.01978014892578125,1.0643817822265624
-0.29193439453125003,0.0123266845703125,1.3248943798828126
-0.39575710937499997,0.10374537841796876,1.44065044921875
-0.4925286328125,0.120656611328125,1.3140806494140624
-0.4137498046875,0.05815857666015625,1.09461107421875
-0.39308251953125,-0.02027032958984375,1.0108046630859375
-0.33715927734375,-0.15948163818359376,0.9872110693359375
-0.22968939453125,-0.1430605859375,0.8495817724609375
-0.25497642578125,-0.16193254150390626,0.694503046875
-0.17303671874999998,-0.2121760595703125,0.6217561328125
-0.14215736328125,-0.1582561865234375,0.6913080810546874
-0.335457265625,0.011346323242187501,0.757910830078125
-0.13778076171875,0.033404453125,0.918150654296875
-0.15042427734375,-0.0028689160156250004,1.1661291552734374
-0.3612305859375,0.17678229736328124,1.476532373046875
-0.40523974609375,0.187321181640625,1.6008902734375
-0.475508515625,0.23266289306640625,1.3814206982421875
-0.41934212890625,0.1868310009765625,1.0599579833984376
-0.2736985546875,0.20864404052734375,0.979100771484375
-0.34348103515625,-0.21291133056640624,1.0309575244140625
-0.0461152734375,-0.26536066162109373,1.121645400390625
-0.07359060546875,-0.1298257080078125,1.186527783203125
-0.4244481640625,-0.1366882373046875,1.1179589013671876
-0.30214646484375,-0.1102184814453125,0.9975332666015625
-0.22093619140625,-0.028113220214843748,1.0412797216796874
-0.39259623046875003,0.11649007568359375,1.396903994140625
-0.51319591796875,0.02237538818359375,1.5792628125000001
-0.3223274609375,0.00865032958984375,1.4359808837890624
-0.3096839453125,-0.0190448779296875,1.079373544921875
-0.34737134765625,-0.0759058349609375,0.9646005419921875
-0.20197091796875,-0.0474753564453125,1.02972869140625
-0.26056875,-0.00850599365234375,1.177680185546875
-0.2999581640625,0.06011929931640625,1.3499625732421876
-0.29971501953125,-0.0724745703125,1.416565322265625
-0.3476144921875,-0.04968116943359375,1.21651130859375
-0.30457791015625,-0.0317895751953125,1.041033955078125
-0.286828359375,-0.0332601171875,0.94518498046875
-0.22750109375,0.07188363525390624,0.8928366943359375
-0.27491427734375,-0.026397587890625,1.076424345703125
-0.3437241796875,-0.00458454833984375,1.21257904296875
-0.4511940625,-0.0406128271484375,1.1263149658203124
-0.34542619140624997,0.009140510253906251,0.8648193017578125
-0.19224513671875,-0.1866866650390625,0.727435771484375
-0.0821006640625,-0.0082609033203125,0.7045794775390625
-0.0811280859375,0.10987263671875,0.9164302880859375
-0.37995271484375,-0.0411030078125,1.1961126806640625
-0.599998515625,0.05913893798828125,1.294665087890625
-0.3057936328125,-0.01291761962890625,0.9346170166015625
-0.0801555078125,-0.09796396484375,0.720554306640625
-0.04830357421875,-0.07468038330078125,0.6883588818359375
-0.15358515625,-0.1817848583984375,0.678282451171875
-0.22093619140625,-0.057769150390625,0.8419630078125
-0.349073359375,-0.12173772705078124,0.9562444775390625
-0.337402421875,-0.10507158447265624,1.0176861279296876
-0.27880458984375,0.026296833496093748,1.0230929931640624
-0.27005138671875,0.0765403515625,1.0147369287109376
-0.338375,0.042227705078125,1.0461950537109375
-0.2085358203125,0.13658748291015624,1.1250861328125
-0.3111428125,0.0652661962890625,1.1184504345703126
-0.24914095703125,-0.010221625976562499,1.088221142578125
-0.2503566796875,-0.03987755615234375,1.0592206835937499
-0.2411171875,-0.12271808837890624,0.9626344091796875
-0.228473671875,-0.1592365478515625,0.938795048828125
-0.28512634765625,-0.022476142578125,0.890624794921875
-0.308225078125,-0.0396324658203125,0.7635634619140625
-0.2411171875,-0.04526954345703125,0.709740576171875
-0.16938955078125,0.0652661962890625,0.88226873046875
-0.22093619140625,0.02139502685546875,1.175714052734375
-0.24525064453125,0.07825598388671876,1.36397126953125
-0.48401857421875,0.17188049072265624,1.37183580078125
-0.563040546875,0.09296140380859375,1.182103984375
-0.455084375,-0.04330882080078125,0.9115149560546875
-0.26227076171875,-0.11928682373046876,0.6731213525390625
-0.16549923828125,-0.2082546142578125,0.6244595654296875
-0.09304216796875,-0.216587685546875,0.66402798828125
-0.0840458203125,-0.155805283203125,0.7611057958984375
-0.3631757421875,-0.07811164794921875,0.8009199853515625
-0.40062,0.00472888427734375,0.78494515625
-0.33861814453125,-0.073454931640625,0.7561904638671875
-0.354908828125,0.124578056640625,0.79182662109375
-0.25886673828125,0.02090484619140625,0.696960712890625
-0.331566953125,-0.1023755908203125,0.6908165478515624
-0.29436583984375,-0.08105273193359375,0.615857734375
-0.19516287109375,-0.20702916259765625,0.6382224951171875
-0.273212265625,-0.040122646484374996,0.7473428662109375
-0.20099833984375,-0.02174087158203125,0.7871570556640625
-0.22093619140625,-0.06340622802734375,0.9061080908203125
-0.3019033203125,0.00963069091796875,0.9665666748046875
-0.06775513671875,0.0137972265625,0.8785822314453124
-0.0996070703125,-0.02223105224609375,0.8854636962890625
-0.23649744140625,-0.04575972412109375,0.8815314306640625
-0.13923962890625,-0.08252327392578125,0.8608870361328125
-0.30749564453125,-0.11095375244140625,0.8576920703124999
-0.335457265625,-0.0562986083984375,0.9105318896484375
-0.30700935546875,-0.04428918212890625,0.7790467578125
-0.2056180859375,0.1074217333984375,0.804606484375
-0.14653396484375,0.0427178857421875,0.851302138671875
-0.10106593750000001,-0.06046514404296875,1.060695283203125
-0.07893978515625,-0.08619962890625,1.224867373046875
-0.2717533984375,0.019434304199218752,1.262223896484375
-0.4701593359375,-0.03889719482421875,0.83114927734375
-0.04052294921875,-0.09477779052734375,0.5413904541015625
-0.0023492578125000017,0.004973974609375,0.5472888525390625
-0.1628246484375,0.015022678222656249,0.7380037353515625
-0.300444453125,0.05472731201171875,0.9385492822265625
-0.3670660546875,0.14884199951171875,1.0189149609375
-0.30652306640625,0.05178622802734375,0.8687515673828125
-0.23163455078125,0.0608545703125,0.847369873046875
-0.15382830078125,0.1456558251953125,0.8962774267578125
-0.23795630859375,0.14443037353515625,1.035135556640625
-0.1851939453125,0.1760470263671875,1.08379734375
-0.39308251953125,0.07972652587890625,1.0975602734375
-0.18106048828125,0.01306195556640625,1.0973145068359376
-0.3009307421875,-0.00458454833984375,1.0692971142578125
-0.31965287109375,0.009140510253906251,0.970253173828125
-0.1628246484375,0.036345537109375,0.9036504248046875
-0.226528515625,0.0152677685546875,0.84097994140625
-0.2805066015625,0.03119864013671875,0.7591396630859375
-0.27734572265625,-0.02321141357421875,0.741198701171875
-0.35101851562499997,0.0387964404296875,0.6785282177734375
-0.21558701171875,0.05105095703125,0.65419732421875
-0.21753216796875,-0.0082609033203125,0.6141373681640625
-0.2085358203125,0.032424091796875,0.7266984716796875
-0.2377131640625,0.0584036669921875,0.83213234375
-0.28609892578125,-0.0945327001953125,0.8594124365234375
-0.1540714453125,-0.05874951171875,0.9616513427734374
-0.30311904296875003,-0.05752406005859375,0.95501564453125
-0.27613,-0.095022880859375,0.8756330322265625
-0.25886673828125,-0.120512275390625,0.757419296875
-0.22482650390625,-0.1778634130859375,0.536720888671875
-0.10957599609375,0.013552136230468751,0.4062188232421875
-0.008671015625,-0.00654527099609375,0.4278462841796875
0.014670859375000001,0.030463369140625002,0.6084847363281249
-0.257651015625,0.06943273193359376,0.824759345703125
-0.28561263671875,0.05178622802734375,1.033169423828125
-0.3096839453125,-0.01046671630859375,1.1794005517578126
-0.456056953125,0.0721287255859375,1.167849521484375
-0.3826273046875,0.01257177490234375,0.90389619140625
-0.1944334375,-0.05409279541015625,0.812962548828125
-0.19321771484375,-0.03301502685546875,0.843929140625
-0.23747001953125,-0.1327667919921875,0.89406552734375
-0.29631099609375,-0.07517056396484376,0.906353857421875
-0.18786853515625002,-0.13497260498046876,0.83213234375
-0.26372962890625,-0.01095689697265625,0.785436689453125
-0.21412814453125,-0.0327699365234375,0.8235305126953125
-0.3145468359375,-0.012672529296875,0.956490244140625
-0.3189234375,-0.08938580322265625,0.965829375
-0.27783201171875,-0.046740085449218746,1.032677890625
-0.3952708203125,-0.1043363134765625,0.9835245703125
-0.34007701171875,-0.0808076416015625,0.988931435546875
-0.36876806640625,-0.12614935302734376,0.9233117529296875
-0.26810623046875,-0.049926259765625,0.903404658203125
-0.31284482421875,-0.046740085449218746,0.926015185546875
-0.3466419140625,-0.1327667919921875,0.972219306640625
-0.11103486328125,-0.15678564453125,1.005643564453125
-0.0665394140625,-0.06267095703125,1.218968974609375
-0.48110083984375,-0.05115171142578125,1.374785
-0.5333769140625,-0.10580685546875,1.2580458642578125
-0.50954875,0.030708459472656248,0.891607861328125
-0.4225030078125,-0.03252484619140625,0.63650212890625
-0.25473328125,-0.2190385888671875,0.5713739794921875
-0.119544921875,-0.09820905517578125,0.6573922900390625
-0.2707808203125,0.05472731201171875,0.7021218115234376
-0.41618125,-0.0308092138671875,0.592755673828125
-0.40913005859375,-0.061690595703125004,0.6210188330078125
-0.16404037109375,-0.010221625976562499,0.8505648388671875
-0.3072525,-0.11879664306640625,1.195375380859375
-0.40815748046875,-0.07026875732421875,1.591059609375
-0.32694720703125,-0.060710234375,1.63136533203125
-0.63476818359375,-0.04379900146484375,1.4679305419921875
-0.368524921875,-0.03693647216796875,1.095102607421875
-0.26372962890625,-0.04723026611328125,0.74857169921875
-0.20294349609375,0.05619785400390625,0.7227662060546876
-0.12343523437500001,-0.020515419921875,0.978117705078125
-0.25303126953125,-0.05752406005859375,1.3610220703125
-0.522192265625,-0.067572763671875,1.5337959912109376
-0.35904228515625003,-0.153844560546875,1.318258681640625
-0.44073884765625,-0.107767578125,1.0442289208984374
-0.33570041015625,-0.0023787353515625003,0.888658662109375
-0.18227621093750002,-0.00703545166015625,0.9601767431640625
-0.3495596484375,0.055462583007812497,1.2253589062499999
-0.21655958984375,0.0843832421875,1.43868431640625
-0.3349709765625,0.1348718505859375,1.573855947265625
-0.32840607421875,0.08266760986328126,1.5755763134765626
-0.2688356640625,0.0093856005859375,1.3789630322265625
-0.18932740234375,0.05129604736328125,1.2469863671875
-0.29047552734375,-0.1327667919921875,1.1656376220703124
-0.20780638671875,0.0809519775390625,1.1907058154296875
-0.370470078125,0.11379408203125,1.3922344287109376
-0.43101306640625,0.0819323388671875,1.4797273388671874
-0.2367405859375,0.10717664306640624,1.3656916357421875
-0.37654869140625,0.20472259521484376,1.3185044482421875
-0.25011353515625,0.02286556884765625,1.30302115234375
-0.27613,0.07874616455078125,1.3062161181640626
-0.346155625,0.18168410400390625,1.115747001953125
-0.14750654296875,0.04051207275390625,0.994829833984375
-0.09741876953125,0.014777587890624999,1.0594664501953126
-0.17571130859375,-0.09918941650390625,1.3059703515625
-0.33983386718749997,0.0691876416015625,1.5691863818359375
-0.43247193359375,-0.0151234326171875,1.355123671875
-0.43636224609375,0.10864718505859375,1.1120605029296875
-0.26470220703125,-0.0602200537109375,0.820335546875
-0.2027003515625,-0.2567825,0.6677144873046875
-0.06240595703125,-0.163648173828125,0.6084847363281249
-0.16112263671875,-0.07958218994140626,0.64436666015625
-0.251815546875,-0.10016977783203125,0.6750874853515625
-0.13291787109375,-0.008751083984375,0.9159387548828125
-0.31041337890625,0.07335417724609375,1.11623853515625
-0.428824765625,0.0731090869140625,1.2639442626953126
-0.27734572265625,0.10325519775390625,1.26173236328125
-0.378250703125,0.1191860693359375,0.9611598095703124
-0.29047552734375,0.04443351806640625,0.7365291357421875
-0.13583560546875,-0.0464949951171875,0.5910353076171875
-0.12343523437500001,-0.03350520751953125,0.7252238720703125
-0.20488865234375,0.02678701416015625,0.70728291015625
-0.15139685546875,-0.07909200927734375,0.7994453857421875
-0.4575158203125,-0.03644629150390625,0.985490703125
-0.31624884765625,-0.0562986083984375,1.129509931640625
-0.2814791796875,-0.21781313720703124,0.64633279296875
-0.36390517578125,-0.17859868408203125,0.7714279931640625
-0.38092529296875,-0.04330882080078125,0.797233486328125
-0.41010263671875,-0.02615249755859375,0.7163762744140625
-0.30263275390625,0.0319339111328125,0.6355190625
-0.2036729296875,0.0182088525390625,0.5271359912109375
-0.25497642578125,-0.1298257080078125,0.546551552734375
-0.28318119140625,-0.029338671875,0.6981895458984375
-0.28123603515625,0.03512008544921875,0.8510563720703125
-0.35223423828125,0.04320806640625,0.8692431005859375
-0.27053767578125,-0.07615092529296875,0.9820499707031249
-0.298499296875,-0.00801581298828125,0.8633447021484375
-0.284883203125,-0.08619962890625,0.863098935546875
-0.2435486328125,-0.0092412646484375,0.92355751953125
-0.329621796875,-0.0455146337890625,0.865065068359375
-0.27248283203125,0.00987578125,0.9955671337890625
-0.39745912109375,0.01012087158203125,1.043000087890625
-0.35223423828125,0.016738310546875,1.0815854443359374
-0.18786853515625002,-0.0175743359375,1.144255927734375
-0.28196546875,-0.1082577587890625,1.20471451171875
-0.2503566796875,-0.12958061767578125,1.2595204638671875
-0.35806970703125,-0.1161006494140625,1.1454847607421874
-0.24719580078125,-0.1665892578125,0.91569298828125
-0.2892598046875,-0.045024453125,0.861132802734375
-0.27734572265625,-0.044534272460937496,0.9026673583984375
-0.27977716796875,-0.065612041015625,1.0653648486328124
-0.31673513671875,0.00276816162109375,1.0796193115234376
-0.2912049609375,-0.16830489013671876,1.0339067236328126
-0.21510072265625,-0.122472998046875,1.0747039794921875
-0.29436583984375,-0.059484782714843754,1.0516019189453125
-0.46529644531250003,-0.11095375244140625,1.0117877294921875
-0.25838044921875,-0.126394443359375,0.9739396728515625
-0.35344996093750003,-0.08497417724609375,0.8889044287109376
-0.113709453125,-0.0161037939453125,1.0597122167968749
-0.24233291015625,-0.1249239013671875,1.193409248046875
-0.28609892578125,0.014777587890624999,1.316292548828125
-0.38141158203125003,0.03413972412109375,1.2226554736328126
-0.37411724609375,-0.0180645166015625,1.04152548828125
-0.20683380859375,0.0191892138671875,0.98057537109375
-0.29387955078125,0.0946770361328125,1.013508095703125
-0.23017568359375,0.06011929931640625,1.188493916015625
-0.28561263671875,0.03953171142578125,1.2123332763671875
-0.2736985546875,0.1280093212890625,1.217985908203125
-0.23698373046875,-0.0023787353515625003,1.092153408203125
-0.31381740234375,0.02360083984375,1.0157199951171876
-0.259596171875,-0.030319033203124998,1.0167030615234376
-0.2163164453125,0.04639424072265625,0.9783634716796875
-0.22750109375,0.04590406005859375,0.96681244140625
-0.16209521484375,-0.04477936279296875,1.0717547802734375
-0.3267040625,-0.11364974609375,1.2713172607421874
-0.4215304296875,-0.02517213623046875,1.344801474609375
-0.2678630859375,-0.13840386962890625,1.1558069580078125
-0.2488978125,-0.0690433056640625,1.0358728564453126
-0.23552486328125,-0.16977543212890625,0.904387724609375
-0.2698082421875,-0.02737794921875,0.965337841796875
-0.36755234375,0.0191892138671875,0.9124980224609375
-0.28318119140625,-0.02860340087890625,0.899472392578125
-0.1764407421875,0.12580350830078124,1.03366095703125
-0.30652306640625,-0.04281864013671875,1.0619241162109374
-0.16015005859375,-0.0038492773437499997,1.1268064990234374
-0.31284482421875,-0.0259074072265625,1.1607222900390626
-0.34396732421875,-0.06659240234375,1.001219765625
-0.28026345703125,0.03757098876953125,0.84491220703125
-0.31333111328125,0.0515411376953125,0.749554765625
-0.33108066406250003,0.1079119140625,0.7517666650390625
-0.27588685546875,-0.0033590966796874996,0.8382765087890625
-0.22920310546875,0.0476196923828125,0.9203625537109374
-0.3660934765625,0.0613447509765625,1.01203349609375
-0.2649453515625,0.07041309326171875,0.9749227392578125
-0.290718671875,0.00472888427734375,0.882760263671875
-0.23698373046875,0.03855135009765625,0.80067421875
-0.27783201171875,-0.026397587890625,0.715638974609375
-0.22288134765625,0.02531647216796875,0.7468513330078125
-0.24136033203125,0.0069346972656249995,0.760860029296875
-0.28269490234375,-0.09379742919921875,0.8151744482421874
-0.2989855859375,-0.00801581298828125,0.918150654296875
-0.22482650390625,0.08266760986328126,0.9228202197265625
-0.23455228515625,0.0985984814453125,1.0029401318359374
-0.34056330078125,0.05374695068359375,1.0850261767578124
-0.273212265625,0.03119864013671875,1.0712632470703125
-0.32159802734375,-0.05458297607421875,1.0452119873046875
-0.25108611328125,0.095167216796875,1.145238994140625
-0.234309140625,-0.13056097900390626,1.1073909375
-0.304334765625,-0.01953505859375,1.270088427734375
-0.44608802734374997,-0.02713285888671875,1.1172216015625
-0.35466568359375,-0.106787216796875,0.9065996240234375
-0.27515742187500003,-0.13350206298828124,0.7328426367187499
-0.1501811328125,-0.03595611083984375,0.6647652880859375
-0.11249373046875,-0.1249239013671875,0.66009572265625
-0.19029998046875,0.0231106591796875,0.7942842871093749
-0.24087404296875,0.07139345458984375,0.872929599609375
-0.35904228515625003,0.02041466552734375,0.964354775390625
-0.32111173828125,0.0211499365234375,1.1253318994140624
-0.34542619140624997,0.07261890625,1.18112091796875
-0.267376796875,-0.0239466845703125,1.1351625634765625
-0.26421591796875,-0.01683906494140625,1.0186691943359376
-0.32597462890625,0.0843832421875,0.9434646142578125
-0.2805066015625,-0.0151234326171875,0.8707177001953125
-0.31673513671875,7.216796875000007e-05,0.910286123046875
-0.26616107421875,-0.035711020507812496,0.938795048828125
-0.290718671875,-0.07713128662109375,0.9719735400390626
-0.19273142578125,-0.10997339111328125,0.8908705615234375
-0.21218298828125,-0.00581,0.7881401220703125
-0.21412814453125,-0.06046514404296875,0.68762158203125
-0.2255559375,-0.11193411376953125,0.7004014453125
-0.2532744140625,0.02360083984375,0.822793212890625
-0.35855599609375,0.0799716162109375,1.0044147314453125
-0.333512109375,0.0201695751953125,1.1388490625
-0.36196001953125,0.1000690234375,1.166374921875
-0.2017277734375,-0.0239466845703125,1.079373544921875
-0.23212083984375,-0.057278969726562504,1.1582646240234376
-0.2411171875,0.05178622802734375,1.228799638671875
-0.3233000390625,0.091245771484375,1.1604765234375
-0.3320532421875,0.0123266845703125,1.064627548828125
-0.2532744140625,-0.0033590966796874996,1.020389560546875
-0.34348103515625,-0.06536695068359374,0.9287186181640625
-0.1667149609375,-0.05090662109375,0.9501003125
-0.271267109375,-0.09404251953125001,0.9473968798828125
-0.38967849609375,0.01845394287109375,1.0624156494140624
-0.38432931640625,0.0280124658203125,1.040050888671875
-0.35077537109375,0.0701680029296875,1.0284998583984375
-0.3009307421875,0.01404231689453125,0.8997181591796874
-0.17619759765625,-0.05017135009765625,0.828200078125
-0.20440236328125,-0.0327699365234375,0.863098935546875
-0.2649453515625,-0.06977857666015624,0.9680412744140625
-0.26640421875,-0.022476142578125,1.0928907080078125
-0.34250845703125,0.01012087158203125,1.18898544921875
-0.331566953125,0.026541923828125,1.2029941455078126
-0.3155194140625,0.1015395654296875,1.0604495166015624
-0.27053767578125,0.0809519775390625,0.9459222802734375
-0.28196546875,0.122617333984375,0.910286123046875
-0.29631099609375,0.1035002880859375,0.89013326171875
-0.20877896484375,0.06894255126953125,0.95108337890625
-0.25059982421875,-0.0254172265625,0.999745166015625
-0.27685943359375,-0.060710234375,1.0545511181640626
-0.34834392578125,-0.0175743359375,1.1405694287109376
-0.330594375,0.024581201171875,1.0953483740234375
-0.33326896484375,0.00399361328125,1.0407881884765624
-0.19516287109375,-0.010711806640625,1.103458671875
-0.189570546875,-0.0259074072265625,1.1764513525390625
-0.31041337890625,-0.01487834228515625,1.2084010107421874
-0.3378887109375,0.022620478515625,1.0963314404296876
-0.35320681640625,0.026296833496093748,0.8741584326171875
-0.22044990234375,-0.05017135009765625,0.7596311962890625
-0.142886796875,-0.106787216796875,0.7869112890625
-0.14556138671875,-0.15850127685546875,0.958456376953125
-0.23698373046875,-0.1111988427734375,1.1690783544921874
-0.391866796875,-0.051886982421875,1.22437583984375
-0.37533296875,0.024091020507812498,1.069542880859375
-0.29387955078125,-0.01732924560546875,0.884726396484375
-0.20245720703125,-0.0582593310546875,0.791335087890625
-0.23819945312500002,-0.08423890625,0.7817501904296875
-0.16185207031249998,-0.01953505859375,0.9614055761718749
-0.3057936328125,-0.0317895751953125,1.081339677734375
-0.35904228515625003,0.05717821533203125,1.150645859375
-0.28707150390625,0.02923791748046875,1.0786362451171876
-0.30895451171875,0.053992041015625,0.9414984814453125
-0.2182616015625,0.13070531494140625,0.8348357763671875
-0.14969484375,0.05374695068359375,0.7298934375
-0.18349193359375,0.1471263671875,0.8574463037109374
-0.29752671875000003,0.05129604736328125,1.03661015625
-0.3904079296875,0.02041466552734375,1.1997991796875
-0.36633662109375,-0.042328459472656246,1.1327048974609375
-0.3048210546875,-0.02664267822265625,1.0009739990234374
-0.255705859375,-0.07860182861328124,0.89603166015625
-0.29874244140625,-0.11291447509765624,0.93437125
-0.32597462890625,-0.010221625976562499,1.128526865234375
-0.38627447265625,0.07384435791015626,1.262223896484375
-0.39016478515624997,0.077520712890625,1.1440101611328124
-0.24719580078125,-0.048455717773437504,0.9375662158203125
-0.174981875,-0.01634888427734375,0.874895732421875
-0.27418484375,-0.059484782714843754,0.9400238818359374
-0.31673513671875,-0.0974737841796875,1.045949287109375
-0.43782111328125,0.008405239257812499,1.03562708984375
-0.4147223828125,0.01110123291015625,0.9174133544921875
-0.335457265625,-0.068553125,0.820827080078125
-0.2989855859375,-0.02860340087890625,0.8658023681640625
-0.29971501953125,-0.0239466845703125,0.876861865234375
-0.2746711328125,-0.0455146337890625,0.8402426416015625
-0.25108611328125,0.00276816162109375,0.83114927734375
-0.29387955078125,-0.04134809814453125,0.8687515673828125
-0.18592337890625,-0.07370002197265625,0.95501564453125
-0.24768208984375,0.02237538818359375,0.973202373046875
-0.2450075,-0.03546593017578125,1.0031858984375
-0.2377131640625,0.018699033203125,1.00515203125
-0.34032015625,-0.0411030078125,0.95501564453125
-0.27685943359375,-0.01487834228515625,1.0398051220703124
-0.34493990234375,-0.0023787353515625003,1.092153408203125
-0.2970404296875,0.08756941650390625,1.09461107421875
-0.23139140625,0.04149243408203125,0.909303056640625
-0.10495625,0.00521906494140625,0.8495817724609375
-0.12562353515625,-0.0759058349609375,0.8879213623046875
-0.189570546875,-0.09281706787109376,1.0825685107421874
-0.2630001953125,-0.0719843896484375,1.2088925439453124
-0.33521412109375,-0.07026875732421875,1.063644482421875
-0.244034921875,-0.05262225341796875,0.9759058056640625
-0.2814791796875,-0.0425735498046875,0.8572005371093749
-0.2722396875,-0.049926259765625,0.784453623046875
-0.13923962890625,-0.03497574951171875,0.81738634765625
-0.1890842578125,-0.06781785400390625,0.8402426416015625
-0.210967265625,-0.0915916162109375,0.8692431005859375
-0.16793068359375,-0.14698203125,0.9493630126953125
-0.30603677734375,-0.175412509765625,0.94321884765625
-0.2192341796875,-0.09379742919921875,0.883251796875
-0.17522501953125,-0.14379585693359376,0.7915808544921875
-0.16549923828125,-0.00801581298828125,0.928964384765625
-0.33959072265625,-0.04526954345703125,0.997779033203125
-0.316005703125,-0.0038492773437499997,0.9587021435546875
-0.2722396875,0.09443194580078125,0.8623616357421875
-0.230418828125,0.06845237060546874,0.81640328125
-0.11443888671875,0.07065818359375,0.778555224609375
-0.19175884765625,0.08021670654296875,0.7753602587890625
-0.1929745703125,0.03266918212890625,0.8156659814453124
-0.25935302734375,-0.04183827880859375,0.86064126953125
-0.21510072265625,0.05962911865234375,0.9940925341796875
-0.38043900390625,-0.01046671630859375,1.0560257177734376
-0.39745912109375,0.03462990478515625,1.0565172509765626
-0.29485212890625,0.04982550537109375,0.9913891015625
-0.34493990234375,0.0270321044921875,0.9262609521484375
-0.347128203125,0.036345537109375,0.8891501953125
-0.24136033203125,0.10570610107421875,0.828200078125
-0.20829267578125,0.0495804150390625,0.768724560546875
-0.29971501953125,0.08315779052734375,0.8402426416015625
-0.299471875,0.01306195556640625,0.869980400390625
-0.280992890625,0.04198261474609375,0.9528037451171875
-0.3952708203125,-0.01046671630859375,0.990897568359375
-0.2707808203125,-0.1038461328125,0.844420673828125
-0.2980130078125,-0.09673851318359375,0.7325968701171874
-0.38092529296875,0.01110123291015625,0.7488174658203125
-0.19370400390625,-0.01953505859375,0.8328696435546875
-0.41691068359375,-0.100905048828125,0.944693447265625
-0.31381740234375,0.057913486328125,0.96288017578125
-0.36001486328125,-0.1788437744140625,0.75053783203125
-0.3446967578125,-0.2058037109375,0.7345630029296875
-0.1949197265625,-0.04919098876953125,0.5767808447265625
-0.11200744140625,-0.1587463671875,0.5408989208984375
-0.1788721875,-0.25212578369140626,0.5694078466796875
-0.2435486328125,-0.02517213623046875,0.7591396630859375
-0.26907880859375,0.0966377587890625,0.9621428759765625
-0.45775896484375,0.0417375244140625,1.1233657666015624
-0.358799140625,0.17433139404296874,1.21651130859375
-0.28074974609375003,0.10668646240234375,1.1105859033203125
-0.201241484375,0.02972809814453125,1.0112961962890625
-0.300444453125,0.09026541015625,1.088221142578125
-0.294608984375,-0.1896277490234375,1.1312302978515625
-0.13000013671875,-0.15310928955078124,1.1037044384765624
-0.277102578125,0.122617333984375,1.15949345703125
-0.2488978125,-0.0219859619140625,1.1902142822265624
-0.29776986328125,-0.022476142578125,1.24207103515625
-0.41423609375,-0.00213364501953125,1.262223896484375
-0.39454138671875,-0.09869923583984375,1.080356611328125
-0.20683380859375,0.028502646484374998,0.8682600341796876
-0.12854126953125,-0.05090662109375,0.7262069384765625
-0.09790505859375,-0.0097314453125,0.8795652978515625
-0.25546271484375,-0.07664110595703125,0.990897568359375
-0.41812640624999997,-0.0464949951171875,1.040542421875
-0.2260422265625,-0.19845100097656249,1.0452119873046875
-0.3233000390625,-0.15752091552734376,1.2899955224609374
-0.251815546875,-0.0337502978515625,1.47702390625
-0.4434134375,0.11771552734375,1.4753035400390626
-0.3485870703125,0.07188363525390624,1.1617053564453126
-0.26324333984375,-0.1798241357421875,0.8962774267578125
-0.33570041015625,-0.1151202880859375,0.7561904638671875
-0.19248828125,-0.10972830078125,0.6323240966796875
0.01491400390625,-0.19477464599609376,0.5826792431640625
-0.11443888671875,-0.2229600341796875,0.8859552294921875
-0.35806970703125,0.00619942626953125,1.023338759765625
-0.35563826171875,0.034384814453125,1.1769428857421875
-0.469673046875,0.14394019287109375,1.307936484375
-0.3612305859375,0.238299970703125,1.314326416015625
-0.17960162109375,0.067717099609375,1.2634527294921876
-0.255705859375,0.044188427734375,1.2351895703125
-0.42469130859375,0.05227640869140625,1.061678349609375
-0.31478998046875,-0.06340622802734375,0.7832247900390625
-0.1171134765625,-0.02909358154296875,0.7542243310546874
-0.3967296875,-0.014633251953124999,0.8313950439453125
-0.26907880859375,-0.1509034765625,0.9051250244140625
-0.005996425781250002,-0.10065995849609374,1.001219765625
-0.28318119140625,0.02531647216796875,1.086255009765625
-0.53653779296875,-0.0229663232421875,0.80165728515625
-0.31819400390625,-0.03742665283203125,0.46938083984375
-0.13291787109375,0.0294830078125,0.521974892578125
-0.25886673828125,-0.00605509033203125,0.6571465234375
-0.2133987109375,0.01183650390625,0.8599039697265625
-0.32281375,-0.05801424072265625,0.98942296875
-0.3077387890625,-0.05017135009765625,0.9960586669921875
-0.31089966796875,0.01453249755859375,0.9046334912109375
