ax,ay,az
-0.02715,-0.00581,0.11646
-0.33278267578125,-0.17369687744140624,0.87440419921875
-0.2085358203125,-0.17712814208984376,0.766758427734375
-0.1832487890625,-0.20163717529296876,0.724486572265625
-0.19346085937500002,-0.1886473876953125,0.6932742138671875
-0.2445212109375,-0.2219796728515625,0.72891037109375
-0.2736985546875,-0.21095060791015624,0.773148359375
-0.17279357421875,-0.1915884716796875,0.8105048828125
-0.1706052734375,-0.1739419677734375,0.9282270849609375
-0.12635296875,-0.1719812451171875,1.0658563818359374
-0.1589343359375,-0.15310928955078124,1.189476982421875
-0.24914095703125,-0.177373232421875,1.339886142578125
-0.31868029296875,-0.1396293212890625,1.410175390625
-0.31284482421875,-0.10727739746093751,1.2113502099609375
-0.36341888671875,-0.06046514404296875,1.0334151904296875
-0.2878009375,-0.0788469189453125,0.984016103515625
-0.26251390625,-0.05458297607421875,0.94223578125
-0.252788125,-0.03742665283203125,0.8446664404296875
-0.23114826171875,-0.1886473876953125,0.7488174658203125
-0.13632189453125,-0.1759026904296875,0.710723642578125
-0.12173322265625,-0.09722869384765626,0.6927826806640625
-0.15066742187499998,-0.079337099609375,0.788877421875
-0.31308796875,-0.1013952294921875,0.8982435595703124
-0.236254296875,0.0593840283203125,1.043000087890625
-0.3466419140625,0.04639424072265625,1.134425263671875
-0.39575710937499997,0.00276816162109375,1.2757410595703125
-0.44122513671875,0.09492212646484376,1.2442829345703126
-0.3694975,-0.01144707763671875,1.1007552392578126
-0.32646091796875,-0.0915916162109375,1.028254091796875
-0.28366748046875,-0.022476142578125,0.9493630126953125
-0.2416034765625,-0.1396293212890625,0.8053437841796875
-0.20294349609375,-0.2033528076171875,0.76233462890625
-0.1229489453125,-0.16462853515625,0.7222746728515625
-0.060947089843749996,-0.18104958740234375,0.8775991650390624
-0.019369375,-0.19722554931640626,1.0447204541015624
-0.08331638671875,-0.2798209912109375,1.2914701220703124
-0.269321953125,-0.1798241357421875,1.4042769921875
-0.36098744140625,-0.02223105224609375,1.28729208984375
-0.36755234375,-0.0729647509765625,1.1041959716796874
-0.30457791015625,-0.06389640869140625,1.103458671875
-0.27151025390625,0.0069346972656249995,1.13393373046875
-0.22385392578125,-0.0661022216796875,1.04349162109375
-0.31284482421875,-0.08619962890625,0.944693447265625
-0.3301080859375,-0.09796396484375,0.851793671875
-0.22968939453125,-0.09624833251953124,0.7709364599609375
-0.15431458984375,-0.14918784423828124,0.7729025927734375
-0.13413359375,-0.16046199951171874,0.8427003076171875
-0.2425760546875,-0.171491064453125,0.8933282275390625
-0.25886673828125,-0.10360104248046875,0.915201455078125
-0.37168580078125,-0.08423890625,0.8436833740234375
-0.37265837890625,-0.07615092529296875,0.8422087744140625
-0.37508982421875,0.05815857666015625,0.814928681640625
-0.3344846875,0.13021513427734374,0.780521357421875
-0.299471875,0.1564397998046875,0.947642646484375
-0.16258150390625,0.06257020263671875,1.1454847607421874
-0.11930177734375,0.1035002880859375,1.399853193359375
-0.19346085937500002,0.09786321044921875,1.5274060595703125
-0.28464005859375,-0.1273748046875,1.48783763671875
-0.41788326171875,-0.1886473876953125,1.2349438037109375
-0.39940427734375,-0.2494297900390625,1.060695283203125
-0.3223274609375,-0.29281077880859374,0.9169218212890625
-0.2542469921875,-0.3151139990234375,0.8505648388671875
-0.15285572265625,-0.2700173779296875,0.7596311962890625
-0.14361623046875,-0.25016506103515623,0.7153932080078125
-0.17425244140625,-0.2781053588867187,0.8043607177734375
-0.20586123046875,-0.30898674072265625,0.935845849609375
-0.25692158203125,-0.36339679443359374,1.0597122167968749
-0.25643529296875,-0.37810221435546876,1.094119541015625
-0.20975154296875,-0.22663638916015624,1.0171945947265626
-0.17376615234375,-0.15507001220703126,0.94715111328125
-0.15285572265625,-0.1665892578125,1.024321826171875
-0.240144609375,-0.0739451123046875,1.1327048974609375
-0.3835998828125,-0.03252484619140625,1.153103525390625
-0.3446967578125,-0.00581,1.0137538623046876
-0.2561921484375,-0.0004180126953125,0.89504859375
-0.24281919921875,-0.05801424072265625,0.820335546875
-0.23698373046875,-0.05213207275390625,0.8183694140625
-0.26664736328125,-0.0494360791015625,0.8087845166015625
-0.2056180859375,-0.14109986328125,0.839996875
-0.17425244140625,-0.06242586669921875,0.9297016845703125
-0.22044990234375,-0.16340308349609375,1.0039231982421875
-0.197351171875,-0.1822750390625,1.09264494140625
-0.27977716796875,-0.0268877685546875,1.1459762939453124
-0.20975154296875,-0.06267095703125,1.09854333984375
-0.277102578125,-0.06659240234375,1.1494170263671875
-0.31478998046875,0.004973974609375,1.1803836181640626
-0.33715927734375,0.03512008544921875,1.096085673828125
-0.24184662109375,0.0012976196289062499,1.0167030615234376
-0.0777240625,-0.060710234375,0.9046334912109375
-0.29582470703125,-0.07222947998046875,0.819844013671875
-0.1633109375,-0.10213050048828125,0.8427003076171875
-0.2085358203125,-0.065612041015625,0.8274627783203125
-0.185680234375,-0.0023787353515625003,0.8338527099609375
-0.26567478515625,-0.13644314697265625,0.790352021484375
-0.23601115234375,-0.10556176513671875,0.76233462890625
-0.33326896484375,-0.179333955078125,0.7414444677734375
-0.24184662109375,-0.09526797119140624,0.7733941259765625
-0.22968939453125,-0.11340465576171875,0.7778179248046875
-0.22944625,-0.1587463671875,0.8623616357421875
-0.25157240234375,-0.10727739746093751,0.9442019140625
-0.1472633984375,-0.08007237060546875,0.9559987109375
-0.20026890625,-0.02909358154296875,1.01989802734375
-0.477453671875,0.0211499365234375,1.076424345703125
-0.56425626953125,0.0250713818359375,1.0044147314453125
-0.54869501953125,0.08021670654296875,0.894557060546875
-0.45411179687500003,0.08168724853515624,0.9154472216796875
-0.29169125,0.0211499365234375,0.9975332666015625
-0.25789416015625,0.0008074389648437498,1.0535680517578125
-0.346155625,-0.028358310546875,1.1715360205078125
-0.4507077734375,-0.10065995849609374,1.1801378515625
-0.64498025390625,-0.134237333984375,1.1572815576171875
-0.6598120703125,-0.00850599365234375,0.9881941357421875
-0.6014573828125,-0.08546435791015625,0.875387265625
-0.4030514453125,-0.09183670654296874,0.7999369189453125
-0.23212083984375,-0.2004117236328125,0.823776279296875
-0.292663828125,-0.26192939697265627,0.84491220703125
-0.33861814453125,-0.2268814794921875,0.918150654296875
-0.49957982421875,-0.1729616064453125,0.9940925341796875
-0.44754689453125,-0.16438344482421874,0.9596852099609375
-0.40864376953125,-0.1043363134765625,1.066593681640625
-0.3476144921875,-0.08742508056640624,1.1164843017578125
-0.421044140625,-0.136198056640625,1.096085673828125
-0.3962433984375,-0.076396015625,1.11034013671875
-0.3466419140625,-0.1788437744140625,0.9611598095703124
-0.26859251953125,-0.1200220947265625,0.8773533984374999
-0.14653396484375,-0.2170778662109375,0.827708544921875
-0.1851939453125,-0.2788406298828125,0.946659580078125
-0.2523018359375,-0.2982027661132812,1.08871267578125
-0.18640966796875,-0.11928682373046876,1.2197062744140625
-0.16841697265625,-0.17271651611328126,1.217985908203125
-0.22871681640625,-0.120512275390625,1.161951123046875
-0.27734572265625,-0.04134809814453125,1.0117877294921875
-0.30871136718750003,-0.08423890625,0.91176072265625
-0.0859909765625,-0.012427438964843749,0.908319990234375
-0.27613,-0.0347306591796875,1.0280083251953125
-0.1628246484375,-0.04330882080078125,1.161951123046875
-0.06921400390625,-0.126394443359375,1.195375380859375
-0.04344068359375,-0.08595453857421875,1.2541135986328125
-0.15577345703125,-0.0798272802734375,1.2467406005859374
-0.23357970703125,-0.045024453125,1.02776255859375
-0.1482359765625,0.04639424072265625,0.90193005859375
-0.0801555078125,0.0495804150390625,0.8898874951171875
-0.156502890625,0.07237381591796875,1.0476696533203125
-0.30652306640625,0.00717978759765625,1.113780869140625
-0.179844765625,-0.00850599365234375,1.00220283203125
-0.23406599609375,-0.0690433056640625,0.8245135791015625
-0.0699434375,-0.08840544189453126,0.757910830078125
-0.0256911328125,-0.0739451123046875,0.883743330078125
-0.05365275390625,-0.15286419921875,1.022355693359375
-0.2912049609375,-0.18791211669921876,1.037101689453125
-0.268349375,-0.0866898095703125,0.9154472216796875
-0.22361078125,-0.0651218603515625,0.8377849755859375
-0.26154132812499997,-0.0327699365234375,0.8159117480468749
-0.24330548828125,-0.0347306591796875,0.7709364599609375
-0.23455228515625,-0.0513968017578125,0.715638974609375
-0.22579908203125,-0.05703387939453125,0.644858193359375
-0.286828359375,-0.053847705078125,0.707774443359375
-0.10519939453125,-0.16536380615234375,0.779538291015625
-0.2523018359375,-0.1572758251953125,1.01989802734375
-0.37022693359375003,-0.15997181884765624,1.1233657666015624
-0.2649453515625,-0.210705517578125,1.0149826953125
-0.22579908203125,-0.11291447509765624,0.8702261669921875
-0.2503566796875,-0.1504132958984375,0.7144101416015625
-0.15917748046875,-0.10899302978515625,0.78789435546875
-0.2279873828125,-0.03889719482421875,0.949608779296875
-0.3038484765625,-0.0582593310546875,1.1130435693359375
-0.203186640625,-0.12418863037109375,1.1017383056640626
-0.074806328125,-0.010221625976562499,1.103950205078125
-0.2075632421875,-0.08105273193359375,1.0742124462890625
-0.35101851562499997,-0.1004148681640625,1.083305810546875
-0.36633662109375,-0.1896277490234375,0.983033037109375
-0.2192341796875,-0.0759058349609375,0.9665666748046875
-0.2095083984375,-0.1038461328125,0.96288017578125
-0.374360390625,-0.15507001220703126,0.989914501953125
-0.300444453125,-0.071494208984375,0.89996392578125
-0.30700935546875,-0.04772044677734375,0.878827998046875
-0.29825615234375,-0.08423890625,0.97074470703125
-0.2017277734375,-0.0151234326171875,1.1376202294921876
-0.399647421875,-0.0876701708984375,1.2152824755859375
-0.43587595703125,-0.09845414550781251,1.2256046728515626
-0.448276328125,-0.06585713134765625,0.9223286865234375
-0.36730919921875,-0.07051384765625,0.744147900390625
-0.18300564453125,-0.04330882080078125,0.7139186083984375
-0.18057419921875,-0.03203466552734375,0.68762158203125
-0.26324333984375,-0.13742350830078126,0.726452705078125
-0.24622322265625,-0.01830960693359375,0.7896147216796875
-0.31576255859375,-0.03203466552734375,0.76233462890625
-0.30166017578125,-0.07320984130859375,0.9257694189453125
-0.34688505859375,-0.0582593310546875,1.070525947265625
-0.23357970703125,0.0015427099609375003,1.252884765625
-0.22579908203125,-0.07370002197265625,1.3514371728515624
-0.26032560546875,-0.0827683642578125,1.2899955224609374
-0.27272597656249997,0.0035034326171875,1.099034873046875
-0.236254296875,-0.04085791748046875,0.9179048876953125
-0.17036212890625,-0.0038492773437499997,0.8616243359375
-0.209022109375,-0.0803174609375,0.9641090087890625
-0.2182616015625,-0.0001729223632812504,0.97467697265625
-0.26032560546875,0.07850107421875,0.8525309716796875
-0.28853037109375,0.0162481298828125,0.8166490478515624
-0.166228671875,0.0182088525390625,0.765775361328125
-0.175954453125,-0.0729647509765625,0.9166760546875
-0.170118984375,-0.069533486328125,0.9614055761718749
-0.32111173828125,-0.05090662109375,1.127543798828125
-0.32159802734375,-0.042328459472656246,1.1980788134765625
-0.3184371484375,-0.15016820556640625,1.104933271484375
-0.13097271484375,-0.05850442138671875,1.08084814453125
-0.2454937890625,0.0623251123046875,1.0712632470703125
-0.2639727734375,-0.09085634521484375,0.9395323486328125
-0.34445361328125,0.024091020507812498,0.95304951171875
-0.33715927734375,-0.13889405029296875,0.93338818359375
-0.27807515625,-0.14820748291015626,0.9046334912109375
-0.23552486328125,-0.2376654541015625,0.853268271484375
-0.06386482421875,-0.20359789794921876,0.8230389794921875
-0.14969484375,-0.23447927978515626,0.8397511083984375
-0.30311904296875003,-0.1876670263671875,0.8844806298828125
-0.35174794921875,-0.057278969726562504,0.872929599609375
-0.37460353515625,-0.067572763671875,0.8387680419921875
-0.26761994140625,0.00227798095703125,0.8854636962890625
-0.1171134765625,-0.0001729223632812504,0.993355234375
-0.2435486328125,-0.0371815625,1.171781787109375
-0.17182099609375,-0.1013952294921875,1.2428083349609376
-0.2639727734375,-0.17026561279296876,1.202256845703125
-0.294608984375,-0.1170810107421875,1.0447204541015624
-0.29922873046875,-0.1357078759765625,0.869980400390625
-0.29242068359375,-0.17271651611328126,0.8633447021484375
-0.25838044921875,-0.1611972705078125,0.9164302880859375
-0.314060546875,-0.1857063037109375,0.9287186181640625
-0.1890842578125,-0.15801109619140624,0.9385492822265625
-0.22336763671875,-0.0239466845703125,0.92355751953125
-0.0869635546875,0.0250713818359375,0.9994993994140625
-0.1166271875,-0.08840544189453126,1.1794005517578126
-0.212912421875,-0.049926259765625,1.4541676123046874
-0.27199654296875,-0.046004814453125,1.5741017138671876
-0.403537734375,-0.0406128271484375,1.510939697265625
-0.377278125,-0.1347275146484375,1.1676037548828124
-0.346155625,-0.11340465576171875,0.8520394384765625
-0.20294349609375,-0.07075893798828126,0.8441749072265625
-0.17692703125,-0.200901904296875,0.8368019091796874
-0.18640966796875,-0.13448242431640625,0.9056165576171875
-0.080641796875,-0.13203152099609375,0.9252778857421875
-0.18592337890625,-0.09232688720703125,1.0594664501953126
-0.26421591796875,-0.04772044677734375,1.1479424267578124
-0.1861665234375,-0.0317895751953125,1.109848603515625
-0.15285572265625,0.00570924560546875,1.092153408203125
-0.26907880859375,-0.20727425292968749,1.0545511181640626
-0.36244630859375,-0.10286577148437501,0.991880634765625
-0.27199654296875,-0.21830331787109375,0.7709364599609375
-0.18300564453125,-0.2190385888671875,0.65911265625
-0.24573693359375,-0.14624676025390626,0.5939845068359375
-0.24233291015625,-0.13105115966796876,0.54802615234375
-0.17911533203125,-0.09673851318359375,0.5077204296875
-0.01572220703125,-0.05899460205078125,0.5942302734375
-0.034687480468750004,-0.00997653564453125,0.73480876953125
-0.3602580078125,0.0221302978515625,0.9206083203125
-0.22701480468750002,0.05472731201171875,0.9481341796875
-0.2279873828125,0.0162481298828125,1.0383305224609374
-0.34785763671875003,0.10129447509765625,1.0958399072265625
-0.23455228515625,0.06796218994140625,1.0437373876953124
-0.26154132812499997,0.04884514404296875,0.9886856689453125
-0.2454937890625,0.14908708984375,0.859166669921875
-0.24962724609375,-0.0004180126953125,0.751029365234375
-0.28658521484375,-0.1308060693359375,0.7930554541015625
-0.34250845703125,-0.0974737841796875,0.8707177001953125
-0.3242726171875,-0.1161006494140625,0.7153932080078125
-0.1015522265625,-0.04428918212890625,0.72891037109375
-0.07845349609375,-0.0180645166015625,0.8365561425781249
-0.0587587890625,-0.0670825830078125,1.0427543212890624
-0.32791978515625,-0.10507158447265624,1.22044357421875
-0.22288134765625,-0.0009081933593750001,1.2727918603515624
-0.3009307421875,0.10668646240234375,1.2708257275390624
-0.48207341796875003,-0.0229663232421875,1.134916796875
-0.34007701171875,-0.03129939453125,0.98843990234375
-0.3281629296875,-0.10801266845703125,0.8540055712890625
-0.1890842578125,-0.15286419921875,0.77609755859375
-0.11079171875,-0.098944326171875,0.8572005371093749
-0.1637972265625,-0.1562954638671875,0.943710380859375
-0.34688505859375,-0.226391298828125,1.1184504345703126
-0.325731484375,-0.2925656884765625,1.106899404296875
-0.3106565234375,-0.17075579345703126,0.964354775390625
-0.42663646484375,-0.10605194580078126,0.90389619140625
-0.3262177734375,-0.10703230712890625,0.8419630078125
-0.317950859375,-0.12369844970703125,0.82918314453125
-0.26713365234374997,0.02090484619140625,0.9306847509765624
-0.3811684375,0.09149086181640625,1.0235845263671874
-0.3651208984375,-0.07860182861328124,1.048898486328125
-0.376305546875,-0.07468038330078125,1.1268064990234374
-0.27345541015625,-0.04723026611328125,1.0884669091796875
-0.1521262890625,-0.0661022216796875,1.0958399072265625
-0.112736875,-0.08227818359375,1.1720275537109375
-0.1715778515625,-0.0435539111328125,1.35119140625
-0.38287044921875,-0.027868129882812502,1.38953099609375
-0.48401857421875,-0.05874951171875,1.2253589062499999
-0.3811684375,-0.11561046875,1.1366371630859375
-0.17522501953125,-0.14820748291015626,1.2310115380859374
-0.17473873046875,-0.1626678125,1.3268605126953126
-0.317950859375,-0.200901904296875,1.383141064453125
-0.37363095703125,-0.19403937500000001,1.1548238916015625
-0.48012826171875,-0.20359789794921876,0.8559717041015625
-0.26154132812499997,-0.217568046875,0.7006472119140625
-0.14969484375,-0.25114542236328125,0.6952403466796875
-0.09012443359375,-0.27442900390625,0.8363103759765624
-0.2153438671875,-0.28594824951171877,0.9547698779296875
-0.31697828125,-0.1935491943359375,0.8864467626953125
-0.17571130859375,-0.25604722900390625,0.846386806640625
-0.15577345703125,-0.12222790771484375,0.922082919921875
-0.33983386718749997,-0.17173615478515625,1.0825685107421874
-0.325731484375,-0.07835673828125,1.1322133642578125
-0.2542469921875,-0.013652890625,0.9778719384765625
-0.29776986328125,-0.1195319140625,0.8038691845703125
-0.2347954296875,-0.206784072265625,0.7090032763671875
-0.22288134765625,-0.23055783447265624,0.728418837890625
-0.13802390625,-0.038161923828125,0.830657744140625
-0.23941517578125,-0.0719843896484375,0.796741953125
-0.26640421875,-0.13105115966796876,0.6824604833984375
-0.14580453125,-0.08301345458984374,0.7139186083984375
-0.1073876953125,0.0133070458984375,0.837539208984375
-0.23260712890625002,0.01012087158203125,0.983033037109375
-0.2177753125,0.10202974609375,1.1091113037109375
-0.20975154296875,0.052031318359375,1.264190029296875
-0.30992708984375,-0.045024453125,1.206189111328125
-0.298499296875,0.08242251953125,1.082322744140625
-0.11346630859375,-0.0200252392578125,1.0083469970703125
-0.24695265625,-0.0288484912109375,0.9872110693359375
-0.2561921484375,0.033404453125,0.9127437890625
-0.14580453125,-0.10972830078125,0.716622041015625
-0.03128345703125,-0.16732452880859375,0.6451039599609375
-0.13972591796875,-0.1866866650390625,0.754961630859375
-0.23917203125,-0.1680597998046875,0.8515479052734375
-0.11103486328125,-0.12541408203125,0.864082001953125
-0.16695810546875,-0.1141399267578125,0.8471241064453126
-0.2814791796875,-0.21781313720703124,0.871455
-0.18203306640625,-0.096983603515625,0.9916348681640625
-0.22774423828125,-0.1445311279296875,1.16342572265625
-0.3505322265625,-0.05213207275390625,1.261240830078125
-0.33618669921875,-0.00409436767578125,1.151137392578125
-0.3184371484375,-0.06193568603515625,1.0004824658203124
-0.27807515625,-0.013652890625,0.8869382958984375
-0.172064140625,-0.05997496337890625,0.7149016748046875
-0.035903203125000005,0.01698340087890625,0.7736398925781249
-0.1433730859375,-0.07419020263671874,0.862115869140625
-0.1754681640625,-0.09575815185546875,0.98450763671875
-0.20415921875,-0.173451787109375,1.1329506640625
-0.392839375,0.00791505859375,1.3135891162109374
-0.46286499999999997,0.0544822216796875,1.248460966796875
-0.44511544921875,-0.0533575244140625,1.1651460888671874
-0.25205869140625,-0.016593974609375,1.15556119140625
-0.27418484375,-0.07419020263671874,1.1272980322265624
-0.23795630859375,-0.10409122314453124,1.1066536376953124
-0.20926525390625,-0.159726728515625,0.9442019140625
-0.12367837890625,-0.1788437744140625,0.9670582080078125
-0.203186640625,-0.14036459228515624,1.14179826171875
-0.30700935546875,-0.11389483642578124,1.3381657763671875
-0.33667298828125003,-0.08154291259765625,1.3578271044921875
-0.30117388671875,-0.05703387939453125,1.2201978076171875
-0.2182616015625,-0.1435507666015625,0.9940925341796875
-0.09109701171875,-0.11561046875,1.0228472265625
-0.24281919921875,-0.228352021484375,1.1096028369140625
-0.29582470703125,-0.30187912109375,1.18701931640625
-0.361716875,-0.27442900390625,1.1845616503906249
-0.3135742578125,-0.22516584716796875,0.8766160986328125
-0.19856689453125,-0.2298225634765625,0.7281730712890625
-0.1633109375,-0.2660959326171875,0.6357648291015625
-0.15625974609374998,-0.2717330102539062,0.65026505859375
-0.19613544921875,-0.3021242114257813,0.796250419921875
-0.29096181640625,-0.30114385009765626,0.95796484375
-0.0927990234375,-0.1955099169921875,0.9719735400390626
-0.1686601171875,-0.12663953369140624,1.13393373046875
-0.2406308984375,-0.083258544921875,1.253376298828125
-0.2552195703125,-0.046740085449218746,1.233714970703125
-0.2600824609375,0.04492369873046875,1.2649273291015626
-0.34299474609375,0.0446786083984375,1.27549529296875
-0.51465478515625,0.061834931640625,1.1936550146484375
-0.49885039062500003,0.10595119140625,1.0108046630859375
-0.1788721875,0.00717978759765625,0.7837163232421875
0.0003253320312500002,0.01649322021484375,0.669434853515625
-0.0004041015625000019,0.06943273193359376,0.7989538525390625
-0.14847912109375,-0.03693647216796875,0.954032578125
-0.271267109375,0.00325834228515625,1.1474508935546874
-0.4030514453125,-0.08301345458984374,1.1907058154296875
-0.3408064453125,-0.01978014892578125,1.17325638671875
-0.220693046875,0.0211499365234375,1.0412797216796874
-0.30555048828125,-0.0288484912109375,0.93732044921875
-0.19273142578125,-0.0016434643554687498,0.8707177001953125
-0.20926525390625,-0.09183670654296874,0.88423486328125
-0.277102578125,-0.01487834228515625,0.8957858935546875
-0.24525064453125,-0.02321141357421875,0.749554765625
-0.1015522265625,-0.02419177490234375,0.6490362255859374
-0.1025248046875,-0.0778665576171875,0.6175781005859375
-0.179844765625,-0.059484782714843754,0.6996641455078125
-0.11589775390625,-0.0729647509765625,0.78592822265625
-0.1093328515625,-0.01095689697265625,0.8943112939453125
-0.0543821875,0.0476196923828125,1.0206353271484374
-0.1321884375,-0.0327699365234375,1.1997991796875
-0.3223274609375,0.008895419921875,1.3273520458984376
-0.42128728515625,-0.0121823486328125,1.27942755859375
-0.40961634765625,0.00276816162109375,1.1801378515625
-0.244034921875,-0.05874951171875,0.9547698779296875
-0.08477525390625,-0.046004814453125,0.7910893212890625
-0.0480604296875,-0.0592396923828125,0.7960046533203124
-0.143859375,-0.08619962890625,0.9488714794921875
-0.195406015625,-0.0006631030273437505,1.1250861328125
-0.27977716796875,-0.10997339111328125,1.2194605078125
-0.13291787109375,-0.0680629443359375,1.31678408203125
-0.17717017578125,0.00987578125,1.340869208984375
-0.24865466796875,0.0280124658203125,1.3160467822265625
-0.4322287890625,-0.0190448779296875,1.200290712890625
-0.46286499999999997,0.013552136230468751,0.9783634716796875
-0.38821962890625,-0.0001729223632812504,0.7812586572265625
-0.2133987109375,-0.12075736572265625,0.7507835986328125
-0.2099946875,-0.26781156494140623,0.7139186083984375
-0.24573693359375,-0.27761517822265624,0.643875126953125
-0.159420625,-0.14379585693359376,0.6296206640625
-0.15042427734375,-0.22418548583984374,0.6942572802734375
-0.14191421875,-0.23742036376953124,0.8183694140625
-0.27199654296875,-0.154824921875,1.1046875048828124
-0.33472783203125,-0.10899302978515625,1.2963854541015625
-0.32159802734375,-0.07026875732421875,1.333987744140625
-0.39940427734375,0.03512008544921875,1.2585373974609375
-0.42055785156250003,0.11452935302734375,1.1290183984375
-0.36147373046875,0.01306195556640625,0.924049052734375
-0.23357970703125,0.03144373046875,0.8869382958984375
-0.25886673828125,0.0037485229492187503,0.998762099609375
-0.14118478515625,-0.06193568603515625,0.9734481396484375
-0.18786853515625002,-0.16070708984375,0.9365831494140625
-0.1317021484375,-0.16291290283203125,0.87243806640625
-0.08088494140625,-0.1038461328125,0.8702261669921875
-0.24816837890625,-0.30947692138671873,0.9127437890625
-0.13607875,-0.31830017333984373,0.930438984375
-0.07261802734375,-0.21560732421875,1.0395593554687501
-0.16185207031249998,-0.24869451904296874,1.0592206835937499
-0.314060546875,-0.21438187255859376,1.0865007763671874
-0.24695265625,-0.040122646484374996,1.048898486328125
-0.38919220703125,0.13413657958984376,0.9975332666015625
-0.23406599609375,0.16795904541015624,0.92159138671875
-0.1783858984375,0.00619942626953125,1.075441279296875
-0.2027003515625,0.01747358154296875,1.0039231982421875
-0.12805498046875,0.00963069091796875,0.80853875
-0.175954453125,-0.076396015625,0.685163916015625
-0.2099946875,-0.05703387939453125,0.7463597998046875
-0.19637859375,-0.05360261474609375,0.9611598095703124
-0.2902323828125,-0.07271966064453125,1.121645400390625
-0.356853984375,-0.11830646240234374,1.11623853515625
-0.24233291015625,-0.0337502978515625,1.0284998583984375
-0.24379177734375002,0.05497240234375,0.911269189453125
-0.26470220703125,0.1133039013671875,0.81345408203125
-0.2416034765625,0.05129604736328125,0.8063268505859374
-0.15139685546875,-0.01683906494140625,0.83311541015625
-0.07991236328125,0.01698340087890625,0.94125271484375
-0.07359060546875,-0.1352176953125,0.9562444775390625
-0.00891416015625,-0.12222790771484375,1.10837400390625
-0.296554140625,0.00399361328125,1.2845886572265626
-0.3690112109375,0.0182088525390625,1.2049602783203124
-0.32694720703125,0.09051050048828126,1.070525947265625
-0.20051205078125,0.1201664306640625,1.0550426513671876
-0.24865466796875,-0.1386489599609375,0.9975332666015625
-0.35223423828125,-0.2062938916015625,0.901438525390625
-0.31576255859375,-0.1744321484375,0.765283828125
-0.25546271484375,-0.1621776318359375,0.733334169921875
-0.28074974609375003,-0.18938265869140625,0.7247323388671875
-0.18884111328125,-0.12811007568359375,0.81148794921875
-0.164283515625,-0.0999246875,0.9385492822265625
-0.15723232421875,-0.07271966064453125,1.0083469970703125
-0.13972591796875,-0.0455146337890625,1.087729609375
-0.1949197265625,-0.10580685546875,1.1794005517578126
-0.242089765625,0.03168882080078125,1.283851357421875
-0.27685943359375,0.00521906494140625,1.2786902587890625
-0.31722142578125,-0.11438501708984375,1.258291630859375
-0.35855599609375,-0.17222633544921875,1.2194605078125
-0.28585578125,-0.09820905517578125,1.111323203125
-0.2143712890625,-0.1170810107421875,1.0299744580078125
-0.3787369921875,-0.124433720703125,1.1258234326171874
-0.428824765625,-0.10507158447265624,1.0466865869140625
-0.3578265625,-0.12369844970703125,0.94715111328125
-0.19759431640625,-0.134237333984375,0.78396208984375
-0.1210037890625,-0.0906112548828125,0.791335087890625
-0.02520484375,-0.015368522949218751,0.8898874951171875
-0.16185207031249998,0.01600303955078125,1.0661021484375
-0.2357680078125,-0.11732610107421874,1.300563486328125
-0.35417939453125,-0.0200252392578125,1.4679305419921875
-0.4468174609375,0.08119706787109375,1.461786376953125
-0.4798851171875,0.03904153076171875,1.206189111328125
-0.4088869140625,-0.03546593017578125,0.95304951171875
-0.24136033203125,-0.0219859619140625,0.7593854296875
-0.2027003515625,-0.0906112548828125,0.742181767578125
-0.1083602734375,-0.1866866650390625,0.6554261572265625
-0.07966921874999999,-0.20163717529296876,0.718588173828125
-0.050491875000000006,-0.234234189453125,0.9009469921875
-0.018396796875,-0.2474690673828125,1.2079094775390624
-0.0558410546875,-0.3111925537109375,1.3765053662109374
-0.23892888671875,-0.1837455810546875,1.410175390625
-0.43344451171875,-0.03350520751953125,1.210121376953125
-0.2255559375,-0.0082609033203125,0.97271083984375
-0.214857578125,-0.165608896484375,0.929947451171875
-0.242089765625,-0.079337099609375,1.015474228515625
-0.2902323828125,-0.008751083984375,1.080356611328125
-0.26227076171875,0.0123266845703125,0.934862783203125
-0.27783201171875,0.04737460205078125,0.8250051123046875
-0.1093328515625,0.0294830078125,0.824759345703125
-0.06629626953125001,-0.076396015625,0.9316678173828125
-0.08331638671875,-0.175412509765625,1.1017383056640626
-0.1725504296875,-0.16732452880859375,1.1612138232421876
-0.29509527343749997,-0.132276611328125,1.06708521484375
-0.28634207031250003,-0.02615249755859375,0.9282270849609375
-0.3656071875,-0.00850599365234375,0.8778449316406249
-0.4127772265625,-0.02321141357421875,0.8790737646484375
-0.34639876953125,0.01575794921875,0.8417172412109375
-0.26956509765625,0.028257556152343752,0.7989538525390625
-0.22750109375,-0.07173929931640625,0.65223119140625
-0.11589775390625,-0.0680629443359375,0.6699263867187499
-0.044170117187499996,0.04933532470703125,0.8107506494140625
-0.053409609375,-0.069533486328125,0.9881941357421875
-0.19856689453125,-0.0464949951171875,1.2300284716796874
-0.2722396875,-0.03448556884765625,1.2698426611328124
-0.279047734375,-0.0229663232421875,1.0914161083984375
-0.33108066406250003,-0.010711806640625,0.8510563720703125
-0.09693248046875,0.07923634521484375,0.6932742138671875
-0.051950742187499996,-0.0710040283203125,0.7448852001953125
-0.2620276171875,-0.1690401611328125,0.792318154296875
-0.38724705078125,-0.238155634765625,0.859166669921875
-0.38335673828125,-0.217568046875,0.88816712890625
-0.27248283203125,0.00619942626953125,0.9363373828125
-0.125380390625,0.1250682373046875,0.9931094677734374
-0.026420566406250002,0.101049384765625,1.0147369287109376
-0.1375376171875,0.011346323242187501,1.0722463134765625
-0.16063634765625,0.065756376953125,1.1250861328125
-0.23503857421875,-0.068553125,1.0766701123046876
-0.2581373046875,-0.128355166015625,1.13589986328125
-0.2610550390625,-0.1121792041015625,1.288766689453125
-0.28391062499999997,-0.11242429443359375,1.2904870556640624
-0.30360533203125,-0.0915916162109375,1.156052724609375
-0.28172232421875,-0.15752091552734376,0.922574453125
-0.244034921875,-0.0876701708984375,0.8223016796875
-0.14799283203125,-0.04477936279296875,0.783470556640625
-0.27151025390625,-0.03889719482421875,0.8092760498046875
-0.14556138671875,0.0319339111328125,0.8712092333984375
-0.11322316406249999,0.1417343798828125,0.9218371533203125
-0.22385392578125,0.130460224609375,1.027271025390625
-0.10374052734375,0.1113431787109375,1.1395863623046876
-0.18884111328125,0.18315464599609374,1.3020380859375
-0.0762651953125,0.14246965087890626,1.4546591455078124
-0.20683380859375,0.0348749951171875,1.6473401611328125
-0.304334765625,-0.0504164404296875,1.6824847851562499
-0.3660934765625,-0.1200220947265625,1.5062701318359375
-0.3656071875,-0.30187912109375,1.19684998046875
-0.31624884765625,-0.3705044140625,0.9110234228515625
-0.23503857421875,-0.3543284521484375,0.6598499560546875
-0.18884111328125,-0.33300559326171875,0.5116526953125
-0.17862904296875,-0.3288390576171875,0.3870490283203125
-0.15723232421875,-0.2847227978515625,0.3150394140625
-0.11395259765625,-0.253841416015625,0.25753002929687496
-0.1025248046875,-0.25016506103515623,0.4366938818359375
-0.005510136718749999,-0.24183198974609374,0.7502920654296875
-0.005753281249999999,-0.34280920654296876,1.0176861279296876
-0.030067734375000002,-0.455795849609375,1.331530078125
-0.228473671875,-0.43643371337890624,1.3553694384765624
-0.50638787109375,-0.06291604736328126,1.3494710400390626
-0.5469930078125,0.1123235400390625,1.2732833935546874
-0.43149935546875,0.1574201611328125,1.0727378466796875
-0.33278267578125,0.1642826904296875,0.844420673828125
-0.32062544921875,0.1784979296875,0.80952181640625
-0.1920019921875,0.23609415771484374,0.7645465283203124
-0.07845349609375,0.210849853515625,0.8380307421875
-0.06872771484375,0.201046240234375,1.0071181640625
-0.15066742187499998,0.11845079833984375,1.1479424267578124
-0.23139140625,0.06281529296875,1.3357081103515624
-0.206104375,0.15374380615234376,1.49570216796875
-0.15480087890625,0.0427178857421875,1.4168110888671874
-0.27831830078124997,0.099088662109375,1.28532595703125
-0.345183046875,0.04933532470703125,1.156052724609375
-0.39575710937499997,-0.09085634521484375,0.966320908203125
-0.3203823046875,-0.14894275390625,0.798216552734375
-0.3797095703125,-0.15114856689453124,0.744147900390625
-0.30846822265625,-0.19477464599609376,0.6755790185546875
-0.07748091796875001,-0.23006765380859376,0.622247666015625
0.0093216796875,-0.19575500732421874,0.6406801611328125
-0.0310403125,-0.198941181640625,0.6256883984375
-0.06580998046875,-0.18595139404296876,0.6613245556640625
-0.14191421875,-0.08056255126953125,0.6947488134765625
-0.17133470703125,-0.0651218603515625,0.8839890966796875
-0.15164,-0.02860340087890625,0.98450763671875
-0.13340416015625,0.09443194580078125,1.2059433447265624
-0.12659611328125,0.08953013916015624,1.3450472412109375
-0.38724705078125,0.06011929931640625,1.31973328125
-0.45289607421875,0.1142842626953125,1.1676037548828124
-0.4779399609375,0.00865032958984375,0.9442019140625
-0.36293259765625,-0.07051384765625,0.8820229638671875
-0.26761994140625,-0.0886505322265625,0.79575888671875
-0.23795630859375,-0.037916833496093746,0.70728291015625
-0.0305540234375,-0.0347306591796875,0.7050710107421875
-0.02398912109375,-0.1092381201171875,0.78396208984375
-0.006239570312500001,-0.15556019287109374,0.922574453125
-0.05948822265625,-0.26658611328125,1.0982975732421876
-0.14556138671875,-0.1896277490234375,1.16932412109375
-0.16306779296875,-0.06683749267578125,1.1833328173828126
-0.25935302734375,-0.1082577587890625,1.095102607421875
-0.33229638671875,-0.13399224365234375,1.101984072265625
-0.4565432421875,-0.0602200537109375,1.1169758349609376
-0.48766574218750003,0.02360083984375,1.03169482421875
-0.29679728515625,-0.013407800292968751,0.9282270849609375
-0.19613544921875,0.0030132519531249997,0.9808211376953125
-0.2707808203125,0.0142874072265625,0.9913891015625
-0.1939471484375,-0.050661530761718754,0.8672769677734375
-0.09134015625,0.01208159423828125,0.8697346337890625
-0.0918264453125,0.08119706787109375,0.8884128955078126
-0.13340416015625,0.02727719482421875,0.9007012255859375
-0.17084841796875,-0.0229663232421875,0.9105318896484375
-0.0461152734375,-0.11144393310546875,0.9127437890625
-0.07942607421875,-0.2308029248046875,1.2015195458984376
0.0326635546875,-0.2209993115234375,1.3519287060546874
-0.05559791015625,-0.29526168212890624,1.5097108642578125
-0.38505875,-0.3121729150390625,1.4910326025390626
-0.4983641015625,-0.25482177734375,1.0722463134765625
-0.4011062890625,-0.2592334033203125,0.88620099609375
-0.29631099609375,-0.304820205078125,0.808047216796875
-0.13875333984375,-0.30972201171875,0.7689703271484375
0.0229377734375,-0.00850599365234375,0.89603166015625
-0.148722265625,0.0608545703125,0.9056165576171875
-0.3777644140625,0.00717978759765625,0.7239950390625
-0.312115390625,0.0378160791015625,0.61192546875
0.069135234375,-0.08644471923828125,0.6701721533203124
0.08153560546875,-0.07615092529296875,0.8318865771484375
0.047009082031249996,-0.1278649853515625,1.136391396484375
-0.3189234375,-0.09845414550781251,1.27549529296875
-0.5139253515625,-0.1013952294921875,1.1774344189453125
-0.47769681640625,-0.038161923828125,1.0348897900390626
-0.4759948046875,-0.01953505859375,0.9886856689453125
-0.37898013671874997,0.14688127685546876,1.0152284619140626
-0.3233000390625,0.21550656982421876,1.0464408203125
-0.26810623046875,0.221633828125,0.962388642578125
-0.07942607421875,0.019679394531249998,1.0031858984375
-0.01474962890625,-0.030073942871093752,0.9896687353515625
0.0112668359375,-0.010221625976562499,1.032186357421875
0.020506328125,-0.04870080810546875,1.1233657666015624
-0.125380390625,-0.006790361328125,1.1705529541015625
-0.35369310546875,0.0030132519531249997,1.172764853515625
-0.37606240234375,-0.065612041015625,1.079373544921875
-0.39745912109375,-0.052867343750000004,0.888658662109375
-0.33715927734375,0.0123266845703125,0.7768348583984375
-0.16647181640625,-0.05311243408203125,0.6937657470703125
-0.16160892578125,-0.14134495361328125,0.7203085400390625
-0.185680234375,-0.1102184814453125,0.8761245654296875
-0.23017568359375,-0.0612004150390625,1.108865537109375
-0.17036212890625,-0.07443529296875,1.298597353515625
-0.11735662109375,-0.1043363134765625,1.3032669189453125
-0.17765646484375,-0.0009081933593750001,1.18603625
-0.14264365234375,-0.1004148681640625,0.9056165576171875
-0.20732009765625,-0.01291761962890625,0.8692431005859375
-0.24670951171875,0.01257177490234375,0.874895732421875
-0.37946642578125,0.0133070458984375,0.9272440185546875
-0.34056330078125,-0.04281864013671875,0.925032119140625
-0.21364185546875,-0.1200220947265625,0.8254966455078125
-0.17862904296875,-0.07320984130859375,0.838522275390625
-0.168173828125,-0.1229631787109375,0.9061080908203125
-0.26056875,-0.18938265869140625,1.0619241162109374
-0.2435486328125,-0.0768861962890625,1.2605035302734375
-0.14847912109375,-0.08448399658203125,1.2914701220703124
-0.2396583203125,-0.05213207275390625,1.344801474609375
-0.3267040625,0.13854820556640626,1.1209081005859376
-0.39478453125,0.0584036669921875,0.946659580078125
-0.253760703125,0.00619942626953125,0.8778449316406249
-0.1530988671875,-0.060710234375,0.8717007666015625
-0.18057419921875,-0.12933552734375,0.852285205078125
-0.0957167578125,-0.12418863037109375,0.9336339501953125
-0.16404037109375,-0.20604880126953126,0.951574912109375
-0.23601115234375,-0.13325697265625,1.036118623046875
-0.41156150390625,-0.06732767333984375,1.1253318994140624
-0.3787369921875,-0.08497417724609375,1.151137392578125
-0.40086314453125,-0.05752406005859375,1.158018857421875
-0.23212083984375,-0.076396015625,1.097068740234375
-0.081614375,-0.015368522949218751,1.08478041015625
-0.1044699609375,-0.10556176513671875,1.0211268603515624
-0.2464663671875,0.0003172583007812497,0.933879716796875
-0.27880458984375,-0.12124754638671875,0.7896147216796875
-0.2736985546875,-0.128355166015625,0.7515208984375
-0.24670951171875,-0.1317864306640625,0.6932742138671875
-0.076751484375,-0.126394443359375,0.65419732421875
-0.1978374609375,-0.1641383544921875,0.6497735253906249
-0.22701480468750002,-0.21585241455078125,0.6087305029296874
-0.24865466796875,-0.23693018310546876,0.6465785595703125
-0.253760703125,-0.1768830517578125,0.709740576171875
-0.26810623046875,0.09443194580078125,0.796250419921875
-0.20026890625,0.18805645263671875,0.9921264013671875
-0.162338359375,0.1525183544921875,1.2430541015625
-0.2566784375,0.1633023291015625,1.4168110888671874
-0.27272597656249997,0.1985953369140625,1.2924531884765624
-0.2620276171875,0.140263837890625,1.0132623291015626
-0.27880458984375,0.12776423095703124,0.8820229638671875
-0.268349375,0.10374537841796876,0.9621428759765625
-0.42566388671875,-0.126394443359375,1.0039231982421875
-0.2571647265625,-0.108747939453125,0.9405154150390624
-0.15042427734375,0.0652661962890625,0.8537598046875
-0.0597313671875,-0.046004814453125,0.8387680419921875
-0.10763083984374999,-0.05360261474609375,1.0014655322265624
-0.30141703125,7.216796875000007e-05,1.3445557080078125
-0.5703348828125,-0.02664267822265625,1.4610490771484375
-0.5139253515625,-0.014633251953124999,1.245511767578125
-0.40694175781249997,-0.0063001806640625,0.9149556884765625
-0.25084296875,-0.193059013671875,0.6804943505859375
-0.1492085546875,-0.2692821069335937,0.5925099072265625
-0.03906408203125,-0.247959248046875,0.5418819873046875
-0.0159653515625,-0.22908729248046875,0.6264256982421875
-0.06410796875,-0.30751619873046876,0.765775361328125
-0.21193984375,-0.3602106201171875,0.87243806640625
-0.37533296875,-0.2798209912109375,0.8594124365234375
-0.43538966796875,-0.1004148681640625,0.7869112890625
-0.4020788671875,0.0682072802734375,0.8427003076171875
-0.28634207031250003,0.1235976953125,1.0009739990234374
-0.1453182421875,0.11796061767578125,1.11427240234375
-0.21218298828125,0.0858537841796875,1.261240830078125
-0.30141703125,0.0020328906249999995,1.3728188671875
-0.28318119140625,0.019679394531249998,1.487346103515625
-0.4823165625,0.02874773681640625,1.6060513720703125
-0.40937320312500003,-0.029338671875,1.4239383203125
-0.251815546875,-0.095022880859375,1.2555881982421875
-0.2668905078125,-0.010711806640625,1.1690783544921874
-0.24281919921875,-0.11928682373046876,0.9616513427734374
-0.23552486328125,-0.1749223291015625,0.7183424072265625
-0.1754681640625,-0.228352021484375,0.611433935546875
-0.1171134765625,-0.15801109619140624,0.6141373681640625
-0.0772377734375,-0.07713128662109375,0.8176321142578125
-0.2153438671875,-0.17369687744140624,1.1322133642578125
-0.3145468359375,-0.1259042626953125,1.37773419921875
-0.41399294921875,-0.17957904541015626,1.4802188720703124
-0.39818855468750003,-0.008751083984375,1.3268605126953126
-0.370470078125,0.15864561279296874,1.129509931640625
-0.30944080078125,0.15619470947265626,0.9223286865234375
-0.09085386718749999,0.12678386962890625,0.9847534033203125
-0.04295439453125,-0.10213050048828125,1.238630302734375
-0.1988100390625,-0.06242586669921875,1.275003759765625
-0.34810078125,-0.07713128662109375,1.089204208984375
-0.41642439453125,-0.11095375244140625,0.893573994140625
-0.485234296875,-0.13791368896484374,0.8466325732421875
-0.483289140625,-0.224430576171875,0.7161305078125
-0.29363640625,-0.32516270263671876,0.5895607080078125
-0.0451426953125,-0.16046199951171874,0.62765453125
-0.11443888671875,-0.198941181640625,0.596687939453125
-0.06337853515625,-0.1317864306640625,0.7719195263671875
-0.1229489453125,0.021640117187500002,1.0624156494140624
-0.34396732421875,0.0427178857421875,1.3138348828125
-0.292663828125,-0.012427438964843749,1.4718628076171876
-0.3495596484375,0.1182057080078125,1.380191865234375
-0.434660234375,0.18707609130859376,1.1454847607421874
-0.38384302734375,-0.0001729223632812504,0.9547698779296875
-0.29096181640625,-0.0803174609375,0.773148359375
-0.282938046875,-0.10727739746093751,0.60111173828125
-0.13948277343749999,-0.10948321044921874,0.4054815234375
-0.0626491015625,-0.157766005859375,0.346989072265625
-0.004537558593750001,-0.18006922607421874,0.3713199658203125
-0.02787943359375,-0.1847259423828125,0.3831167626953125
-0.014992773437499999,-0.18153976806640626,0.5428650537109375
0.0025136328124999996,-0.015368522949218751,0.638959794921875
-0.0179105078125,0.07090327392578125,0.8392595751953125
-0.2338228515625,0.1221271533203125,1.1621968896484376
-0.0752926171875,0.028502646484374998,1.6694591552734375
0.05187197265625,0.11894097900390625,2.082531370849609
-0.17279357421875,0.481429580078125,2.062931484375
-0.1881116796875,0.4878019287109375,1.6198143017578124
-0.22190876953125,0.38167781494140623,1.3514371728515624
-0.45824525390625,0.2917296630859375,1.1823497509765626
-0.58759814453125,0.13168567626953126,1.0152284619140626
-0.60121423828125,0.0231106591796875,0.6470700927734375
-0.6102105859375,-0.06340622802734375,0.368125
-0.5051721484375,-0.12909043701171874,0.2145208740234375
-0.07991236328125,-0.098944326171875,0.2803863232421875
-0.0237459765625,-0.10409122314453124,0.44406687988281246
0.0608683203125,-0.14379585693359376,0.9127437890625
0.1075520703125,-0.37074950439453125,1.856979072265625
-0.146777109375,-0.7192679565429687,2.129718558349609
-0.63914478515625,-0.5756450219726562,1.684942451171875
-0.57203689453125,-0.3562891748046875,1.127543798828125
-0.42566388671875,-0.2668312036132813,0.9311762841796875
-0.01620849609375,-0.279330810546875,0.6554261572265625
-0.005510136718749999,-0.25457668701171876,0.533771689453125
-0.04003666015625,-0.2445279833984375,0.4937117333984375
-0.1443456640625,-0.21438187255859376,0.3211835791015625
-0.1988100390625,-0.167569619140625,0.310615615234375
-0.252788125,-0.0886505322265625,0.4081849560546875
-0.23941517578125,0.044188427734375,0.5757977783203125
-0.34542619140624997,0.1628121484375,0.969270107421875
-0.473563359375,0.2750635205078125,1.3573355712890625
-0.572766328125,0.4074122998046875,1.7628504638671876
-0.7210844921875,0.4132944677734375,1.8719708349609374
-0.72084134765625,0.41648064208984376,1.6756033203125
-0.54869501953125,0.3348655615234375,1.24993556640625
-0.38724705078125,0.28070059814453124,0.9562444775390625
-0.2566784375,0.3101114379882812,1.009084296875
-0.038091503906250004,0.21256548583984375,1.262223896484375
-0.1375376171875,-0.10703230712890625,1.290732822265625
-0.20634751953125,-0.05458297607421875,1.0378389892578126
-0.21266927734375,-0.00850599365234375,0.828200078125
-0.16793068359375,-0.1043363134765625,0.7026133447265624
-0.2133987109375,-0.1827652197265625,0.7134270751953125
-0.3189234375,-0.139139140625,0.7694618603515625
-0.34810078125,-0.05997496337890625,0.8340984765625
-0.19832375,-0.075415654296875,1.0181776611328126
-0.19175884765625,-0.1729616064453125,1.167849521484375
-0.2707808203125,-0.19869609130859375,1.237155703125
-0.3359435546875,-0.20212735595703124,1.230765771484375
-0.44292714843750003,-0.18521612304687501,1.126560732421875
-0.39259623046875003,-0.21340151123046874,0.9685328076171875
-0.16063634765625,-0.149923115234375,0.922574453125
-0.1540714453125,-0.1180613720703125,0.964354775390625
-0.280992890625,-0.110708662109375,0.8667854345703125
-0.29776986328125,-0.09085634521484375,0.7714279931640625
-0.27296912109375,0.008895419921875,0.7719195263671875
-0.26251390625,-0.01389798095703125,0.7556989306640625
-0.4059691796875,0.06673673828125,0.90193005859375
-0.44171142578125,0.1113431787109375,1.0103131298828125
-0.352963671875,0.05423713134765625,1.213070576171875
-0.4361191015625,0.06060947998046875,1.1695698876953124
-0.3524773828125,-0.029338671875,1.085271943359375
-0.44049570312499997,-0.028113220214843748,0.933879716796875
-0.32548833984375003,-0.120512275390625,0.703842177734375
-0.31430369140625003,-0.15850127685546875,0.651739658203125
-0.2503566796875,-0.17663796142578125,0.6087305029296874
-0.22434021484375,-0.20948006591796875,0.529839423828125
-0.2007551953125,-0.12909043701171874,0.4824064697265625
-0.26859251953125,-0.1121792041015625,0.38090486328125
-0.2620276171875,-0.073454931640625,0.28259822265625
-0.26178447265625,-0.03595611083984375,0.25310623046875
-0.2333365625,0.0035034326171875,0.29636115234375
0.023667207031249998,0.0338946337890625,0.5222206591796875
0.07205296875,0.05717821533203125,0.9881941357421875
0.059166308593749994,0.38118763427734376,1.8513264404296874
-0.6782910546875,0.0142874072265625,2.0921777099609375
-0.57203689453125,-0.1543347412109375,1.6964934814453125
-0.4750222265625,-0.03056412353515625,1.2659103955078126
-0.40864376953125,-0.27835044921875,1.046932353515625
0.0389853125,0.05129604736328125,1.17817171875
-0.03955037109375,-0.12418863037109375,1.34430994140625
-0.36050115234375,-0.2200189501953125,1.1164843017578125
-0.4497351953125,-0.18006922607421874,0.7832247900390625
-0.361716875,-0.2602137646484375,0.633061396484375
-0.237226875,-0.20898988525390624,0.756927763671875
-0.07504947265625,0.0731090869140625,0.965337841796875
-0.25011353515625,0.30030782470703127,1.214053642578125
-0.39502767578125,0.20178151123046875,1.302529619140625
-0.4584883984375,-0.07320984130859375,1.307444951171875
-0.4691867578125,-0.0808076416015625,1.5224907275390624
-0.2766162890625,0.11796061767578125,1.3086737841796876
-0.1667149609375,-0.0239466845703125,1.17718865234375
-0.29144810546875,-0.10213050048828125,1.06118681640625
-0.3991611328125,-0.08619962890625,1.1774344189453125
-0.47648109375000003,0.07629526123046874,1.0879753759765625
-0.52827087890625,-0.028358310546875,0.854251337890625
-0.31673513671875,0.15178308349609376,0.8623616357421875
-0.34104958984375,0.20227169189453126,0.796250419921875
-0.25692158203125,0.2270258154296875,0.7286646044921875
-0.22774423828125,0.063795654296875,0.9734481396484375
-0.2912049609375,-0.091101435546875,1.1086197705078125
-0.4049966015625,-0.104826494140625,1.090187275390625
-0.470645625,-0.07517056396484376,0.943710380859375
-0.44146828125,-0.15899145751953125,0.741198701171875
-0.34883021484375,-0.253841416015625,0.733825703125
-0.18106048828125,-0.2327636474609375,0.854251337890625
-0.24695265625,-0.0161037939453125,0.9994993994140625
-0.299471875,-0.12149263671875,0.959439443359375
-0.259596171875,-0.11291447509765624,0.8476156396484374
-0.2591098828125,-0.170510703125,0.69941837890625
-0.2172890234375,-0.10580685546875,0.722520439453125
-0.23017568359375,-0.081297822265625,0.8313950439453125
-0.174009296875,-0.08938580322265625,0.9272440185546875
-0.2211793359375,-0.14502130859375,1.145238994140625
-0.38578818359375,-0.0641414990234375,1.2393676025390625
-0.61337146484375,-0.0827683642578125,1.1213996337890624
-0.50930560546875,-0.055808427734375,0.9955671337890625
-0.27734572265625,0.05080586669921875,0.935845849609375
-0.24962724609375,0.04124734375,0.97369390625
-0.34056330078125,0.01575794921875,1.1268064990234374
-0.3111428125,0.06600146728515625,1.2037314453125
-0.37022693359375003,0.0515411376953125,1.1892312158203124
-0.17571130859375,0.04492369873046875,1.119187734375
-0.29144810546875,0.0436982470703125,1.0933822412109375
-0.30871136718750003,-0.0866898095703125,1.07298361328125
-0.35758341796875,-0.04306373046875,1.0737209130859375
-0.411318359375,-0.016593974609375,0.9638632421875
-0.43247193359375,-0.1151202880859375,0.96484630859375
-0.403537734375,-0.10458140380859375,0.8771076318359375
-0.33521412109375,-0.02762303955078125,0.7979707861328125
-0.23747001953125,-0.09036616455078125,0.81640328125
-0.2824517578125,-0.0332601171875,0.9852449365234375
-0.43247193359375,-0.08840544189453126,1.02579642578125
-0.39113736328125,-0.07026875732421875,1.0184234277343749
-0.35417939453125,-0.03105430419921875,0.9365831494140625
-0.3009307421875,-0.081297822265625,0.8707177001953125
-0.2425760546875,-0.14722712158203125,0.8019030517578125
-0.19613544921875,-0.1582561865234375,0.7729025927734375
-0.24670951171875,-0.124433720703125,0.7311222705078125
-0.33326896484375,-0.14673694091796874,0.7139186083984375
-0.34348103515625,-0.07370002197265625,0.655180390625
-0.255705859375,-0.0945327001953125,0.576535078125
-0.21315556640625,-0.0935523388671875,0.6136458349609375
-0.25862359375,-0.07370002197265625,0.6239680322265625
-0.25011353515625,-0.0808076416015625,0.7891231884765625
-0.3738741015625,-0.13105115966796876,0.9940925341796875
-0.40864376953125,-0.0964934228515625,1.095594140625
-0.32013916015625,0.00963069091796875,1.15162892578125
-0.288773515625,0.01110123291015625,1.1435186279296874
-0.3738741015625,0.04100225341796875,1.00220283203125
-0.29825615234375,0.05472731201171875,0.8353273095703125
-0.09595990234375,-0.01928996826171875,0.73874103515625
-0.06970029296875,0.11256863037109376,0.9061080908203125
-0.26032560546875,0.055952763671875,0.991880634765625
-0.3656071875,0.015022678222656249,1.1066536376953124
-0.4244481640625,0.0623251123046875,1.0476696533203125
-0.1949197265625,-0.0011532836914062497,0.965337841796875
-0.2435486328125,-0.01193725830078125,1.1317218310546875
-0.3417790234375,-0.013652890625,1.2152824755859375
-0.39867484375,0.036345537109375,1.239613369140625
-0.42663646484375,-0.0121823486328125,1.0383305224609374
-0.2065906640625,-0.014633251953124999,0.8557259375
-0.13194529296875,-0.016593974609375,0.7925639208984375
-0.16209521484375,-0.01291761962890625,0.886692529296875
-0.12440781249999999,0.0152677685546875,0.943710380859375
-0.1929745703125,-0.10580685546875,1.0270252587890625
-0.321841171875,-0.0886505322265625,1.0383305224609374
-0.3699837890625,-0.15899145751953125,0.94321884765625
-0.3145468359375,-0.1337471533203125,0.8333611767578125
-0.28901666015625,-0.09085634521484375,0.841471474609375
-0.27296912109375,0.10815700439453126,0.9547698779296875
-0.382141015625,0.1005592041015625,0.9370746826171875
-0.39454138671875,0.07188363525390624,0.8402426416015625
-0.360744296875,0.04345315673828125,0.7790467578125
-0.21412814453125,-0.10065995849609374,0.7306307373046875
-0.2095083984375,-0.049926259765625,0.802148818359375
-0.190543125,0.0466393310546875,0.8200897802734375
-0.27613,0.0819323388671875,0.8658023681640625
-0.34591248046875,-0.04428918212890625,0.9646005419921875
-0.3242726171875,0.0387964404296875,1.1336879638671875
-0.31746457031249997,0.0946770361328125,1.2487067333984374
-0.30166017578125,0.148106728515625,1.35610673828125
-0.39575710937499997,0.2044775048828125,1.3902682958984376
-0.47866939453125,0.09982393310546875,1.2944193212890625
-0.47186134765625,0.095167216796875,1.193409248046875
-0.4108320703125,0.018699033203125,1.0658563818359374
-0.236254296875,-0.0435539111328125,0.971236240234375
-0.22482650390625,-0.11291447509765624,0.8240220458984375
-0.06872771484375,-0.1352176953125,0.8970147265625
-0.2027003515625,-0.25604722900390625,1.0422627880859374
-0.3203823046875,-0.22908729248046875,1.15162892578125
-0.38043900390625,-0.21732295654296874,1.17325638671875
-0.3670660546875,-0.24697888671875,1.095102607421875
-0.40183572265625,-0.1268846240234375,1.0031858984375
-0.36220316406249997,-0.19232374267578126,0.8254966455078125
-0.26518849609375,-0.06242586669921875,0.8019030517578125
-0.28415376953125,-0.0955130615234375,0.793301220703125
-0.2873146484375,-0.1200220947265625,0.917167587890625
-0.2333365625,-0.11144393310546875,0.871455
-0.2561921484375,-0.11634573974609375,0.7942842871093749
-0.263486484375,-0.114630107421875,0.7227662060546876
-0.2056180859375,-0.1964902783203125,0.688113115234375
-0.0927990234375,-0.110708662109375,0.8127167822265625
-0.25400384765625,-0.17908886474609376,0.994829833984375
-0.3301080859375,-0.1347275146484375,1.0700344140625
-0.1929745703125,-0.09869923583984375,1.0582376171875
-0.2980130078125,0.00668960693359375,1.0304659912109375
-0.27029453125,0.0329142724609375,1.014491162109375
-0.2104809765625,0.0544822216796875,1.1051790380859374
-0.26761994140625,0.1280093212890625,1.2981058203125
-0.25157240234375,0.09982393310546875,1.292207421875
-0.21193984375,0.07090327392578125,1.1892312158203124
-0.2960678515625,0.11256863037109376,1.070525947265625
-0.36098744140625,0.1157548046875,0.9228202197265625
-0.27005138671875,0.08560869384765625,0.8780906982421874
-0.27151025390625,0.0270321044921875,0.8756330322265625
-0.25449013671875,-0.07713128662109375,0.962388642578125
-0.22531279296875,-0.12663953369140624,1.0353813232421876
-0.17692703125,-0.0567887890625,1.1302472314453125
-0.2007551953125,-0.16879507080078124,1.2339607373046875
-0.2056180859375,-0.10556176513671875,1.422463720703125
-0.3656071875,0.02090484619140625,1.4512184130859376
-0.47915568359375,-0.0229663232421875,1.3263689794921876
-0.424934453125,0.0012976196289062499,1.2015195458984376
-0.41812640624999997,0.03217900146484375,1.1449932275390624
-0.37606240234375,-0.00360418701171875,0.9503460791015625
-0.31333111328125,-0.16438344482421874,0.74267330078125
-0.1754681640625,-0.23349891845703125,0.6333071630859375
-0.15723232421875,-0.2209993115234375,0.52836482421875
-0.0587587890625,-0.169530341796875,0.564246748046875
-0.06483740234375,-0.20800952392578126,0.7291561376953125
-0.14969484375,-0.34035830322265626,1.0395593554687501
-0.42809533203125,-0.353838271484375,1.1730106201171875
-0.572766328125,-0.25702759033203126,1.159984990234375
-0.47283392578125,0.00570924560546875,1.1366371630859375
-0.2805066015625,0.08511851318359374,1.056763017578125
-0.33181009765625,0.1025199267578125,0.991880634765625
-0.237226875,0.04345315673828125,0.7886316552734375
-0.10106593750000001,-0.02713285888671875,0.72104583984375
-0.16647181640625,0.03610044677734375,0.8633447021484375
-0.19564916015625,0.00325834228515625,1.0604495166015624
-0.20342978515625,-0.17075579345703126,1.280410625
-0.282938046875,0.02923791748046875,1.4040312255859375
-0.37703498046875,0.12580350830078124,1.235681103515625
-0.41204779296875,0.0897752294921875,1.118696201171875
-0.35199109375,0.08242251953125,1.132459130859375
-0.4225030078125,0.12874459228515625,1.2079094775390624
-0.349073359375,0.09149086181640625,1.127543798828125
-0.220693046875,0.0025230712890624996,0.9677955078125
-0.152612578125,-0.03203466552734375,0.9196252539062499
-0.10179537109375,-0.12271808837890624,0.8417172412109375
-0.22288134765625,-0.21144078857421875,0.8348357763671875
-0.25108611328125,-0.2629097583007812,0.761843095703125
-0.23747001953125,-0.23545964111328124,0.725469638671875
-0.1530988671875,-0.1901179296875,0.7163762744140625
-0.12635296875,-0.10580685546875,0.7409529345703125
-0.1530988671875,-0.089140712890625,0.7537327978515624
-0.23649744140625,-0.02517213623046875,0.8569547705078124
-0.2722396875,0.03953171142578125,1.037101689453125
-0.3339983984375,0.08266760986328126,1.1617053564453126
-0.38821962890625,0.1672237744140625,1.1789090185546875
-0.28853037109375,0.1711452197265625,1.0171945947265626
-0.18397822265625,0.065756376953125,0.88226873046875
-0.16914640625,-0.03399538818359375,0.7552073974609375
-0.185680234375,0.02972809814453125,0.707774443359375
-0.11468203125,-0.05874951171875,0.6873758154296875
-0.12416466796875,0.0172284912109375,0.770690693359375
-0.148722265625,0.069677822265625,0.8082929833984375
-0.2484115234375,0.023845930175781252,0.729401904296875
-0.22579908203125,0.07531489990234375,0.7035964111328125
-0.220693046875,0.11403917236328125,0.7463597998046875
-0.2873146484375,0.1574201611328125,0.817877880859375
-0.28609892578125,0.177517568359375,0.920116787109375
-0.352963671875,0.19786006591796876,1.0422627880859374
-0.3456693359375,0.09198104248046875,0.9129895556640625
-0.10763083984374999,0.124578056640625,0.9070911572265625
-0.18227621093750002,0.167713955078125,0.9233117529296875
-0.20197091796875,-0.012427438964843749,0.93437125
-0.22750109375,-0.02370159423828125,1.048898486328125
-0.18057419921875,-0.02664267822265625,0.9886856689453125
-0.16306779296875,-0.012672529296875,0.8957858935546875
-0.18227621093750002,-0.11095375244140625,0.854251337890625
-0.24719580078125,-0.07026875732421875,0.927981318359375
-0.26154132812499997,-0.09183670654296874,0.9965502001953125
-0.252788125,-0.046249904785156254,1.16244265625
-0.2416034765625,-0.0724745703125,1.1604765234375
-0.3291355078125,-0.01046671630859375,1.150154326171875
-0.1783858984375,-0.01683906494140625,1.0206353271484374
-0.25108611328125,-0.06781785400390625,1.0412797216796874
-0.2255559375,0.00325834228515625,1.1683410546875
-0.3466419140625,-0.04134809814453125,1.2521474658203124
-0.3106565234375,-0.073454931640625,1.29319048828125
-0.27734572265625,-0.13987441162109376,1.1877566162109374
-0.15164,-0.09134652587890625,1.0958399072265625
-0.2211793359375,-0.17369687744140624,0.97074470703125
-0.221665625,-0.128355166015625,0.9036504248046875
-0.27272597656249997,-0.12026718505859375,0.895540126953125
-0.36755234375,-0.14918784423828124,0.9911433349609375
-0.3291355078125,-0.0798272802734375,1.0584833837890626
-0.37533296875,-0.025662316894531252,1.043000087890625
-0.36487775390625,-0.0602200537109375,0.899472392578125
-0.38676076171875,-0.0474753564453125,0.7522581982421875
-0.3106565234375,-0.1161006494140625,0.6529684912109375
-0.18300564453125,-0.16193254150390626,0.6102051025390625
-0.162338359375,-0.1116890234375,0.7399698681640625
-0.1161408984375,-0.13325697265625,0.91569298828125
-0.25108611328125,-0.17075579345703126,1.1272980322265624
-0.3855450390625,-0.13693332763671875,1.2332234375
-0.33910443359375,-0.12811007568359375,1.2194605078125
-0.356853984375,-0.04477936279296875,1.288766689453125
-0.3641483203125,0.07457962890625,1.2113502099609375
-0.2717533984375,0.083402880859375,1.1597392236328126
-0.22677166015625,0.124578056640625,1.1762055859375
-0.232363984375,0.07188363525390624,1.202256845703125
-0.23990146484375,0.04982550537109375,1.1762055859375
-0.3242726171875,0.04124734375,1.2187232080078125
-0.33983386718749997,0.0069346972656249995,1.13196759765625
-0.386031328125,-0.02272123291015625,1.064136015625
-0.3281629296875,-0.06487677001953125,1.01989802734375
-0.28196546875,-0.07075893798828126,0.953541044921875
-0.21753216796875,-0.0513968017578125,0.9842618701171875
-0.2878009375,0.05717821533203125,0.94518498046875
-0.2766162890625,-0.030073942871093752,0.8576920703124999
-0.24938410156250002,-0.059484782714843754,0.839505341796875
-0.265431640625,-0.07664110595703125,0.9198710205078124
-0.29874244140625,-0.04919098876953125,1.0280083251953125
-0.23917203125,-0.10703230712890625,1.003677431640625
-0.257651015625,-0.14281549560546875,1.0235845263671874
-0.34493990234375,-0.0749254736328125,1.04152548828125
-0.26664736328125,-0.09575815185546875,0.994829833984375
-0.189570546875,0.02360083984375,1.0973145068359376
-0.20877896484375,0.00521906494140625,1.1538408251953125
-0.2980130078125,-0.0055649096679687505,1.1390948291015626
-0.2386857421875,-0.02664267822265625,1.0044147314453125
-0.2785614453125,-0.08423890625,0.8365561425781249
-0.27540056640625,-0.1298257080078125,0.7389868017578125
-0.22288134765625,-0.22222476318359374,0.6716467529296875
-0.26640421875,-0.1847259423828125,0.6745959521484375
-0.25084296875,-0.1376685986328125,0.6583753564453125
-0.1744955859375,-0.008996174316406251,0.66599412109375
-0.15723232421875,0.0780108935546875,0.74070716796875
-0.19808060546875,0.06600146728515625,0.9046334912109375
-0.25935302734375,0.1348718505859375,1.1253318994140624
-0.25059982421875,0.23928033203125,1.2017653125
-0.18251935546875,0.174576484375,1.2049602783203124
-0.3189234375,0.07678544189453125,1.1604765234375
-0.35661083984374997,0.15227326416015624,1.0447204541015624
-0.3592854296875,0.02482629150390625,0.871455
-0.2766162890625,0.062080021972656246,0.755944697265625
-0.23406599609375,-0.02272123291015625,0.6947488134765625
-0.25108611328125,-0.0651218603515625,0.59128107421875
-0.22628537109375,-0.13007079833984375,0.5096865625
-0.07748091796875001,-0.11561046875,0.4887964013671875
-0.07991236328125,-0.09036616455078125,0.552941484375
-0.181789921875,-0.08938580322265625,0.6677144873046875
-0.22093619140625,-0.077376376953125,0.7925639208984375
-0.25594900390624997,-0.073454931640625,0.8893959619140624
-0.24233291015625,-0.020515419921875,0.9021758251953125
-0.15674603515625,0.01747358154296875,0.9245405859375
-0.25546271484375,-0.0006631030273437505,1.009575830078125
-0.214857578125,-0.02027032958984375,0.99827056640625
-0.137051328125,-0.067572763671875,0.98843990234375
-0.158448046875,0.0037485229492187503,1.0702801806640625
-0.2022140625,0.08805959716796875,1.077407412109375
-0.28804408203125,0.0917359521484375,1.09264494140625
-0.31478998046875,0.1182057080078125,1.1427813281249999
-0.37363095703125,0.177517568359375,1.119679267578125
-0.41204779296875,0.1392834765625,1.049881552734375
-0.2172890234375,0.011346323242187501,0.92945591796875
-0.17327986328125,0.080461796875,0.9198710205078124
-0.252788125,-0.0396324658203125,0.862115869140625
-0.28391062499999997,-0.01561361328125,0.87243806640625
-0.25692158203125,-0.02272123291015625,0.8839890966796875
-0.28974609375,0.022620478515625,0.972219306640625
-0.34226531250000003,0.03266918212890625,1.0936280078125
-0.28585578125,0.03021827880859375,1.120662333984375
-0.2853694921875,0.008895419921875,1.11230626953125
-0.195406015625,-0.030073942871093752,1.004660498046875
-0.3145468359375,-0.006790361328125,0.9815584374999999
-0.304334765625,0.06281529296875,0.9191337207031249
-0.304334765625,0.009140510253906251,0.9179048876953125
-0.29290697265625,0.033404453125,1.0771616455078126
-0.37654869140625,-0.08301345458984374,1.137374462890625
-0.31430369140625003,-0.12320826904296875,1.162934189453125
-0.1715778515625,-0.0180645166015625,1.1705529541015625
-0.2416034765625,-0.15899145751953125,1.1218911669921874
-0.25983931640625,-0.161687451171875,1.00220283203125
-0.35806970703125,-0.17222633544921875,0.828200078125
-0.2552195703125,-0.21928367919921876,0.6704179199218749
-0.1336473046875,-0.23521455078125,0.622247666015625
-0.10082279296875,-0.2528610546875,0.70138451171875
-0.019369375,-0.25212578369140626,0.887675595703125
-0.1667149609375,-0.2406065380859375,1.17522251953125
-0.36244630859375,-0.15261910888671876,1.2954023876953125
-0.40329458984375,-0.0415931884765625,1.25976623046875
-0.376305546875,0.12090170166015625,1.1759598193359375
-0.3583128515625,0.18830154296875,1.0181776611328126
-0.21947732421875,0.12727405029296876,0.9400238818359374
-0.11103486328125,-0.01561361328125,0.9193794873046874
-0.05316646484375,-0.0582593310546875,0.9213456201171875
-0.14556138671875,-0.1710008837890625,0.8761245654296875
-0.1433730859375,-0.130315888671875,0.9677955078125
-0.25886673828125,-0.10213050048828125,1.1189419677734376
-0.33472783203125,-0.09845414550781251,1.256325498046875
-0.4122909375,-0.040122646484374996,1.233714970703125
-0.47575166015625,0.00816014892578125,1.1213996337890624
-0.43174250000000003,0.03659062744140625,0.9324051171875
-0.3417790234375,-0.05605351806640625,0.7846993896484376
-0.18300564453125,-0.0063001806640625,0.6303579638671875
-0.05997451171875,-0.00850599365234375,0.6013575048828125
-0.038577792968749997,-0.01438816162109375,0.7463597998046875
-0.14312994140625,-0.0906112548828125,0.91569298828125
-0.3495596484375,-0.1955099169921875,1.0402966552734374
-0.3106565234375,-0.16854998046875,1.0299744580078125
-0.201241484375,-0.114630107421875,0.9636174755859375
-0.1851939453125,0.01992448486328125,0.95698177734375
-0.29169125,-0.044044091796875,0.9857364697265625
-0.17960162109375,-0.08448399658203125,1.0044147314453125
-0.24087404296875,-0.05556333740234375,1.00810123046875
-0.23917203125,-0.04919098876953125,1.032186357421875
-0.16525609375,-0.02958376220703125,1.0122792626953125
-0.1151683203125,0.0348749951171875,1.0348897900390626
-0.1375376171875,0.106931552734375,1.1341794970703125
-0.20488865234375,0.087324326171875,1.1676037548828124
-0.24695265625,-0.045024453125,1.082322744140625
-0.2785614453125,0.042227705078125,0.9614055761718749
-0.20197091796875,-0.00360418701171875,0.8220559130859375
-0.07699462890625,-0.02468195556640625,0.7699533935546875
-0.16185207031249998,-0.03644629150390625,0.8451579736328125
-0.21753216796875,-0.01193725830078125,0.9105318896484375
-0.2688356640625,0.02360083984375,0.9454307470703125
-0.31138595703125,0.05080586669921875,0.9287186181640625
-0.26227076171875,0.008895419921875,0.965337841796875
-0.1997826171875,0.02090484619140625,0.9518206787109375
-0.12343523437500001,-0.023456503906250002,0.9174133544921875
-0.20780638671875,-0.04698517578125,1.031203291015625
-0.28634207031250003,-0.140119501953125,1.06315294921875
-0.232363984375,-0.1210024560546875,0.9670582080078125
-0.14361623046875,-0.0778665576171875,0.8490902392578125
-0.12829812499999999,-0.09281706787109376,0.81345408203125
-0.13145900390625,-0.15678564453125,0.8235305126953125
-0.11638404296875,-0.06781785400390625,0.90193005859375
-0.28415376953125,-0.03105430419921875,1.0481611865234375
-0.30846822265625,-0.029338671875,1.127052265625
-0.37338781249999997,0.0201695751953125,1.0923991748046875
-0.39867484375,0.01649322021484375,0.954524111328125
-0.25108611328125,-0.05360261474609375,0.902421591796875
-0.004780703125000001,-0.03203466552734375,0.8849721630859375
-0.13194529296875,-0.049926259765625,0.915201455078125
-0.1871391015625,0.083402880859375,0.95894791015625
-0.28172232421875,0.052031318359375,0.9120064892578125
-0.36487775390625,-0.01561361328125,0.876861865234375
-0.31041337890625,0.1231075146484375,0.911269189453125
-0.3242726171875,0.1427147412109375,0.84097994140625
-0.2411171875,0.12090170166015625,0.6686975537109375
-0.1414279296875,0.040266982421875,0.61684080078125
-0.1560166015625,0.009140510253906251,0.686146982421875
-0.20488865234375,-0.01732924560546875,0.773148359375
-0.2668905078125,0.09737302978515625,0.9360916162109375
-0.31089966796875,0.12433296630859375,1.1425355615234376
-0.2960678515625,0.09149086181640625,1.2211808740234376
-0.20975154296875,0.1235976953125,1.2192147412109375
-0.252788125,0.187321181640625,1.219952041015625
-0.17182099609375,0.0731090869140625,1.088221142578125
-0.2357680078125,0.0280124658203125,1.07101748046875
-0.26275705078125,0.01110123291015625,1.0444746875
-0.36974064453125,-0.10948321044921874,0.9390408154296875
-0.1676875390625,-0.189137568359375,0.783470556640625
-0.06410796875,-0.1406096826171875,0.7082659765625
0.01491400390625,-0.100905048828125,0.7738856591796874
-0.0030786914062500004,-0.1430605859375,1.013508095703125
-0.174009296875,-0.19183356201171875,1.3401319091796875
-0.366579765625,-0.19918627197265626,1.4168110888671874
-0.42760904296875,-0.11364974609375,1.237647236328125
-0.34834392578125,-0.08056255126953125,1.00220283203125
-0.205131796875,-0.0680629443359375,0.8871840625
-0.197351171875,0.0358553564453125,0.88620099609375
-0.16136578125,-0.0411030078125,0.8775991650390624
-0.19273142578125,-0.13325697265625,0.8567090039062499
-0.1788721875,-0.07075893798828126,0.8869382958984375
-0.19175884765625,-0.06879821533203125,0.946168046875
-0.17327986328125,-0.059484782714843754,0.9985163330078125
-0.2124261328125,-0.04870080810546875,1.127052265625
-0.29679728515625,-0.0641414990234375,1.1720275537109375
-0.296554140625,-0.14722712158203125,1.158018857421875
-0.2800203125,-0.08938580322265625,1.160968056640625
-0.31722142578125,-0.03129939453125,1.1130435693359375
-0.333512109375,-0.10703230712890625,1.0189149609375
-0.2970404296875,-0.03938737548828125,0.936828916015625
-0.29825615234375,-0.08301345458984374,0.89406552734375
-0.21461443359375,-0.106787216796875,0.87047193359375
-0.22823052734375,-0.08693489990234375,0.9356000830078125
-0.18835482421875,-0.09085634521484375,0.9798380712890625
-0.17425244140625,-0.06389640869140625,1.0444746875
-0.19516287109375,0.01845394287109375,1.0948568408203125
-0.22579908203125,-0.04183827880859375,1.04349162109375
-0.26081189453125,-0.0513968017578125,1.113780869140625
-0.3388612890625,-0.0347306591796875,1.1661291552734374
-0.370470078125,-0.10972830078125,1.0697886474609375
-0.23139140625,-0.0631611376953125,1.05233921875
-0.20051205078125,-0.12124754638671875,1.069542880859375
-0.15042427734375,-0.061690595703125004,1.065610615234375
-0.33108066406250003,-0.01781942626953125,0.9857364697265625
-0.3019033203125,-0.108747939453125,0.8810398974609375
-0.22531279296875,-0.05605351806640625,0.797233486328125
-0.061190234375,0.02580665283203125,0.8476156396484374
-0.162338359375,0.01796376220703125,0.96877857421875
-0.21996361328125,-0.138158779296875,0.9356000830078125
-0.1774133203125,-0.008996174316406251,0.804114951171875
-0.177899609375,-0.040122646484374996,0.6809858837890626
-0.06410796875,-0.03105430419921875,0.724486572265625
-0.13486302734375,0.06355056396484375,0.845403740234375
-0.23552486328125,-0.0011532836914062497,0.9262609521484375
-0.15042427734375,-0.075415654296875,0.9680412744140625
-0.21364185546875,0.10472573974609375,1.0196522607421874
-0.1793584765625,0.10668646240234375,0.9537868115234375
-0.1647698046875,-0.01291761962890625,0.90586232421875
-0.224583359375,0.12335260498046875,0.9503460791015625
-0.222638203125,0.1270289599609375,0.9272440185546875
-0.20488865234375,0.10178465576171875,0.918150654296875
-0.14896541015625,0.11894097900390625,0.9070911572265625
-0.224583359375,0.1240878759765625,0.9097945898437501
-0.1200312109375,0.103010107421875,0.8780906982421874
-0.2075632421875,0.05497240234375,0.7930554541015625
-0.1851939453125,0.044188427734375,0.7468513330078125
-0.214857578125,0.00766996826171875,0.749554765625
-0.2299325390625,-0.0347306591796875,0.832623876953125
-0.23455228515625,0.00619942626953125,0.892590927734375
-0.14993798828125,-0.076396015625,0.894557060546875
-0.15188314453125001,-0.0009081933593750001,0.9046334912109375
-0.20926525390625,0.0123266845703125,0.93535431640625
-0.179844765625,-0.0016434643554687498,1.0560257177734376
-0.27491427734375,0.0809519775390625,1.1076367041015625
-0.2523018359375,-0.01585870361328125,1.069542880859375
-0.158448046875,0.093206494140625,1.08478041015625
-0.199296328125,-0.10580685546875,0.9650920751953125
-0.111764296875,-0.0023787353515625003,0.893573994140625
-0.0777240625,-0.02223105224609375,0.8736668994140625
-0.237226875,0.0133070458984375,1.02383029296875
-0.28026345703125,0.00619942626953125,1.0727378466796875
-0.31624884765625,0.02776737548828125,1.06020375
-0.2338228515625,0.0780108935546875,0.9867195361328125
-0.24914095703125,-0.0121823486328125,0.9552614111328125
-0.1205175,0.097127939453125,1.06511908203125
-0.24573693359375,0.1348718505859375,1.102967138671875
-0.3033621875,0.1079119140625,1.20078224609375
-0.3670660546875,0.1103628173828125,1.1096028369140625
-0.2552195703125,0.1035002880859375,0.9724650732421874
-0.19856689453125,0.112813720703125,0.92945591796875
-0.18081734375,0.0387964404296875,0.9007012255859375
-0.1210037890625,-0.06634731201171876,0.955507177734375
-0.22750109375,-0.06193568603515625,1.0240760595703124
-0.2075632421875,0.00472888427734375,1.1081282373046875
-0.218747890625,-0.09232688720703125,1.1897227490234374
-0.36244630859375,-0.08448399658203125,1.1880023828125
-0.30871136718750003,-0.00703545166015625,1.0039231982421875
-0.29776986328125,-0.10507158447265624,0.8333611767578125
-0.13389044921874999,-0.05458297607421875,0.7861739892578125
-0.060460800781250004,-0.100905048828125,0.7930554541015625
-0.07577890625,-0.18938265869140625,0.844420673828125
-0.17327986328125,-0.20408807861328124,0.9331424169921875
-0.16720125,-0.14771730224609375,0.9498545458984375
-0.1949197265625,-0.046004814453125,0.9405154150390624
-0.210967265625,-0.01169216796875,0.9532952783203125
-0.1355924609375,-0.01291761962890625,0.9815584374999999
-0.28853037109375,-0.1013952294921875,1.0417712548828124
-0.18592337890625,-0.02860340087890625,1.0987891064453126
-0.2722396875,-0.1337471533203125,1.0501273193359375
-0.22239505859375,-0.0494360791015625,1.0314490576171875
-0.18227621093750002,0.05497240234375,1.105916337890625
-0.3641483203125,-0.046740085449218746,1.1253318994140624
-0.3038484765625,0.0201695751953125,1.0417712548828124
-0.21607330078125,-0.01095689697265625,0.89209939453125
-0.10665826171875001,0.063795654296875,0.832623876953125
-0.14361623046875,0.124578056640625,0.8422087744140625
-0.20732009765625,0.13511694091796875,0.8377849755859375
-0.14118478515625,0.07188363525390624,0.84786140625
-0.156502890625,0.12482314697265626,0.9196252539062499
-0.14799283203125,0.13658748291015624,1.0943653076171875
-0.3048210546875,0.033404453125,1.134425263671875
-0.44268400390625,-0.01781942626953125,0.9913891015625
-0.2367405859375,0.02139502685546875,0.7593854296875
-0.12319208984375,0.0191892138671875,0.7630719287109375
-0.19637859375,0.036345537109375,0.8318865771484375
-0.2104809765625,-0.0219859619140625,0.87637033203125
-0.23698373046875,0.0069346972656249995,0.99040603515625
-0.20877896484375,-0.00262382568359375,0.916184521484375
-0.24038775390625,0.04835496337890625,0.8933282275390625
-0.040279804687500004,-0.01487834228515625,0.924049052734375
-0.0986344921875,0.0446786083984375,1.0044147314453125
-0.11930177734375,0.0059543359375,1.0560257177734376
-0.25643529296875,-0.053847705078125,1.0633987158203124
-0.27053767578125,0.07433453857421875,1.046932353515625
-0.2464663671875,0.0451687890625,0.84687833984375
-0.1861665234375,0.0319339111328125,0.8402426416015625
-0.1744955859375,0.1505576318359375,0.9277355517578125
-0.1569891796875,0.06011929931640625,1.0294829248046875
-0.31284482421875,0.0289928271484375,1.087729609375
-0.1978374609375,0.09198104248046875,1.0722463134765625
-0.21801845703125,-0.025662316894531252,0.9542783447265625
-0.22677166015625,0.0231106591796875,0.946168046875
-0.19346085937500002,0.13266603759765624,0.88620099609375
-0.12465095703125,0.00717978759765625,0.7488174658203125
-0.07942607421875,-0.0719843896484375,0.7871570556640625
-0.112736875,0.1113431787109375,0.865065068359375
-0.1788721875,0.16599832275390625,0.98450763671875
-0.22482650390625,-0.0053198193359375,1.0058893310546875
-0.25497642578125,0.04712951171875,0.978117705078125
-0.2464663671875,0.08756941650390625,0.8574463037109374
-0.197351171875,0.013552136230468751,0.8097675830078125
-0.19175884765625,0.09835339111328124,0.8923451611328125
-0.143859375,0.02727719482421875,0.979100771484375
-0.175954453125,0.0760501708984375,1.1046875048828124
-0.35612455078125,0.1133039013671875,1.0358728564453126
-0.31576255859375,0.10913736572265625,0.854251337890625
-0.0704297265625,0.07457962890625,0.7153932080078125
-0.06799828125,0.148106728515625,0.79379275390625
-0.15674603515625,-0.0170841552734375,0.86653966796875
-0.2552195703125,-0.08619962890625,0.954032578125
-0.22968939453125,-0.07762146728515625,0.93928658203125
-0.27199654296875,-0.08987598388671875,0.8309035107421875
-0.142886796875,-0.00752563232421875,0.89799779296875
-0.16914640625,0.03266918212890625,1.0727378466796875
-0.253760703125,0.09198104248046875,1.2403506689453125
-0.31697828125,-0.03350520751953125,1.196358447265625
-0.18981369140625,-0.01830960693359375,0.9788550048828125
-0.142886796875,0.10987263671875,0.8200897802734375
-0.16598552734375,0.09933375244140626,0.7719195263671875
-0.16063634765625,0.07923634521484375,0.9267524853515625
-0.20391607421875,0.134381669921875,1.161951123046875
-0.292663828125,0.16109651611328124,1.1970957470703125
-0.224583359375,0.150067451171875,1.1331964306640625
-0.30020130859375,0.083402880859375,1.0174403613281249
-0.25546271484375,0.126538779296875,0.9414984814453125
-0.30409162109375,0.03659062744140625,0.8746499658203125
-0.1628246484375,-0.06585713134765625,0.854251337890625
-0.131215859375,-0.06193568603515625,0.8854636962890625
-0.13875333984375,0.026296833496093748,0.9795923046875
-0.27053767578125,0.05889384765625,1.0334151904296875
-0.29193439453125003,-0.034240478515625,1.1513831591796875
-0.16112263671875,0.00668960693359375,1.2216724072265626
-0.244034921875,-0.0229663232421875,1.1290183984375
-0.24865466796875,-0.0013983740234375002,0.9788550048828125
-0.296554140625,0.04541387939453125,0.87440419921875
-0.29922873046875,-0.01732924560546875,0.738249501953125
-0.25084296875,-0.16144236083984376,0.7139186083984375
-0.15820490234375,-0.22222476318359374,0.589806474609375
-0.127325546875,-0.13252170166015625,0.6116797021484375
-0.06848457031249999,-0.09869923583984375,0.6524769580078125
-0.06848457031249999,-0.1249239013671875,0.828200078125
-0.1628246484375,-0.149923115234375,1.0688055810546875
-0.32013916015625,-0.05654369873046875,1.2629611962890626
-0.34202216796875,0.0829127001953125,1.3234197802734375
-0.26907880859375,0.11649007568359375,1.1336879638671875
-0.31235853515625,0.11011772705078125,0.9931094677734374
-0.17522501953125,0.04320806640625,0.94518498046875
-0.13680818359375,0.01306195556640625,1.0179318945312499
-0.0879361328125,-0.0082609033203125,1.1828412841796876
-0.22142248046875002,-0.02958376220703125,1.300071953125
-0.4079143359375,-0.012672529296875,1.3099026171875
-0.49763466796875,-0.02174087158203125,0.996795966796875
-0.35101851562499997,0.0451687890625,0.746114033203125
-0.13607875,0.08021670654296875,0.6215103662109375
0.014427714843749998,0.06992291259765625,0.70335064453125
-0.016451640625,0.02874773681640625,0.8458952734375
-0.09523046875,-0.0759058349609375,1.1361456298828125
-0.23163455078125,-0.1582561865234375,1.3327589111328124
-0.38870591796875,-0.167569619140625,1.3037584521484376
-0.27783201171875,-0.12909043701171874,1.0068723974609375
-0.2649453515625,-0.20114699462890626,0.8087845166015625
-0.159420625,-0.116590830078125,0.7945300537109374
-0.1978374609375,-0.200901904296875,0.86850580078125
-0.1015522265625,-0.22761675048828126,0.8849721630859375
-0.12270580078125,-0.0960032421875,0.8633447021484375
-0.27151025390625,-0.153844560546875,0.8687515673828125
-0.2065906640625,-0.12124754638671875,0.8065726171875
-0.1988100390625,-0.08644471923828125,0.86653966796875
-0.21121041015625,-0.12663953369140624,0.8682600341796876
-0.16501294921875,-0.035711020507812496,0.833606943359375
-0.2532744140625,-0.1602169091796875,0.8431918408203125
-0.23139140625,-0.0631611376953125,0.969761640625
-0.2260422265625,-0.0210056005859375,0.9744312060546875
-0.28658521484375,0.01306195556640625,0.976151572265625
-0.282938046875,0.0544822216796875,0.9872110693359375
-0.35101851562499997,0.07776580322265625,1.0031858984375
-0.27637314453125,0.16452778076171876,1.02186416015625
-0.23601115234375,0.1829095556640625,1.084288876953125
-0.19127255859375,-0.0038492773437499997,1.1454847607421874
-0.034930625,-0.081297822265625,1.100017939453125
-0.0568136328125,-0.13399224365234375,0.974185439453125
-0.04878986328125,-0.12124754638671875,0.93535431640625
-0.21899103515625,-0.10507158447265624,0.89504859375
-0.43587595703125,-0.08350363525390625,0.8984893261718749
-0.37144265625,-0.1553151025390625,0.9414984814453125
-0.14945169921875,-0.1298257080078125,0.952557978515625
-0.22677166015625,0.122617333984375,1.05725455078125
-0.218747890625,0.0883046875,1.086255009765625
-0.23941517578125,-0.0254172265625,1.091170341796875
-0.2805066015625,-0.10948321044921874,0.985982236328125
-0.12221951171875,-0.10164031982421876,0.9719735400390626
-0.12027435546875,-0.16732452880859375,0.85867513671875
-0.09401474609375,-0.09624833251953124,0.9252778857421875
-0.24695265625,-0.16830489013671876,1.0373474560546876
-0.32111173828125,-0.15752091552734376,1.0363643896484376
-0.24379177734375002,-0.11585555908203125,0.8495817724609375
-0.13194529296875,-0.21242114990234376,0.8599039697265625
-0.1608794921875,-0.00703545166015625,0.892590927734375
-0.22239505859375,-0.12712971435546874,0.968287041015625
-0.09255587890625,0.00472888427734375,1.1041959716796874
-0.40523974609375,-0.06267095703125,1.134425263671875
-0.3592854296875,0.0250713818359375,1.014491162109375
-0.2620276171875,0.00791505859375,0.8834975634765625
-0.21899103515625,-0.1523740185546875,0.9552614111328125
-0.21169669921875,-0.18644157470703124,0.99433830078125
-0.041495527343750005,-0.13693332763671875,0.9670582080078125
-0.22190876953125,-0.12026718505859375,1.00220283203125
-0.27151025390625,-0.1974706396484375,0.93142205078125
-0.1710915625,-0.1352176953125,0.796250419921875
-0.19953947265625,0.08903995849609375,0.9183964208984375
-0.1399690625,0.08242251953125,1.0196522607421874
-0.25886673828125,-0.03105430419921875,1.2329776708984375
-0.3670660546875,-0.0710040283203125,1.2806563916015625
-0.27685943359375,0.00570924560546875,1.06708521484375
-0.212912421875,-0.08546435791015625,0.8815314306640625
-0.1346198828125,-0.191098291015625,0.8365561425781249
-0.16015005859375,-0.18448085205078124,0.9395323486328125
-0.29339326171875,-0.2528610546875,0.897506259765625
-0.34007701171875,-0.217568046875,0.7129355419921874
-0.11468203125,-0.12320826904296875,0.54212775390625
0.02463978515625,-0.0474753564453125,0.554416083984375
0.04992681640625,-0.0562986083984375,0.5949675732421875
-0.057056777343750004,-0.11364974609375,0.754961630859375
-0.29582470703125,-0.142080224609375,0.7613515625
-0.2649453515625,-0.22222476318359374,0.8603955029296875
-0.2411171875,-0.19207865234375,1.129509931640625
-0.1093328515625,-0.0960032421875,1.1538408251953125
-0.04100923828125,-0.098944326171875,1.3401319091796875
-0.15528716796875,0.053992041015625,1.4148449560546874
-0.4059691796875,-0.11536537841796875,1.2123332763671875
-0.259596171875,-0.1273748046875,1.0329236572265625
-0.224583359375,-0.028113220214843748,0.9009469921875
-0.2513292578125,0.046149150390625,0.90193005859375
-0.22093619140625,-0.1288453466796875,0.8156659814453124
0.02463978515625,0.02041466552734375,0.88620099609375
-0.015479062500000002,-0.0960032421875,0.9193794873046874
-0.20026890625,-0.11977700439453125,1.002694365234375
-0.19953947265625,-0.19771572998046874,1.0329236572265625
-0.14191421875,-0.19869609130859375,1.09264494140625
