ax,ay,az
-0.10033650390625,-0.032279755859375,1.0395593554687501
-0.13510617187500001,0.0373258984375,0.97271083984375
-0.207076953125,0.0917359521484375,0.9282270849609375
-0.0932853125,0.1152646240234375,0.84884447265625
-0.09644619140624999,0.22383964111328125,1.085271943359375
0.0540602734375,0.16599832275390625,1.151137392578125
-0.1005796484375,0.00963069091796875,1.357581337890625
-0.1920019921875,-0.11732610107421874,1.403785458984375
-0.20099833984375,-0.34378956787109377,1.171781787109375
-0.1988100390625,-0.2717330102539062,0.7807671240234375
-0.24038775390625,-0.19428446533203125,0.657638056640625
-0.07602205078125,-0.2540865063476562,0.6220018994140625
0.016616015625,-0.12124754638671875,0.9891772021484375
-0.277102578125,0.09051050048828126,1.1769428857421875
-0.22579908203125,-0.032279755859375,1.0088385302734375
0.04068732421875,-0.061690595703125004,0.863098935546875
0.1323528125,-0.0210056005859375,0.650756591796875
0.0530876953125,0.12580350830078124,0.7999369189453125
-0.02058509765625,0.18707609130859376,1.357581337890625
-0.31722142578125,-0.0016434643554687498,1.944471982421875
-0.40037685546875,-0.01978014892578125,1.7933255224609375
-0.29387955078125,-0.07835673828125,1.25976623046875
-0.2143712890625,-0.12075736572265625,0.6033236376953125
-0.11152115234375,0.026051743164062502,0.5192714599609375
0.10195974609375,-0.04281864013671875,0.6947488134765625
0.12043873046875,-0.18350049072265626,1.093136474609375
-0.04878986328125,-0.0788469189453125,1.5337959912109376
-0.4458448828125,-0.0670825830078125,1.530601025390625
-0.1978374609375,-0.16634416748046876,0.7257154052734375
0.10633634765625,-0.17173615478515625,0.451194111328125
0.11314439453125,-0.17663796142578125,0.577026611328125
0.14572576171875,-0.06928839599609375,1.0147369287109376
-0.030067734375000002,0.06355056396484375,1.3991158935546875
-0.27734572265625,-0.202862626953125,1.3593017041015625
-0.189570546875,-0.004829638671875,0.8446664404296875
-0.21558701171875,0.04443351806640625,0.5974252392578125
-0.05632734375,-0.08644471923828125,0.4003204248046875
-0.03031087890625,-0.23153819580078125,0.4696266064453125
-0.07310431640625001,-0.1822750390625,0.95108337890625
0.05284455078125,-0.140119501953125,0.7827332568359375
0.063299765625,-0.18938265869140625,0.881777197265625
0.14961607421875,-0.044534272460937496,1.1848074169921876
0.11411697265625,-0.1357078759765625,1.4782527392578124
-0.3106565234375,0.0740894482421875,1.6827305517578126
-0.439523125,0.1838899169921875,1.2391218359375
-0.36220316406249997,0.049090234375,0.84687833984375
-0.42590703125,-0.0425735498046875,0.5330343896484375
-0.290718671875,-0.1690401611328125,0.4529144775390625
0.1464551953125,-0.071494208984375,0.5802215771484375
0.15642412109375,-0.04870080810546875,0.7802755908203125
0.23155578125,-0.07811164794921875,1.2550966650390625
-0.30263275390625,-0.03056412353515625,1.6694591552734375
-0.6145871875,0.0015427099609375003,1.605314072265625
-0.2931501171875,0.24834867431640625,1.027271025390625
0.053573984374999994,0.1348718505859375,0.888658662109375
0.14402375,0.11771552734375,1.14671359375
-0.07650833984375,-0.05997496337890625,1.0717547802734375
-0.1788721875,-0.15359947021484374,1.0771616455078126
0.04846794921875,-0.29771258544921875,1.0884669091796875
-0.3349709765625,-0.14869766357421876,1.070525947265625
-0.46991619140625,-0.07909200927734375,1.0683140478515625
-0.325731484375,-0.10188541015625,0.88030259765625
-0.17279357421875,-0.09673851318359375,0.804606484375
0.0443344921875,-0.2170778662109375,0.6927826806640625
-0.054868476562500004,0.06894255126953125,0.701876044921875
0.006403945312499999,0.03610044677734375,0.73677490234375
0.0856690625,-0.0406128271484375,0.6318325634765625
0.02172205078125,-0.0808076416015625,0.9356000830078125
0.144996328125,0.02090484619140625,1.251410166015625
-0.16136578125,-0.0386521044921875,1.3239113134765625
-0.25400384765625,-0.22369530517578126,1.372327333984375
-0.10544253906250001,-0.10164031982421876,1.0334151904296875
-0.30919765625,-0.08742508056640624,1.0530765185546875
-0.370470078125,-0.17026561279296876,0.9641090087890625
-0.32451576171875,-0.21781313720703124,0.6436293603515625
-0.22823052734375,-0.16291290283203125,0.30963254882812496
-0.032012890625,-0.18031431640625,0.333226142578125
0.1201955859375,-0.12124754638671875,0.547534619140625
0.17514625,-0.0803174609375,1.016457294921875
0.14596890625,-0.0562986083984375,1.6856797509765624
-0.29752671875000003,-0.02860340087890625,1.8429703759765625
-0.4721044921875,0.0633054736328125,1.4322943847656249
-0.17182099609375,0.022620478515625,1.14179826171875
-0.20634751953125,-0.0006631030273437505,1.028254091796875
0.104148046875,0.1721255810546875,1.147205126953125
-0.1414279296875,-0.03595611083984375,1.238630302734375
-0.14312994140625,-0.19403937500000001,1.1813666845703126
-0.26032560546875,-0.1317864306640625,0.9675497412109375
-0.063135390625,-0.15114856689453124,0.7908435546875
0.125544765625,0.01257177490234375,0.874895732421875
0.08372390625000001,0.20325205322265624,1.4219721875
-0.05073501953125,0.095167216796875,1.625958466796875
-0.25011353515625,-0.030319033203124998,1.69723078125
-0.16720125,-0.11364974609375,1.421480654296875
-0.34785763671875003,-0.2516356030273437,0.971236240234375
-0.16355408203125,-0.28153662353515624,0.65911265625
0.00980796875,-0.228352021484375,0.6492819921874999
0.08980251953125,-0.24477307373046875,0.9257694189453125
0.06427234375,-0.33447613525390624,1.2457575341796876
0.02318091796875,-0.3925625439453125,1.6438994287109374
-0.4750222265625,0.08511851318359374,1.5568980517578126
-0.09085386718749999,0.21354584716796876,0.992863701171875
0.13794513671875,0.0740894482421875,0.70629984375
0.0248829296875,0.15423398681640624,0.64338359375
-0.24768208984375,-0.03301502685546875,0.5391785546875
-0.076751484375,-0.13889405029296875,0.4526687109375
0.13065080078125,-0.1587463671875,0.926998251953125
0.20262158203125,-0.195019736328125,1.38363259765625
-0.0363894921875,-0.45873693359375,1.71590904296875
-0.2581373046875,-0.45506057861328125,1.455887978515625
-0.3281629296875,-0.15752091552734376,0.9105318896484375
-0.29363640625,-0.0876701708984375,0.8697346337890625
-0.33132380859375,-0.08693489990234375,0.8572005371093749
-0.214857578125,0.09026541015625,0.707774443359375
0.01491400390625,0.1770273876953125,0.7321053369140624
0.047981660156249994,0.17776265869140626,0.695977646484375
0.12724677734375,0.19687970458984375,0.8869382958984375
0.16469103515625,0.079481435546875,1.40526005859375
0.22012798828125,0.00472888427734375,1.7810371923828126
-0.07748091796875001,0.19835024658203124,1.937590517578125
-0.5586639453125,0.2015364208984375,1.6768321533203125
-0.4721044921875,0.01747358154296875,1.0761785791015626
-0.3155194140625,-0.063651318359375,0.875387265625
-0.3952708203125,-0.1866866650390625,0.6495277587890624
-0.14191421875,-0.2925656884765625,0.56572134765625
0.12384275390624999,-0.11389483642578124,0.5824334765625
0.02804380859375,-0.18938265869140625,0.6745959521484375
-0.017181074218750002,-0.24673379638671875,0.838522275390625
-0.28804408203125,-0.2906049658203125,1.0761785791015626
-0.0509781640625,-0.1670794384765625,0.9717277734375
0.1211681640625,-0.1876670263671875,1.0275167919921875
0.15885556640625,-0.1935491943359375,1.1250861328125
0.21575138671875,-0.122472998046875,1.1454847607421874
-0.0140201953125,0.09737302978515625,1.3013007861328125
-0.3111428125,0.0731090869140625,1.2442829345703126
-0.245980078125,0.13609730224609376,1.1877566162109374
-0.07991236328125,0.18756627197265624,1.245020234375
-0.3437241796875,0.1927131689453125,1.1784174853515625
-0.34421046875,-0.05556333740234375,0.933879716796875
-0.05559791015625,-0.15948163818359376,0.9680412744140625
0.09855572265625,-0.234234189453125,0.9245405859375
-0.23747001953125,-0.108747939453125,0.6510023583984375
-0.189570546875,-0.16462853515625,0.49592363281249996
0.01540029296875,-0.1396293212890625,0.348955205078125
0.09904201171875,-0.118551552734375,0.625196865234375
0.18924863281249998,-0.07468038330078125,1.1282810986328125
0.29963625,-0.089140712890625,1.824537880859375
-0.27394169921875,-0.46976599853515627,1.90662392578125
-0.4507077734375,-0.14918784423828124,1.1553154248046875
-0.28415376953125,0.10521592041015625,0.8078014501953125
-0.10860341796875,0.20398732421875,0.66402798828125
0.13210966796875,0.0976181201171875,0.997779033203125
0.028286953125,0.25079957763671873,1.2840971240234376
-0.3787369921875,-0.1288453466796875,1.12803533203125
-0.21266927734375,-0.2827620751953125,0.788385888671875
-0.057056777343750004,-0.20506843994140625,0.5649840478515625
0.05868001953125,-0.10164031982421876,0.503296630859375
0.11265810546874999,-0.107767578125,0.7611057958984375
0.14037658203125,-0.1533543798828125,1.1607222900390626
0.13891771484374998,-0.155805283203125,1.3656916357421875
-0.1472633984375,-0.092081796875,1.1297556982421875
-0.27783201171875,-0.1219828173828125,0.8839890966796875
-0.23114826171875,-0.15261910888671876,0.912252255859375
-0.14021220703125,0.0887948681640625,1.016457294921875
-0.2882872265625,0.20080114990234374,1.23027423828125
-0.07407689453124999,0.07457962890625,1.307936484375
0.170283359375,0.0020328906249999995,1.403785458984375
0.14815720703125,0.12139188232421876,1.5792628125000001
0.06597435546875,0.13756784423828125,1.83780927734375
-0.4623787109375,0.0037485229492187503,1.5460843212890625
-0.4040240234375,-0.04723026611328125,1.0103131298828125
-0.23503857421875,-0.112669384765625,0.6564092236328125
0.04263248046875,-0.1406096826171875,0.377464130859375
0.13065080078125,-0.06928839599609375,0.4253886181640625
0.19289580078125,-0.0337502978515625,0.548517685546875
0.21283365234375,0.00472888427734375,0.9218371533203125
-0.17692703125,-0.00997653564453125,1.386090263671875
-0.422989296875,-0.2562923193359375,1.417548388671875
-0.24306234375,-0.2756544555664063,1.5421520556640624
-0.121490078125,0.20962440185546874,1.0884669091796875
-0.08477525390625,0.24712322265625,0.88620099609375
-0.23163455078125,0.14933218017578126,0.9139726220703125
-0.25400384765625,-0.04036773681640625,0.6210188330078125
0.026341796875,-0.1043363134765625,0.34035337402343746
0.104148046875,-0.07517056396484376,0.3501840380859375
0.1231133203125,-0.06291604736328126,0.558348349609375
0.17879341796875,-0.07271966064453125,0.6952403466796875
0.17441681640625,-0.0759058349609375,1.2570627978515625
-0.03298546875,-0.23300873779296874,1.27549529296875
0.05649171875,-0.06659240234375,1.378225732421875
-0.109819140625,0.14295983154296876,1.6817474853515626
-0.080641796875,0.155949619140625,1.4689136083984375
-0.31041337890625,-0.00360418701171875,1.2457575341796876
-0.14847912109375,0.0456589697265625,1.1489254931640625
-0.13510617187500001,0.06404074462890624,0.9110234228515625
-0.2357680078125,0.0574233056640625,1.0201437939453124
-0.0879361328125,-0.03889719482421875,0.755944697265625
0.20043328124999998,-0.046740085449218746,0.7198170068359375
0.14475318359375,-0.067572763671875,0.800182685546875
0.16687933593749998,0.00963069091796875,0.8815314306640625
0.1688244921875,0.01747358154296875,1.2133163427734375
-0.009643593750000002,-0.0464949951171875,1.4256586865234375
-0.35904228515625003,-0.014633251953124999,1.3371827099609375
-0.38870591796875,-0.0994345068359375,0.980083837890625
-0.20732009765625,-0.11095375244140625,0.669434853515625
0.0078628125,-0.15654055419921875,0.4538975439453125
0.13113708984375,-0.1190417333984375,0.631586796875
0.115818984375,-0.048455717773437504,0.9670582080078125
-0.2396583203125,0.16060633544921876,1.4079634912109376
-0.4759948046875,0.04198261474609375,1.4993886669921874
-0.195406015625,0.04982550537109375,1.1518746923828125
-0.012561328125,0.1593808837890625,0.7930554541015625
0.07229611328125,0.11452935302734375,0.824759345703125
-0.2065906640625,-0.20997024658203126,0.9685328076171875
-0.3787369921875,-0.14134495361328125,0.7778179248046875
-0.21412814453125,-0.17761832275390624,0.5920183740234375
0.02269462890625,-0.12541408203125,0.3899982275390625
0.13818828125,-0.07860182861328124,0.6047982373046875
0.0032430664062499982,0.17482157470703125,1.0592206835937499
-0.27053767578125,0.29442565673828125,1.5765593798828126
-0.3602580078125,0.38854034423828127,1.9260394873046875
-0.3466419140625,0.1476165478515625,2.0218884619140627
-0.294608984375,0.0843832421875,1.5994156738281249
-0.23649744140625,0.1162449853515625,1.323665546875
-0.1744955859375,-0.22712656982421875,0.9763973388671875
-0.15334201171875,-0.21168587890625,0.65812958984375
-0.11079171875,-0.16977543212890625,0.42342248535156246
-0.04878986328125,-0.13399224365234375,0.2307414697265625
-0.0025924023437500013,-0.1259042626953125,0.282106689453125
0.049683671875,-0.107767578125,0.6534600244140625
0.13843142578125,-0.13105115966796876,1.046932353515625
0.08299447265625,-0.049926259765625,1.518804228515625
-0.18981369140625,-0.0808076416015625,1.90269166015625
-0.52729830078125,-0.05262225341796875,1.4261502197265625
-0.377278125,0.138303115234375,0.9498545458984375
-0.255705859375,0.0012976196289062499,0.5568737500000001
-0.0577862109375,-0.163648173828125,0.35706550292968753
0.03485185546875,-0.1523740185546875,0.3015222509765625
0.074970703125,-0.11389483642578124,0.300784951171875
0.12676048828125,-0.071494208984375,0.604552470703125
0.14402375,0.0525214990234375,1.0860092431640624
-0.121490078125,0.06747200927734374,1.768503095703125
-0.33910443359375,0.0103659619140625,1.8867168310546876
-0.452166640625,0.13658748291015624,1.5566522851562499
-0.4108320703125,0.1878113623046875,1.031203291015625
-0.2279873828125,0.17482157470703125,0.7232577392578124
-0.11322316406249999,0.10178465576171875,0.5369666552734375
-0.08307324218750001,0.1387932958984375,0.5470430859375
0.043118769531250004,0.00423870361328125,0.6492819921874999
0.01005111328125,-0.07124911865234375,0.819844013671875
0.07083724609375,-0.08889562255859375,1.1447474609375
-0.011588750000000002,-0.06291604736328126,1.572872880859375
-0.16452666015625,-0.06634731201171876,1.6316110986328125
-0.154557734375,-0.0268877685546875,1.4310655517578126
-0.28853037109375,0.10178465576171875,1.1140266357421875
-0.2834243359375,0.0486000537109375,0.8048522509765625
-0.16525609375,0.07261890625,0.8259881787109375
-0.19832375,-0.1190417333984375,0.7571735302734375
-0.129270703125,0.11403917236328125,0.9518206787109375
-0.11857234375,0.13511694091796875,1.052830751953125
-0.10374052734375,0.09737302978515625,1.2084010107421874
0.022451484375,0.19614443359375,1.374785
0.006403945312499999,0.19982078857421876,1.450972646484375
0.029259531249999998,0.26893626220703126,1.23813876953125
-0.11249373046875,0.13854820556640626,1.3013007861328125
-0.30166017578125,-0.02149578125,1.438192783203125
-0.47769681640625,-0.1935491943359375,1.31186875
-0.34542619140624997,-0.2278618408203125,1.0501273193359375
-0.30360533203125,-0.22320512451171876,0.8299204443359375
-0.26640421875,-0.17516741943359376,0.6178238671875
-0.1725504296875,-0.1298257080078125,0.3914728271484375
0.07253925781250001,-0.0023787353515625003,0.6623076220703125
-0.0006472460937500014,0.12874459228515625,0.9498545458984375
-0.0636216796875,-0.028113220214843748,1.2408422021484375
-0.016451640625,-0.20065681396484375,1.529617958984375
-0.32402947265625,-0.2631548486328125,1.7188582421875
-0.59100216796875,-0.0406128271484375,1.314326416015625
-0.44851947265625003,-0.0308092138671875,0.918150654296875
-0.37898013671874997,-0.0837487255859375,0.7665126611328125
-0.23747001953125,-0.195019736328125,0.456109443359375
-0.13437673828125,-0.21830331787109375,0.40326962402343747
-0.117599765625,-0.1474722119140625,0.346006005859375
-0.082586953125,-0.16340308349609375,0.2651487939453125
-0.08185751953125,0.0123266845703125,0.5408989208984375
-0.17084841796875,0.177517568359375,0.8638362353515625
-0.37168580078125,0.230457080078125,1.3730646337890624
-0.46164927734375,0.187321181640625,1.602364873046875
-0.34299474609375,0.1534987158203125,1.6094921044921875
-0.107873984375,0.21599675048828126,1.2157740087890625
-0.05657048828125,0.2348687060546875,0.9714820068359376
-0.2882872265625,0.143204921875,0.6256883984375
-0.28026345703125,0.0373258984375,0.5202545263671875
-0.21801845703125,-0.0945327001953125,0.515093427734375
-0.195406015625,0.0037485229492187503,0.5077204296875
-0.019369375,-0.07443529296875,0.5047712304687499
0.043605058593749996,0.019434304199218752,0.6613245556640625
-0.06143337890625,0.089285048828125,0.9493630126953125
-0.33108066406250003,0.0495804150390625,1.300563486328125
-0.470645625,0.2701617138671875,1.68051865234375
-0.01961251953125,0.0451687890625,0.5455684863281249
-0.06629626953125001,-0.0710040283203125,0.600128671875
-0.0607039453125,-0.19134338134765624,0.6106966357421875
-0.14896541015625,-0.2111956982421875,0.916184521484375
-0.41423609375,-0.12663953369140624,1.075441279296875
-0.41034578125,-0.1979608203125,1.118696201171875
-0.044899550781250006,-0.1665892578125,0.9704989404296875
-0.16306779296875,-0.0200252392578125,1.0589749169921876
-0.1453182421875,0.130460224609375,1.177680185546875
-0.1788721875,-0.02321141357421875,1.0565172509765626
-0.10179537109375,0.114774443359375,1.0506188525390625
-0.23990146484375,7.216796875000007e-05,1.095594140625
-0.1881116796875,-0.1273748046875,1.2391218359375
-0.32646091796875,-0.1121792041015625,1.4286078857421876
-0.46870046875,-0.07811164794921875,1.1459762939453124
-0.2707808203125,-0.14183513427734376,1.03562708984375
-0.24573693359375,-0.14820748291015626,1.020389560546875
-0.2153438671875,-0.1710008837890625,1.0579918505859376
-0.045872128906250004,-0.23938108642578126,0.8028861181640625
0.0657312109375,-0.1744321484375,0.8107506494140625
0.07667271484375,-0.126394443359375,0.925032119140625
0.0049450781249999985,-0.0960032421875,1.2054518115234374
-0.1988100390625,0.0564429443359375,1.636772197265625
-0.3797095703125,0.1348718505859375,1.699688447265625
-0.45775896484375,0.23854506103515624,1.693298515625
-0.35320681640625,0.25128975830078126,1.606297138671875
-0.45313921875,0.04124734375,1.4177941552734374
-0.31989601562500003,-0.028358310546875,0.9459222802734375
-0.18203306640625,-0.14477621826171874,0.5890691748046875
-0.2022140625,-0.20114699462890626,0.4067103564453125
-0.0305540234375,-0.18521612304687501,0.327327744140625
0.03874216796875,-0.1337471533203125,0.518042626953125
0.1075520703125,-0.11242429443359375,0.76036849609375
-0.1939471484375,0.07776580322265625,1.09657720703125
-0.294608984375,-0.0210056005859375,1.1961126806640625
-0.38481560546875,-0.00581,1.1366371630859375
-0.33375525390625,0.1319307666015625,1.01006736328125
-0.1239215234375,0.1863408203125,0.94715111328125
-0.174009296875,0.23021198974609375,0.886692529296875
-0.315033125,0.1397736572265625,0.81148794921875
-0.34834392578125,0.07776580322265625,0.687130048828125
-0.277102578125,-0.05213207275390625,0.6382224951171875
-0.0811280859375,-0.09796396484375,0.5418819873046875
-0.16258150390625,0.0299731884765625,0.5114069287109375
-0.1103054296875,0.06943273193359376,0.434973515625
0.01880431640625,-0.069533486328125,0.52639869140625
-0.14629082031250001,-0.17516741943359376,0.714655908203125
-0.3096839453125,-0.12149263671875,0.7908435546875
-0.20415921875,-0.02370159423828125,0.7026133447265624
-0.12829812499999999,0.06502110595703126,0.881777197265625
-0.1710915625,0.06404074462890624,1.0481611865234375
-0.3096839453125,0.10668646240234375,0.974185439453125
-0.2192341796875,0.0515411376953125,0.9670582080078125
-0.28658521484375,-0.00654527099609375,0.8392595751953125
-0.1997826171875,-0.06389640869140625,0.5792385107421875
0.04263248046875,-0.098944326171875,0.6603414892578126
-0.0431975390625,-0.16879507080078124,0.8254966455078125
-0.32451576171875,-0.1111988427734375,0.90586232421875
-0.00842787109375,-0.048455717773437504,0.699909912109375
0.0997714453125,-0.057769150390625,0.7419360009765625
0.007133378906249998,0.04639424072265625,0.957473310546875
-0.12635296875,0.077520712890625,1.033169423828125
-0.2435486328125,0.05668803466796875,1.1671122216796874
-0.25449013671875,-0.05164189208984375,1.15949345703125
-0.2989855859375,0.0191892138671875,1.032186357421875
-0.05073501953125,0.00619942626953125,1.0904330419921875
-0.27053767578125,0.01306195556640625,1.295648154296875
-0.304334765625,0.10570610107421875,1.2157740087890625
-0.24379177734375002,-0.14036459228515624,0.964354775390625
-0.13875333984375,-0.07173929931640625,0.710232109375
-0.05316646484375,-0.08987598388671875,0.5234494921875
-0.1005796484375,0.03462990478515625,0.5595771826171875
0.010780546874999998,-0.1180613720703125,0.705808310546875
0.025612363281249998,-0.083258544921875,1.1400778955078126
-0.2649453515625,-0.0582593310546875,1.5834408447265624
-0.28634207031250003,-0.10654212646484375,1.3873190966796876
-0.314060546875,-0.04281864013671875,1.13983212890625
-0.407428046875,-0.049926259765625,0.86359046875
-0.18592337890625,-0.195019736328125,0.6564092236328125
-0.14264365234375,-0.2254109375,0.833606943359375
-0.1287844140625,-0.212666240234375,0.81935248046875
-0.2153438671875,-0.1886473876953125,0.8289373779296875
-0.07991236328125,-0.220509130859375,0.7942842871093749
-0.129270703125,-0.25114542236328125,0.8372934423828124
-0.18786853515625002,-0.098944326171875,0.872929599609375
-0.11322316406249999,0.1466361865234375,1.014491162109375
-0.13632189453125,0.24246650634765626,1.019406494140625
-0.12246265625,0.15276344482421875,1.0516019189453125
-0.19127255859375,0.2787398754882813,1.161951123046875
-0.08720669921875,0.19050735595703125,0.94125271484375
-0.17765646484375,-0.01585870361328125,1.2332234375
-0.18446451171875,-0.1092381201171875,1.182595517578125
-0.38457246093749997,-0.1665892578125,0.9650920751953125
-0.21947732421875,-0.26487048095703125,0.8223016796875
-0.1511537109375,-0.319525625,0.730384970703125
-0.115654609375,-0.25874322265625,0.59717947265625
-0.1968648828125,-0.26143921630859374,0.6254426318359375
-0.09450103515625,-0.22320512451171876,0.3265904443359375
0.006647089843749999,-0.1670794384765625,0.33568380859375
0.1124149609375,-0.11144393310546875,0.60504400390625
0.1600712890625,-0.087179990234375,0.9149556884765625
0.12189759765625,-0.13742350830078126,1.212087509765625
-0.21655958984375,-0.0582593310546875,1.3293181787109374
-0.46845732421874997,-0.1268846240234375,1.3506998730468749
-0.392839375,0.09884357177734375,1.2993346533203125
-0.42566388671875,-0.33398595458984376,0.954032578125
-0.1492085546875,-0.32614306396484377,0.7910893212890625
-0.19953947265625,-0.232273466796875,0.7522581982421875
-0.2085358203125,-0.20751934326171875,0.427108984375
-0.09936392578125,-0.15850127685546875,0.3678792333984375
0.0034862109374999978,-0.1509034765625,0.36124353515624996
0.0676763671875,-0.06267095703125,0.374514931640625
-0.0295814453125,0.06060947998046875,0.6414174609375
-0.0072121484375,0.1054610107421875,0.9717277734375
-0.01766736328125,0.0172284912109375,1.4099296240234376
-0.3057936328125,-0.22026404052734375,1.8682843359375
-0.3252451953125,0.10374537841796876,2.0086170654296875
-0.633066171875,0.06600146728515625,1.7328669384765625
-0.59586505859375,-0.07222947998046875,1.209138310546875
-0.52292169921875,-0.124433720703125,0.93535431640625
-0.4011062890625,-0.15654055419921875,0.763809228515625
-0.2766162890625,-0.24869451904296874,0.7738856591796874
-0.09450103515625,-0.03595611083984375,0.8183694140625
0.012239414062499999,-0.05409279541015625,0.9609140429687499
-0.08817927734375,-0.2668312036132813,1.3140806494140624
-0.27613,-0.46241328857421876,1.4246756201171875
-0.247925234375,-0.43986497802734376,1.5706609814453125
-0.1827625,0.083402880859375,1.466701708984375
-0.13048642578125,-0.08007237060546875,1.07691587890625
-0.18349193359375,-0.2604588549804687,1.3878106298828126
-0.407428046875,-0.15457983154296875,1.81618181640625
-0.6690515625,-0.2935460498046875,1.5293721923828125
-0.53070232421875,-0.25653740966796873,1.1415524951171876
-0.413263515625,-0.15556019287109374,0.8343442431640625
-0.3106565234375,-0.149923115234375,0.558348349609375
-0.25886673828125,-0.11144393310546875,0.4637282080078125
-0.039307226562500006,0.0338946337890625,0.543602353515625
0.0433619140625,0.1123235400390625,0.5568737500000001
0.10876779296875,0.0427178857421875,0.7222746728515625
0.09709685546874999,-0.11879664306640625,0.8136998486328125
0.02147890625,-0.228352021484375,0.850319072265625
-0.0801555078125,-0.34035830322265626,1.076424345703125
-0.16695810546875,-0.38741564697265624,1.1887396826171874
-0.10082279296875,-0.43912970703125,1.1427813281249999
-0.28196546875,-0.4633936499023438,1.33841154296875
-0.42323244140625,-0.37957275634765625,1.1268064990234374
-0.356853984375,-0.31486890869140627,0.781504423828125
-0.177899609375,-0.3111925537109375,0.6220018994140625
-0.05997451171875,-0.10458140380859375,0.6357648291015625
-0.01620849609375,0.0008074389648437498,0.58046734375
-0.0529233203125,0.10178465576171875,0.6485446923828125
-0.12319208984375,0.19344843994140626,0.77609755859375
-0.20099833984375,0.18266446533203126,0.7443936669921875
-0.18349193359375,-0.09575815185546875,0.5118984619140625
0.0467659375,-0.17712814208984376,0.7404614013671875
0.0754569921875,-0.32932923828125,1.103950205078125
-0.06848457031249999,-0.46927581787109374,1.415582255859375
-0.26518849609375,-0.49378485107421877,1.3878106298828126
-0.40134943359374997,-0.4481980493164063,1.26566462890625
-0.10544253906250001,-0.28349734619140626,0.9936010009765625
-0.3126016796875,-0.2033528076171875,1.2017653125
-0.09985021484375001,-0.0013983740234375002,1.2646815625
0.086641640625,-0.0023787353515625003,1.2285538720703124
0.02123576171875,-0.03546593017578125,1.405751591796875
0.056978007812499995,-0.024436865234375,1.4964394677734374
-0.08137123046875,-0.15163874755859374,1.52421109375
-0.392839375,-0.153844560546875,1.3506998730468749
-0.28220861328125,-0.12149263671875,1.166866455078125
-0.14993798828125,-0.21291133056640624,1.2781987255859375
0.02853009765625,-0.15457983154296875,1.417548388671875
-0.10203851562499999,-0.2528610546875,1.4079634912109376
-0.15139685546875,-0.2259011181640625,1.4561337451171874
-0.17473873046875,-0.15310928955078124,1.2705799609375
-0.18495080078125,-0.03497574951171875,1.1469593603515624
-0.22531279296875,-0.1484525732421875,1.4069804248046875
-0.30311904296875003,-0.122472998046875,1.4826765380859375
-0.18446451171875,-0.0866898095703125,1.391005595703125
-0.22823052734375,0.00399361328125,1.35610673828125
-0.22774423828125,-0.20506843994140625,1.1386032958984376
-0.1949197265625,-0.0028689160156250004,0.971236240234375
-0.2620276171875,-0.03203466552734375,0.822793212890625
-0.205131796875,-0.122472998046875,0.6981895458984375
-0.2163164453125,0.052031318359375,0.812962548828125
-0.1492085546875,-0.01095689697265625,0.761843095703125
-0.36682291015625,-0.14036459228515624,0.7414444677734375
-0.2581373046875,-0.155805283203125,0.7335799365234374
-0.20342978515625,0.0329142724609375,0.9385492822265625
-0.15966376953125,-0.1729616064453125,1.145238994140625
-0.29290697265625,-0.1729616064453125,1.3406234423828125
-0.17960162109375,-0.1827652197265625,1.2646815625
-0.28853037109375,-0.1955099169921875,0.9360916162109375
-0.10860341796875,-0.09281706787109376,0.782487490234375
-0.23357970703125,-0.14722712158203125,0.883251796875
-0.1346198828125,-0.15703073486328126,0.946168046875
-0.2566784375,-0.11928682373046876,0.958456376953125
-0.1866528125,0.0054641552734375,0.8254966455078125
-0.2328502734375,-0.181294677734375,0.7200627734375
-0.24281919921875,-0.02076051025390625,0.6834435498046875
-0.16306779296875,-0.03350520751953125,0.655180390625
-0.18835482421875,-0.15212892822265625,0.5880861083984374
-0.1005796484375,-0.01879978759765625,0.6898334814453125
-0.1258666796875,-0.122472998046875,0.8328696435546875
0.00227048828125,-0.11536537841796875,1.034152490234375
0.03776958984375,-0.11438501708984375,1.2777071923828125
-0.07504947265625,-0.1317864306640625,1.395920927734375
-0.12246265625,-0.10458140380859375,1.3912513623046876
-0.12124693359375,-0.03987755615234375,1.1440101611328124
-0.35028908203125,-0.15065838623046876,0.917167587890625
-0.247925234375,-0.095022880859375,0.8687515673828125
-0.13729447265625,-0.0023787353515625003,0.7429190673828125
-0.1958923046875,0.07776580322265625,0.837539208984375
-0.244034921875,-0.0063001806640625,0.7994453857421875
-0.1044699609375,-0.16585398681640626,0.7124440087890624
-0.19370400390625,-0.0121823486328125,0.832623876953125
-0.015235917968750002,-0.0641414990234375,1.001711298828125
-0.11857234375,-0.10164031982421876,1.0879753759765625
-0.20586123046875,-0.03889719482421875,1.07494974609375
-0.0232596875,-0.26634102294921874,0.914218388671875
-0.11638404296875,0.06011929931640625,1.182103984375
-0.387976484375,0.03806116943359375,1.2285538720703124
-0.22750109375,-0.2317832861328125,1.1125520361328125
-0.30846822265625,0.02041466552734375,1.056271484375
-0.2805066015625,0.02041466552734375,0.8338527099609375
-0.162338359375,-0.1121792041015625,0.6632906884765625
-0.22944625,-0.0151234326171875,0.7613515625
-0.16890326171875,-0.01830960693359375,0.6539515576171875
-0.14799283203125,-0.22467566650390625,0.53229708984375
-0.04878986328125,-0.2592334033203125,0.5431108203125
-0.07650833984375,-0.29281077880859374,0.6097135693359375
-0.0480604296875,-0.19281392333984376,0.70531677734375
-0.040766093749999996,0.0309535498046875,0.7709364599609375
-0.13291787109375,0.09786321044921875,1.0149826953125
-0.06021765625,0.13952856689453125,1.3710985009765624
-0.06021765625,0.12972495361328126,1.7771049267578125
-0.17230728515625,0.3164837866210938,1.8478857080078126
-0.45873154296875,0.2985921923828125,1.6365264306640626
-0.5372672265625,0.02752228515625,1.221426640625
-0.4511940625,-0.0729647509765625,0.9528037451171875
-0.27831830078124997,-0.196980458984375,0.500347431640625
0.08299447265625,-0.10727739746093751,0.2717844921875
0.1094972265625,-0.122472998046875,0.1520961572265625
0.0793473046875,-0.10801266845703125,0.18674924804687498
0.04068732421875,-0.1111988427734375,0.4332531494140625
0.08299447265625,-0.09869923583984375,0.7237492724609375
0.135270546875,-0.03301502685546875,1.296631220703125
0.03387927734375,-0.09673851318359375,1.7422060693359376
-0.45168035156249997,-0.24330253173828126,1.8879456640625
-0.27613,0.0603643896484375,1.436226650390625
-0.18446451171875,0.25128975830078126,1.1010010058593749
-0.30700935546875,0.2064382275390625,0.8559717041015625
-0.0655668359375,-0.0259074072265625,0.4824064697265625
0.07618642578125,-0.1759026904296875,0.479703037109375
0.04749537109375,-0.13350206298828124,0.422685185546875
0.0550328515625,-0.0680629443359375,0.4686435400390625
0.08445333984375,-0.02149578125,0.755944697265625
-0.032012890625,-0.053847705078125,1.4040312255859375
-0.11200744140625,-0.08399381591796876,1.7348330712890625
-0.25351755859375,-0.03350520751953125,1.887454130859375
-0.29728357421875,0.153988896484375,1.5576353515624999
-0.2211793359375,0.19884042724609374,1.2737749267578125
-0.26056875,0.0848734228515625,1.26369849609375
-0.4507077734375,-0.05899460205078125,1.2280623388671874
-0.41496552734375003,-0.15948163818359376,1.0761785791015626
-0.31624884765625,-0.06659240234375,0.8053437841796875
-0.05413904296875,-0.1670794384765625,0.601603271484375
0.0579505859375,-0.19379428466796875,0.3786929638671875
0.07326869140625,-0.1582561865234375,0.5458142529296874
0.1571535546875,-0.06585713134765625,0.8589209033203125
0.20602560546874998,-0.034240478515625,1.2649273291015626
0.11071294921875,-0.12712971435546874,1.800944287109375
-0.07893978515625,-0.23742036376953124,2.129718558349609
-0.3738741015625,-0.01781942626953125,1.96757404296875
-0.36293259765625,0.25888755859375,1.739011103515625
-0.57981751953125,0.01208159423828125,1.49766830078125
-0.5679034375,-0.08987598388671875,1.025304892578125
-0.4351465234375,-0.17222633544921875,0.67385865234375
-0.2800203125,-0.18448085205078124,0.38262522949218747
-0.049762441406249996,-0.18693175537109374,0.176918583984375
0.05624857421875,-0.1553151025390625,0.2287753369140625
0.08688478515625,-0.09869923583984375,0.3182343798828125
0.08785736328125,-0.08693489990234375,0.7512751318359375
0.18949177734375,-0.063651318359375,1.7250024072265626
0.1124149609375,-0.21487205322265626,2.129718558349609
-0.46942990234375,-0.37908257568359377,2.129718558349609
-0.4555706640625,-0.12860025634765626,1.37380193359375
-0.187625390625,-0.076396015625,0.657638056640625
-0.1725504296875,-0.079337099609375,0.4283378173828125
0.1163052734375,-0.2136466015625,0.5310682568359375
0.058436875,-0.13889405029296875,0.49616939941406246
-0.23017568359375,-0.05360261474609375,0.7389868017578125
-0.44122513671875,-0.11634573974609375,1.0201437939453124
-0.17182099609375,-0.32320197998046873,0.8446664404296875
0.058193730468749996,-0.14673694091796874,0.8633447021484375
0.008592246093749999,0.21746729248046875,1.0289913916015625
-0.007941582031250002,0.21354584716796876,1.1329506640625
0.0248829296875,-0.2567825,1.00613509765625
0.06986466796875,-0.04821062744140625,0.9815584374999999
-0.25740787109375,-0.11585555908203125,1.09264494140625
-0.2698082421875,-0.1866866650390625,0.818860947265625
-0.20051205078125,0.0294830078125,0.831640810546875
-0.29582470703125,0.018699033203125,1.03661015625
-0.31284482421875,-0.13987441162109376,1.1739936865234375
-0.24330548828125,0.0250713818359375,1.009575830078125
-0.10617197265625,-0.1200220947265625,0.7252238720703125
0.12773306640624998,-0.17663796142578125,0.539670087890625
0.08834365234375,-0.1798241357421875,0.5391785546875
0.096367421875,-0.1901179296875,0.6040609375
0.0705941015625,-0.1749223291015625,0.736283369140625
0.135270546875,-0.24085162841796875,1.286800556640625
0.232528359375,-0.26241957763671875,1.9316921191406249
0.3030402734375,-0.4141304931640625,2.129718558349609
-0.664188671875,0.00227798095703125,1.6134243701171875
-0.5445615625,0.0299731884765625,1.0221099267578124
-0.25862359375,0.06551128662109375,0.79379275390625
0.10925408203125,-0.0268877685546875,0.6256883984375
0.0453070703125,-0.05262225341796875,0.39860005859375003
-0.12951384765625001,-0.04772044677734375,0.26760645996093746
-0.019369375,-0.026397587890625,0.26785222656249996
0.0180748828125,-0.0308092138671875,0.492482900390625
0.06111146484375,0.04541387939453125,0.9690243408203125
0.1357568359375,0.0608545703125,1.6178481689453126
0.0822650390625,-0.25849813232421875,1.89875939453125
-0.2882872265625,-0.393052724609375,1.3116229833984374
-0.2882872265625,-0.19183356201171875,0.97664310546875
-0.22385392578125,-0.01830960693359375,1.3253859130859376
-0.39818855468750003,-0.05801424072265625,1.2850801904296876
-0.25400384765625,-0.210705517578125,1.253376298828125
-0.26713365234374997,-0.2160975048828125,1.0226014599609374
0.1688244921875,-0.24477307373046875,0.869980400390625
0.154722109375,0.01845394287109375,1.1882481494140624
-0.0016198242187499996,0.138303115234375,1.4222179541015625
-0.33035123046875,0.17384121337890626,1.5603387841796874
-0.15723232421875,0.06257020263671875,1.153103525390625
-0.0743200390625,0.02972809814453125,0.8289373779296875
-0.11346630859375,-0.09281706787109376,1.086255009765625
-0.10276794921875,-0.35677935546875,0.9469053466796875
-0.1064151171875,-0.05360261474609375,0.97467697265625
-0.3339983984375,0.06943273193359376,1.18603625
-0.13948277343749999,-0.25604722900390625,1.15556119140625
0.01734544921875,-0.03448556884765625,1.354632138671875
-0.2104809765625,-0.04306373046875,1.4718628076171876
-0.1317021484375,-0.25482177734375,1.5581268847656249
-0.22239505859375,-0.03693647216796875,1.486363037109375
-0.42055785156250003,-0.2278618408203125,1.0661021484375
-0.009400449218749999,-0.17810850341796874,0.7758517919921875
0.07521384765625,-0.2249207568359375,0.6328156298828125
0.115818984375,-0.20359789794921876,0.6126627685546875
0.167365625,-0.16095218017578125,0.978117705078125
0.10828150390624999,-0.2249207568359375,1.3897767626953126
0.012482558593749998,-0.30947692138671873,1.702637646484375
-0.49714837890625,-0.04575972412109375,1.53895708984375
-0.42420501953125,0.0103659619140625,0.882760263671875
-0.29169125,-0.06193568603515625,0.6283918310546874
-0.11225058593750001,-0.08497417724609375,0.3388787744140625
0.100257734375,-0.06732767333984375,0.31405634765625
0.15569468749999998,-0.06291604736328126,0.22754650390624998
0.10730892578125,-0.1347275146484375,0.47552500488281246
-0.0451426953125,-0.25310614501953127,0.7070371435546875
-0.3233000390625,-0.2337440087890625,0.99433830078125
-0.25254498046875,-0.295016591796875,0.9100403564453124
0.1090109375,0.038306259765625,0.9886856689453125
0.0851827734375,0.157910341796875,1.1892312158203124
0.02853009765625,0.22187891845703125,1.134916796875
0.0511425390625,0.22531018310546874,1.231748837890625
-0.14069849609375001,0.15325362548828125,1.5313383251953125
-0.496905234375,-0.01978014892578125,1.245020234375
-0.38189787109375,-0.112669384765625,1.0324321240234375
-0.26251390625,0.0201695751953125,0.8773533984374999
-0.03079716796875,0.01845394287109375,0.6099593359375
0.20432359375,0.01845394287109375,0.539670087890625
0.121654453125,0.15031254150390624,1.0712632470703125
-0.27831830078124997,0.2054578662109375,1.27942755859375
-0.1754681640625,0.07065818359375,1.3337419775390624
0.057707441406250004,0.140263837890625,1.215036708984375
0.10828150390624999,0.1299700439453125,1.1007552392578126
0.1522906640625,-0.13129625,1.129509931640625
-0.033714902343750006,0.05178622802734375,1.4133703564453124
-0.37508982421875,-0.02321141357421875,1.394937861328125
-0.41034578125,-0.2415868994140625,1.1843158837890626
-0.36925435546875,-0.357759716796875,1.1150097021484375
-0.009400449218749999,-0.09085634521484375,1.07101748046875
-0.022773398437500002,0.040266982421875,1.1179589013671876
-0.1025248046875,-0.21830331787109375,0.7026133447265624
0.028286953125,-0.09673851318359375,0.6099593359375
0.11387382812499999,-0.110708662109375,0.9070911572265625
0.048711093750000004,-0.18153976806640626,1.1833328173828126
-0.08623412109375,-0.17026561279296876,1.6065429052734375
-0.010616171875,-0.0945327001953125,1.7761218603515625
0.02147890625,-0.045024453125,1.4475319140625
-0.3855450390625,-0.01683906494140625,1.28139369140625
-0.4079143359375,0.0966377587890625,1.16932412109375
-0.112736875,-0.03889719482421875,0.9282270849609375
-0.24427806640625,-0.10188541015625,0.956490244140625
-0.40062,-0.06046514404296875,0.8854636962890625
-0.14507509765624998,-0.09673851318359375,0.59128107421875
0.12432904296875,0.03315936279296875,0.7596311962890625
0.12530162109375,-0.00850599365234375,0.9670582080078125
-0.216802734375,-0.147962392578125,0.911269189453125
-0.156502890625,-0.18350049072265626,0.7340714697265625
0.11363068359375,-0.07370002197265625,0.7144101416015625
0.183899453125,-0.0523771630859375,0.8353273095703125
-0.20245720703125,0.014777587890624999,1.1671122216796874
-0.37022693359375003,-0.1180613720703125,1.01203349609375
-0.32840607421875,-0.028113220214843748,0.7812586572265625
-0.1229489453125,0.004973974609375,0.7188339404296875
0.02026318359375,-0.08252327392578125,0.6932742138671875
-0.032012890625,0.0623251123046875,0.883251796875
-0.1477496875,-0.13325697265625,0.788877421875
0.01491400390625,-0.196980458984375,0.550483818359375
0.10098716796875,-0.08742508056640624,0.5251698583984374
0.058436875,0.0486000537109375,0.7045794775390625
0.108038359375,0.04737460205078125,1.02579642578125
0.11703470703125,0.1368325732421875,1.6296449658203125
0.1357568359375,0.21550656982421876,1.857962138671875
-0.30141703125,0.01110123291015625,1.7102564111328125
-0.32840607421875,-0.04477936279296875,1.2899955224609374
-0.3967296875,-0.00360418701171875,1.082322744140625
-0.33278267578125,-0.0788469189453125,0.95108337890625
-0.16841697265625,-0.04330882080078125,0.813945615234375
-0.07869664062500001,0.03462990478515625,0.5895607080078125
0.102202890625,-0.08963089355468751,0.3688622998046875
0.14669833984375,-0.0063001806640625,0.7124440087890624
0.0696215234375,0.1819291943359375,1.3779799658203125
-0.26421591796875,-0.014633251953124999,1.7903763232421874
-0.24695265625,-0.0406128271484375,1.504549765625
0.06816265625,0.07825598388671876,1.0314490576171875
0.076915859375,-0.1430605859375,0.8549886376953125
0.06840580078125,0.1613416064453125,1.2152824755859375
-0.24087404296875,0.04345315673828125,1.3883021630859376
-0.33083751953125,-0.07860182861328124,1.336936943359375
-0.3184371484375,-0.14575657958984375,0.948625712890625
-0.21996361328125,-0.17712814208984376,0.677299384765625
0.19921755859375,-0.13889405029296875,0.8092760498046875
0.1396471484375,-0.04281864013671875,1.2860632568359376
-0.25108611328125,-0.155805283203125,1.3504541064453126
-0.37144265625,-0.12173772705078124,1.055779951171875
0.1104698046875,-0.20114699462890626,0.65026505859375
0.1911937890625,-0.07811164794921875,1.005643564453125
-0.11225058593750001,-0.10605194580078126,1.4836596044921875
-0.3203823046875,0.0672269189453125,1.5259314599609375
0.030232109375,0.05472731201171875,1.2039772119140626
0.0039725,-0.1043363134765625,0.9862280029296875
-0.18154677734375,-0.1062970361328125,1.088221142578125
-0.3787369921875,-0.04772044677734375,1.5033209326171875
-0.16015005859375,-0.27467409423828126,1.4325401513671876
-0.31576255859375,-0.0332601171875,1.2079094775390624
-0.300444453125,-0.1582561865234375,0.86457353515625
-0.19175884765625,-0.2254109375,0.395159326171875
-0.045628984375,-0.1955099169921875,0.2518773974609375
0.0778884375,-0.11364974609375,0.36517580078125
0.1231133203125,-0.0710040283203125,0.43792271484375
0.14985921875,-0.02027032958984375,0.7711822265625
0.19386837890625,-0.03448556884765625,0.938795048828125
-0.07748091796875001,-0.2629097583007812,0.9026673583984375
-0.32500205078125,-0.24918469970703125,0.828200078125
-0.2795340234375,-0.18301031005859375,0.787402822265625
-0.240144609375,-0.0435539111328125,0.7325968701171874
0.0433619140625,0.08266760986328126,0.72694423828125
0.2023784375,0.056933125,0.7114609423828124
0.16663619140625,0.1211467919921875,0.8893959619140624
0.0034862109374999978,0.26844608154296873,1.253376298828125
-0.03225603515625,-0.13399224365234375,1.1351625634765625
0.056978007812499995,0.03610044677734375,1.152120458984375
-0.057299921875,0.25104466796875,1.25190169921875
-0.19613544921875,0.21305566650390625,1.3728188671875
-0.3466419140625,-0.00507472900390625,1.4475319140625
-0.2659179296875,-0.1778634130859375,1.3160467822265625
-0.097175625,-0.15457983154296875,0.9518206787109375
-0.19419029296875,-0.01732924560546875,0.5640009814453125
-0.03955037109375,-0.13129625,0.285547421875
0.12262703125,-0.11242429443359375,0.34551447265625
0.1727148046875,-0.01879978759765625,0.8800568310546875
0.19532724609375,0.16403760009765625,1.5544403857421876
-0.052680175781250005,0.13854820556640626,2.129718558349609
-0.37557611328125,-0.095022880859375,1.780299892578125
-0.25473328125,0.1711452197265625,1.1447474609375
-0.2309051171875,0.14786163818359374,0.818860947265625
-0.271267109375,0.01992448486328125,0.6337986962890625
-0.2172890234375,-0.157766005859375,0.5207460595703125
-0.02520484375,-0.18742193603515625,0.44382111328125
0.069135234375,-0.14526639892578125,0.3526417041015625
0.10487748046875,-0.18031431640625,0.4991185986328125
0.117764140625,-0.1464918505859375,0.7537327978515624
0.0316909765625,-0.27442900390625,1.020389560546875
0.0686489453125,-0.2386458154296875,1.257308564453125
-0.0811280859375,0.0137972265625,1.50848203125
-0.1336473046875,0.19050735595703125,1.49176990234375
-0.1385101953125,0.2662402685546875,1.4743204736328126
-0.19419029296875,0.24197632568359376,1.540431689453125
-0.36001486328125,0.02776737548828125,1.297614287109375
-0.41934212890625,-0.010221625976562499,1.1091113037109375
-0.144831953125,-0.249919970703125,0.779538291015625
0.1980018359375,-0.23913599609375,0.7674957275390625
0.06597435546875,-0.3334957739257812,1.0958399072265625
-0.0509781640625,-0.18301031005859375,1.134425263671875
-0.10617197265625,0.16207687744140625,1.072000546875
-0.05170759765625,0.0966377587890625,1.045949287109375
-0.010616171875,-0.12614935302734376,1.098051806640625
-0.07748091796875001,-0.01169216796875,1.219952041015625
-0.05243703125,-0.15850127685546875,1.096085673828125
-0.1044699609375,-0.2474690673828125,0.947642646484375
-0.20342978515625,-0.28790897216796874,1.014491162109375
-0.300444453125,-0.3045751147460938,1.0275167919921875
-0.360744296875,-0.1837455810546875,0.84294607421875
-0.2566784375,-0.11634573974609375,0.657638056640625
0.010294257812499999,-0.1092381201171875,0.62765453125
0.1766051171875,-0.09796396484375,0.72497810546875
0.16031443359375,0.024581201171875,1.092153408203125
0.17052650390625,-0.0455146337890625,1.3199790478515625
-0.20342978515625,-0.10311086181640625,1.3229282470703125
-0.19029998046875,0.0682072802734375,0.8495817724609375
0.12919193359375,-0.1038461328125,0.605535537109375
0.0822650390625,0.03413972412109375,0.70629984375
-0.17717017578125,-0.112669384765625,0.7920723876953125
-0.3213548828125,0.014777587890624999,0.961897109375
-0.33132380859375,0.1878113623046875,1.042017021484375
-0.23066197265625,0.27383806884765627,1.1567900244140625
-0.01815365234375,0.25668174560546875,1.238630302734375
0.180009140625,0.04443351806640625,1.52126189453125
0.23641867187499999,-0.048945898437499996,1.7967662548828125
-0.1268392578125,0.10423555908203125,1.8368262109375
-0.40062,-0.0798272802734375,1.4610490771484375
-0.36463460937500003,-0.09624833251953124,0.929947451171875
-0.2591098828125,-0.12811007568359375,0.6146289013671875
-0.174981875,-0.037916833496093746,0.5116526953125
0.021965195312499998,0.0319339111328125,0.6728755859375
0.073998125,-0.00752563232421875,0.62765453125
0.006647089843749999,0.00619942626953125,0.7055625439453125
-0.02155767578125,-0.0425735498046875,0.7908435546875
0.04482078125,-0.1023755908203125,0.851302138671875
0.05381712890625,0.13021513427734374,1.2182316748046875
-0.22142248046875002,0.24442722900390626,1.2880293896484374
-0.29096181640625,0.04124734375,1.1720275537109375
-0.00891416015625,0.02923791748046875,1.2000449462890626
-0.38821962890625,-0.06781785400390625,1.1730106201171875
-0.02909515625,-0.2229600341796875,0.7522581982421875
0.06646064453125,-0.1827652197265625,0.7198170068359375
0.1493729296875,-0.1710008837890625,0.860149736328125
0.04895423828125,-0.1994313623046875,1.045949287109375
-0.13097271484375,-0.05311243408203125,1.0461950537109375
-0.29776986328125,-0.05752406005859375,1.0506188525390625
-0.07650833984375,0.00963069091796875,1.0442289208984374
-0.13048642578125,0.04590406005859375,1.143272861328125
-0.05900193359375,0.0525214990234375,1.107882470703125
-0.10908970703125,0.20864404052734375,1.0992806396484376
-0.28634207031250003,0.183399736328125,1.0609410498046874
-0.15236943359375,0.075559990234375,0.7212916064453125
0.016616015625,0.14688127685546876,0.8144371484375
-0.005996425781250002,0.02237538818359375,1.0638902490234374
0.06646064453125,-0.144040947265625,1.2000449462890626
0.16177330078125,0.00178780029296875,1.4055058251953125
-0.06872771484375,-0.21879349853515626,1.302529619140625
-0.0030786914062500004,-0.3398681225585938,1.3416065087890625
-0.44365658203125,-0.05213207275390625,1.327106279296875
-0.39162365234375,-0.10213050048828125,0.978117705078125
-0.25546271484375,-0.1190417333984375,0.6790197509765625
-0.004537558593750001,0.00766996826171875,0.62667146484375
0.12287017578125001,-0.05654369873046875,0.7768348583984375
-0.10471310546875,0.044188427734375,1.0112961962890625
-0.08039865234375,-0.0063001806640625,1.15359505859375
0.02658494140625,-0.147962392578125,1.27156302734375
-0.020341953125,-0.069533486328125,1.3833868310546875
-0.33667298828125003,-0.013162709960937501,1.29712275390625
-0.20464550781250002,-0.05703387939453125,1.0004824658203124
-0.1788721875,-0.1229631787109375,0.84884447265625
-0.0529233203125,-0.1700205224609375,0.7792925244140625
-0.024232265625,-0.13644314697265625,0.828200078125
-0.05243703125,-0.25261596435546874,0.9744312060546875
-0.059245078125,-0.11561046875,1.2265877392578124
-0.2503566796875,-0.106787216796875,1.345784541015625
-0.1171134765625,0.0309535498046875,1.229291171875
-0.152612578125,0.118695888671875,1.159001923828125
-0.203186640625,0.08903995849609375,1.044966220703125
-0.25497642578125,-0.0680629443359375,0.8918536279296875
-0.28220861328125,-0.1562954638671875,0.8852179296875
-0.19175884765625,-0.04968116943359375,0.8250051123046875
-0.05997451171875,0.021640117187500002,0.8608870361328125
-0.08963814453125,-0.046004814453125,0.9208540869140625
0.0530876953125,-0.02958376220703125,1.0149826953125
-0.138996484375,0.07923634521484375,1.2902412890625
0.042389335937499995,-0.1768830517578125,1.1250861328125
-0.25205869140625,0.063795654296875,1.1486797265625
-0.07164544921875,0.03536517578125,1.0520934521484375
0.035824433593749996,-0.14967802490234375,0.894557060546875
-0.033714902343750006,0.0976181201171875,1.1007552392578126
-0.23503857421875,0.0030132519531249997,1.12312
-0.1735230078125,0.07580508056640625,1.1145181689453125
-0.27491427734375,0.08413815185546875,0.9945840673828125
0.0433619140625,-0.0004180126953125,0.945676513671875
-0.07067287109375,0.01992448486328125,1.162934189453125
0.16542046875,0.055462583007812497,1.152120458984375
-0.2377131640625,0.03708080810546875,1.01399962890625
-0.22944625,-0.1200220947265625,0.889641728515625
-0.15869119140625,-0.2214894921875,0.8146829150390625
-0.05462533203125,0.03144373046875,0.9604225097656249
0.035095,0.0255615625,0.959439443359375
-0.1813036328125,-0.04772044677734375,1.0088385302734375
-0.17814275390625,0.1250682373046875,0.9837703369140625
-0.096203046875,0.14197947021484375,0.920116787109375
-0.13437673828125,0.06894255126953125,0.91569298828125
-0.12367837890625,0.1368325732421875,1.0339067236328126
-0.2328502734375,0.11649007568359375,0.8775991650390624
-0.08915185546875,-0.09526797119140624,0.6274087646484375
0.1046343359375,-0.1268846240234375,0.665502587890625
0.092477109375,-0.15801109619140624,0.63453599609375
0.011023691406250001,-0.1062970361328125,0.7797840576171875
0.05965259765625,0.05668803466796875,0.956490244140625
-0.10374052734375,-0.1406096826171875,0.896523193359375
-0.20415921875,0.07457962890625,1.0235845263671874
0.05187197265625,0.1142842626953125,1.0717547802734375
0.04992681640625,0.228496357421875,1.4040312255859375
-0.08963814453125,0.28462204345703124,1.559109951171875
-0.31333111328125,0.075559990234375,1.300071953125
-0.2999581640625,0.0731090869140625,1.1784174853515625
-0.34421046875,-0.03546593017578125,0.8864467626953125
-0.16136578125,0.0025230712890624996,0.700892978515625
-0.002835546875000001,-0.02909358154296875,0.63060373046875
0.13551369140625,-0.0700236669921875,0.5291021240234375
0.1474277734375,0.03806116943359375,0.738249501953125
0.143051171875,0.07874616455078125,1.00416896484375
0.1843857421875,0.0858537841796875,1.261240830078125
-0.16185207031249998,-0.03840701416015625,1.6773236865234376
-0.280992890625,0.05619785400390625,1.348733740234375
-0.1443456640625,0.0799716162109375,1.1290183984375
-0.14750654296875,0.1133039013671875,1.1892312158203124
-0.060460800781250004,-0.0009081933593750001,1.1862820166015624
0.03971474609375,-0.1455114892578125,1.44654884765625
-0.18543708984375,-0.23129310546875,1.3293181787109374
0.0608683203125,-0.1347275146484375,1.0543053515625
-0.0529233203125,-0.08595453857421875,0.9542783447265625
-0.03955037109375,-0.02762303955078125,0.8348357763671875
-0.08428896484375001,-0.059484782714843754,0.9972875
0.09709685546874999,-0.07468038330078125,1.2093840771484374
0.109983515625,0.03144373046875,1.3740477001953124
-0.07018658203125,-0.0028689160156250004,1.405751591796875
-0.0986344921875,0.0922261328125,0.9638632421875
-0.04733099609375,-0.079337099609375,0.6976980126953125
-0.10276794921875,-0.07419020263671874,0.68762158203125
-0.137051328125,-0.0337502978515625,0.930438984375
-0.1579617578125,-0.0710040283203125,1.2113502099609375
-0.22434021484375,-0.067572763671875,1.13589986328125
-0.13437673828125,-0.03546593017578125,0.8520394384765625
0.16566361328125,-0.030319033203124998,0.6249510986328125
0.16371845703125,0.0182088525390625,0.7004014453125
0.11557583984375,0.138303115234375,1.082322744140625
0.0812924609375,0.0976181201171875,1.4207433544921875
0.02220833984375,0.08168724853515624,1.64906052734375
-0.026420566406250002,0.122617333984375,1.80045275390625
-0.36147373046875,0.16011615478515626,1.544363955078125
-0.32086859375,0.16550814208984374,1.2644357958984376
-0.18786853515625002,0.19614443359375,0.9936010009765625
-0.2022140625,0.259867919921875,1.127052265625
-0.20342978515625,0.17335103271484376,1.2506728662109374
0.0579505859375,0.1471263671875,1.2157740087890625
-0.040766093749999996,0.0221302978515625,1.1258234326171874
-0.015235917968750002,-0.12958061767578125,0.827708544921875
-0.07893978515625,-0.01487834228515625,0.617332333984375
-0.09936392578125,-0.03203466552734375,0.48707603515625
0.16906763671875,-0.046249904785156254,0.5379497216796875
0.15691041015625,-0.09526797119140624,0.9065996240234375
0.11265810546874999,-0.055808427734375,1.17129025390625
0.010294257812499999,-0.08399381591796876,1.3244028466796876
-0.207076953125,-0.11095375244140625,1.2890124560546874
-0.3252451953125,-0.00311400634765625,1.0457035205078125
-0.02593427734375,0.0280124658203125,0.9501003125
0.19484095703124998,0.05227640869140625,1.0776531787109376
-0.082586953125,0.05178622802734375,1.3946920947265624
-0.14556138671875,0.01845394287109375,1.39936166015625
-0.12902755859375,-0.08056255126953125,1.0068723974609375
-0.013777050781250001,-0.05262225341796875,0.884726396484375
-0.02496169921875,-0.0641414990234375,0.7134270751953125
-0.03274232421875,-0.0886505322265625,0.7458682666015625
0.0822650390625,-0.04526954345703125,1.0464408203125
0.0467659375,-0.034240478515625,1.1027213720703124
-0.092312734375,-0.01928996826171875,0.989914501953125
-0.02301654296875,0.0711483642578125,0.933879716796875
-0.01620849609375,0.028502646484374998,0.97271083984375
-0.12659611328125,0.1446754638671875,1.1292641650390625
-0.06580998046875,0.1025199267578125,1.249444033203125
-0.18592337890625,0.111833359375,1.303512685546875
-0.17862904296875,-0.00948635498046875,1.2172486083984375
-0.084532109375,0.0348749951171875,1.066593681640625
-0.016937929687500002,0.067717099609375,0.931913583984375
-0.0645942578125,0.0427178857421875,0.851302138671875
-0.032499179687500004,0.077520712890625,0.8048522509765625
0.01369828125,0.01845394287109375,0.8731753662109375
0.05649171875,0.04933532470703125,1.0904330419921875
0.0029999218749999987,0.0887948681640625,1.2961396875
-0.02885201171875,-0.12712971435546874,1.287783623046875
-0.0509781640625,-0.07271966064453125,1.2236385400390626
-0.1540714453125,-0.08742508056640624,0.9832788037109375
-0.15528716796875,-0.13203152099609375,0.9179048876953125
-0.19321771484375,-0.08154291259765625,0.9090572900390625
-0.020828242187500002,0.036345537109375,0.9191337207031249
0.09272025390625,-0.02321141357421875,1.0275167919921875
-0.02739314453125,0.07874616455078125,1.151137392578125
-0.0714023046875,0.11747043701171875,1.0555341845703126
-0.168173828125,0.02335574951171875,0.9690243408203125
0.05187197265625,0.057913486328125,0.9936010009765625
0.0856690625,-0.04772044677734375,0.9444476806640625
0.09126138671875,-0.18840229736328126,1.0737209130859375
-0.10374052734375,-0.03546593017578125,0.93928658203125
0.0132119921875,0.013552136230468751,0.7488174658203125
0.05868001953125,0.0770305322265625,1.0152284619140626
-0.1044699609375,0.15472416748046874,1.33054701171875
-0.17182099609375,0.0270321044921875,1.4335232177734376
-0.1560166015625,0.07384435791015626,1.346767607421875
-0.07796720703125,0.2270258154296875,1.0078554638671875
0.00227048828125,0.11747043701171875,0.858183603515625
-0.0023492578125000017,0.16085142578125,1.099034873046875
-0.10714455078125,0.1358522119140625,1.3976412939453124
-0.03420119140625,0.04688442138671875,1.3209621142578125
0.0394716015625,0.10423555908203125,1.146222060546875
0.1377019921875,0.08805959716796875,0.8515479052734375
-0.15164,0.05913893798828125,0.80952181640625
-0.074806328125,0.11256863037109376,0.7296476708984375
-0.19613544921875,0.08315779052734375,0.8879213623046875
-0.10106593750000001,0.0338946337890625,1.12410306640625
-0.1258666796875,0.07874616455078125,1.440158916015625
-0.105928828125,0.22236909912109376,1.514871962890625
-0.2800203125,0.20619313720703125,1.2300284716796874
-0.2892598046875,0.1417343798828125,0.9567360107421875
-0.32694720703125,0.03659062744140625,0.7596311962890625
-0.1633109375,-0.04698517578125,0.5824334765625
0.03971474609375,0.0221302978515625,0.58931494140625
0.11825042968749999,-0.0053198193359375,0.6618160888671875
0.042389335937499995,-0.05654369873046875,0.828200078125
-0.0018629687499999992,-0.0857094482421875,0.895540126953125
0.01880431640625,-0.0612004150390625,0.956490244140625
-0.0587587890625,0.0358553564453125,1.0201437939453124
-0.15966376953125,-0.03522083984375,1.009575830078125
-0.17619759765625,-0.16977543212890625,0.825742412109375
-0.109819140625,0.07531489990234375,0.78002982421875
-0.1365650390625,0.14050892822265626,0.7751144921875
-0.24379177734375002,-0.03693647216796875,0.9051250244140625
-0.2386857421875,0.04296297607421875,1.1329506640625
-0.0538958984375,0.16256705810546876,1.18112091796875
-0.03274232421875,0.09933375244140626,1.24207103515625
0.0008116210937499993,0.01183650390625,1.0801108447265624
-0.07213173828125,0.07678544189453125,0.89603166015625
-0.11857234375,0.03512008544921875,0.751029365234375
-0.125380390625,0.02433611083984375,0.7869112890625
-0.19613544921875,0.13266603759765624,1.0240760595703124
-0.19273142578125,0.16795904541015624,1.208155244140625
-0.14312994140625,0.09786321044921875,1.2147909423828125
-0.12829812499999999,0.11649007568359375,1.2430541015625
-0.07869664062500001,0.0652661962890625,1.2113502099609375
-0.24573693359375,0.0584036669921875,1.0638902490234374
-0.2464663671875,0.14124419921875,0.98942296875
-0.2177753125,0.0765403515625,0.9587021435546875
-0.13437673828125,0.004973974609375,1.0348897900390626
0.0078628125,0.0495804150390625,1.224867373046875
-0.03663263671875,0.00668960693359375,1.17522251953125
0.059409453125,-0.0837487255859375,0.98254150390625
-0.05316646484375,-0.04772044677734375,0.84491220703125
-0.1881116796875,-0.0719843896484375,0.801165751953125
-0.10957599609375,-0.17712814208984376,0.9031588916015625
-0.24427806640625,-0.146001669921875,1.139340595703125
-0.1477496875,-0.02174087158203125,1.17522251953125
-0.17230728515625,0.03610044677734375,1.049881552734375
-0.0636216796875,0.02482629150390625,0.9139726220703125
-0.12708240234375,-0.015368522949218751,0.894557060546875
-0.0869635546875,-0.00703545166015625,0.9301932177734376
-0.049519296875,-0.08399381591796876,0.928964384765625
-0.05948822265625,-0.12811007568359375,0.9469053466796875
0.01345513671875,-0.0474753564453125,0.9380577490234375
-0.0256911328125,-0.08619962890625,0.9577190771484375
0.05089939453125,-0.12271808837890624,0.9557529443359375
-0.066053125,-0.03546593017578125,1.1093570703125
-0.0500055859375,-0.12614935302734376,1.114763935546875
-0.10325423828125,0.07482471923828125,1.1769428857421875
-0.19248828125,0.10129447509765625,1.24796943359375
-0.1375376171875,0.00766996826171875,1.1548238916015625
-0.16112263671875,0.12139188232421876,1.229291171875
-0.19127255859375,0.17923320068359375,1.2398591357421875
-0.11054857421875,0.079481435546875,1.276478359375
-0.07553576171875,0.10570610107421875,1.305478818359375
-0.0762651953125,0.04394333740234375,1.1125520361328125
-0.0315266015625,0.06649164794921875,0.96877857421875
0.07132353515625,0.0927163134765625,0.9120064892578125
-0.03274232421875,0.0799716162109375,0.9793465380859375
-0.140941640625,0.114774443359375,1.0815854443359374
-0.074806328125,-0.0210056005859375,0.8419630078125
-0.0869635546875,0.07923634521484375,0.8161575146484374
-0.007698437500000002,0.1240878759765625,0.7512751318359375
-0.012561328125,0.17629211669921874,0.866048134765625
-0.041738671875,0.148106728515625,0.9397781152343749
-0.18786853515625002,0.17678229736328124,1.160968056640625
-0.189570546875,0.2946707470703125,1.325140146484375
-0.13291787109375,0.34515935546875,1.29712275390625
-0.1034973828125,0.3316793872070313,1.200290712890625
-0.018396796875,0.312807431640625,1.05135615234375
-0.07699462890625,0.32726776123046875,1.053813818359375
-0.109819140625,0.314768154296875,1.13589986328125
-0.17230728515625,0.14982236083984374,1.198324580078125
-0.263486484375,0.06404074462890624,0.9980247998046875
-0.08526154296874999,0.1584005224609375,0.89996392578125
-0.0733474609375,0.0829127001953125,0.66206185546875
-0.09425789062500001,0.09345158447265625,0.6060270703125
-0.07699462890625,0.14737145751953126,0.7453767333984375
-0.08137123046875,0.226535634765625,0.86457353515625
-0.181789921875,0.20472259521484376,1.1150097021484375
-0.03420119140625,0.15472416748046874,1.1759598193359375
0.027557519531249998,0.09443194580078125,1.1037044384765624
-0.06629626953125001,0.18266446533203126,0.9407611816406249
-0.09061072265625,0.15864561279296874,0.7994453857421875
-0.1599069140625,0.11379408203125,0.8210728466796875
-0.1783858984375,0.07850107421875,0.971236240234375
-0.05657048828125,-0.03546593017578125,1.0732293798828125
-0.04246810546875,0.05472731201171875,1.0702801806640625
-0.04246810546875,0.173596123046875,0.879811064453125
0.004701933593749999,0.116735166015625,0.7247323388671875
-0.08963814453125,0.06355056396484375,0.7512751318359375
-0.09085386718749999,0.1329111279296875,0.98057537109375
-0.043683828125000004,0.204967685546875,1.2025026123046876
-0.02155767578125,0.23535888671875,1.3804376318359375
-0.12635296875,0.2868278564453125,1.511922763671875
-0.23844259765625,0.33952227783203126,1.3413607421875
-0.2231244921875,0.26648535888671876,1.1076367041015625
-0.2099946875,0.214771298828125,0.9874568359375
-0.2163164453125,0.23609415771484374,0.912252255859375
-0.10617197265625,0.29148457275390627,0.9562444775390625
0.029502675781249998,0.2270258154296875,0.9940925341796875
0.049197382812499996,0.1701648583984375,1.07888201171875
0.0229377734375,0.19687970458984375,1.1292641650390625
-0.111764296875,0.04247279541015625,1.1676037548828124
-0.22142248046875002,0.16942958740234376,1.18603625
-0.2255559375,0.14246965087890626,1.0619241162109374
-0.26129818359375,0.08511851318359374,1.083305810546875
-0.111764296875,0.12335260498046875,1.0108046630859375
-0.049519296875,0.030463369140625002,0.99040603515625
-0.13194529296875,0.06894255126953125,1.0162115283203126
-0.18981369140625,0.04149243408203125,0.9822957373046874
-0.1248941015625,0.01551285888671875,0.9336339501953125
-0.04246810546875,0.08242251953125,0.9719735400390626
0.00956482421875,0.062080021972656246,0.9046334912109375
0.07715900390625,0.019679394531249998,1.1272980322265624
-0.03760521484375,0.010611052246093749,1.207172177734375
-0.11492517578125,-0.06830803466796875,1.08281427734375
-0.13413359375,-0.0092412646484375,1.0147369287109376
-0.086477265625,0.07041309326171875,0.92945591796875
-0.15528716796875,-0.04477936279296875,0.97467697265625
-0.19832375,-0.04085791748046875,1.2423168017578126
-0.21315556640625,-0.11095375244140625,1.079865078125
-0.17717017578125,-0.07713128662109375,0.8284458447265625
-0.1083602734375,-0.02517213623046875,0.828200078125
0.04117361328125,-0.0161037939453125,0.825742412109375
0.12189759765625,-0.02419177490234375,1.030220224609375
-0.02398912109375,0.0162481298828125,1.3543863720703124
0.002756777343749999,-0.01095689697265625,1.1005094726562499
-0.0855046875,0.13805802490234376,0.8643277685546875
-0.23747001953125,0.17972338134765625,0.91765912109375
-0.30846822265625,0.1240878759765625,0.8387680419921875
-0.280992890625,0.15227326416015624,0.78199595703125
-0.03614634765625,0.17482157470703125,1.0309575244140625
0.0822650390625,0.1485969091796875,1.041033955078125
-0.05900193359375,0.09541230712890625,1.103950205078125
-0.160393203125,0.12237224365234375,1.1739936865234375
-0.14556138671875,0.24246650634765626,0.83704767578125
-0.1034973828125,0.224574912109375,0.8572005371093749
-0.100093359375,0.27726933349609373,1.1263149658203124
-0.1141957421875,0.3113368896484375,1.0599579833984376
-0.14945169921875,0.21158512451171874,1.0221099267578124
-0.09498732421875,0.23903524169921875,0.8893959619140624
-0.05948822265625,0.212810576171875,0.7729025927734375
-0.0811280859375,-0.044044091796875,0.8726838330078125
-0.0388209375,0.1392834765625,1.1565442578125
-0.1453182421875,0.18830154296875,1.0132623291015626
-0.190543125,0.10595119140625,0.9650920751953125
-0.1949197265625,0.195164072265625,0.9906518017578125
-0.07942607421875,0.13021513427734374,0.81345408203125
-0.0025924023437500013,0.25864246826171877,0.8957858935546875
0.0637860546875,0.16403760009765625,1.0122792626953125
0.0856690625,0.13952856689453125,1.15752732421875
0.03436556640625,0.17261576171875,1.292698955078125
0.002756777343749999,0.27334788818359373,1.2354353369140625
-0.14653396484375,0.1544790771484375,0.978117705078125
-0.12635296875,0.097127939453125,0.9913891015625
-0.17133470703125,0.106931552734375,0.8771076318359375
-0.0699434375,0.0505607763671875,0.72891037109375
-0.08428896484375001,-0.035711020507812496,0.8520394384765625
-0.10957599609375,0.04100225341796875,0.813945615234375
-0.0543821875,0.05913893798828125,0.6190527001953126
0.06500177734375,0.1471263671875,0.55589068359375
0.020506328125,0.13952856689453125,0.733825703125
0.038012734374999996,0.191242626953125,0.74857169921875
0.02853009765625,0.28462204345703124,1.0621698828125
0.018318027343749998,0.32947357421875,1.2693511279296874
-0.0665394140625,0.34883571044921874,1.282868291015625
-0.11152115234375,0.32040523193359377,1.154578125
-0.07577890625,0.2571719262695312,0.912252255859375
-0.067025703125,0.253985751953125,0.821810146484375
-0.11492517578125,0.24687813232421876,0.7306307373046875
-0.12027435546875,0.2574170166015625,0.7635634619140625
-0.12027435546875,0.22432982177734376,0.7989538525390625
-0.107873984375,0.16011615478515626,0.8340984765625
0.02220833984375,0.24393704833984375,0.9169218212890625
0.014184570312499999,0.24834867431640625,1.0992806396484376
0.02512607421875,0.2152614794921875,1.04939001953125
-0.1205175,0.16624341308593749,0.9955671337890625
-0.09839134765625,0.23143744140625,0.9572275439453125
-0.10471310546875,0.23413343505859374,0.93535431640625
-0.13486302734375,0.07457962890625,0.96484630859375
-0.1239215234375,0.2177123828125,1.130492998046875
-0.1667149609375,0.0976181201171875,1.1017383056640626
-0.084532109375,0.0012976196289062499,0.9213456201171875
-0.018883085937500002,-0.0366913818359375,0.9793465380859375
0.014427714843749998,-0.04134809814453125,0.9744312060546875
-0.014506484375,-0.004829638671875,0.98647376953125
-0.03711892578125,-0.0038492773437499997,1.0461950537109375
-0.06240595703125,0.07482471923828125,1.0427543212890624
-0.20780638671875,0.02580665283203125,0.82525087890625
-0.12416466796875,0.0574233056640625,0.828691611328125
-0.05170759765625,0.0966377587890625,0.860149736328125
-0.13486302734375,0.13609730224609376,0.906845390625
-0.185680234375,0.05497240234375,1.1125520361328125
-0.24768208984375,0.11060790771484375,1.10444173828125
-0.1550440234375,0.15374380615234376,1.0142453955078126
-0.1297569921875,0.13315621826171875,1.1290183984375
-0.1034973828125,0.09026541015625,1.2152824755859375
-0.0932853125,0.0731090869140625,1.2629611962890626
-0.22579908203125,0.06845237060546874,1.24993556640625
-0.3359435546875,0.04688442138671875,1.1985703466796875
-0.317950859375,0.064776015625,1.1211538671875
-0.25838044921875,0.008405239257812499,1.071509013671875
-0.162338359375,-0.046249904785156254,1.205206044921875
-0.20026890625,-0.076396015625,1.229291171875
-0.13145900390625,-0.01978014892578125,1.2902412890625
-0.2649453515625,-0.10409122314453124,1.3312843115234374
-0.24184662109375,-0.04870080810546875,1.3691323681640626
-0.1589343359375,-0.04968116943359375,1.09952640625
-0.17230728515625,-0.0004180126953125,0.977134638671875
-0.2591098828125,0.01600303955078125,0.96484630859375
-0.384086171875,0.09002031982421875,1.031203291015625
-0.38676076171875,0.07335417724609375,1.160968056640625
-0.37946642578125,0.10129447509765625,1.17522251953125
-0.30506419921875,-0.00409436767578125,1.0525849853515625
-0.380195859375,-0.087179990234375,1.02186416015625
-0.2591098828125,-0.10580685546875,0.9847534033203125
-0.19370400390625,-0.1847259423828125,1.077407412109375
-0.22093619140625,-0.16487362548828124,0.9375662158203125
-0.040279804687500004,-0.222469853515625,0.8852179296875
-0.10860341796875,-0.255802138671875,1.0110504296875
-0.378250703125,-0.17639287109375001,1.264190029296875
-0.44462916015625,-0.118551552734375,1.2831140576171876
-0.372415234375,0.0966377587890625,1.229291171875
-0.236254296875,0.10423555908203125,1.134425263671875
-0.18227621093750002,0.05178622802734375,1.066593681640625
-0.129270703125,0.03806116943359375,1.1317218310546875
-0.22774423828125,0.10080429443359375,1.201273779296875
-0.224583359375,0.1863408203125,1.130492998046875
-0.18640966796875,0.182419375,1.0751955126953125
-0.10228166015625,0.15472416748046874,1.1735021533203125
-0.13826705078125,0.18070374267578124,1.3666747021484376
-0.13413359375,0.24295668701171874,1.47014244140625
-0.1813036328125,0.2723675268554687,1.566974482421875
-0.3378887109375,0.27065189453125,1.359547470703125
-0.31576255859375,0.15325362548828125,1.195375380859375
-0.3437241796875,0.255946474609375,1.2290454052734374
-0.37144265625,0.23413343505859374,1.0879753759765625
-0.35709712890625,0.183399736328125,0.9567360107421875
-0.220693046875,0.2407508740234375,0.93142205078125
-0.1511537109375,0.2133007568359375,0.77609755859375
-0.0237459765625,0.14345001220703124,0.8820229638671875
-0.061676523437500005,0.12384278564453124,1.17915478515625
-0.07893978515625,0.17335103271484376,1.286800556640625
-0.039793515625,0.11550971435546875,1.1356540966796875
-0.07553576171875,0.09002031982421875,1.1331964306640625
-0.20829267578125,0.187321181640625,1.0700344140625
-0.22920310546875,0.07139345458984375,0.8515479052734375
-0.1385101953125,0.0003172583007812497,0.9532952783203125
-0.089395,0.1633023291015625,1.0582376171875
-0.16987583984375,0.07335417724609375,0.9621428759765625
-0.1229489453125,-0.04526954345703125,0.968287041015625
-0.11200744140625,0.1387932958984375,0.8726838330078125
-0.20051205078125,0.0946770361328125,0.7812586572265625
-0.1686601171875,0.0917359521484375,0.8200897802734375
-0.1424005078125,0.07090327392578125,0.8154202148437499
-0.01863994140625,0.12335260498046875,0.8294289111328125
-0.01231818359375,0.182419375,0.8879213623046875
-0.05632734375,0.17678229736328124,0.9088115234375
-0.06970029296875,0.13119549560546875,0.8427003076171875
-0.16258150390625,0.2378097900390625,0.8195982470703125
-0.23892888671875,0.2221240087890625,0.884726396484375
-0.2231244921875,0.22874144775390626,0.8790737646484375
-0.1851939453125,0.2544759326171875,0.8933282275390625
-0.1521262890625,0.2044775048828125,0.8864467626953125
-0.13437673828125,0.1495772705078125,0.754961630859375
-0.17182099609375,0.13217585693359374,0.7134270751953125
-0.16938955078125,0.16305723876953124,0.6726298193359375
-0.1443456640625,0.2054578662109375,0.713672841796875
-0.06872771484375,0.216732021484375,0.744147900390625
0.04506392578125,0.190262265625,0.842454541015625
0.030232109375,0.16011615478515626,0.9631259423828125
-0.12659611328125,0.22580036376953125,0.867522734375
-0.10690140625,0.1789881103515625,0.66402798828125
-0.129270703125,0.1387932958984375,0.5816961767578125
-0.18397822265625,0.0922261328125,0.5374581884765625
-0.21607330078125,0.093206494140625,0.4843726025390625
-0.13486302734375,0.14001874755859375,0.4371854150390625
-0.12756869140625,0.14541073486328124,0.5391785546875
-0.1472633984375,0.1740863037109375,0.599637138671875
-0.21193984375,0.18021356201171876,0.7153932080078125
-0.1744955859375,0.26893626220703126,0.8301662109375
-0.162338359375,0.3039841796875,1.05135615234375
-0.09134015625,0.3191797802734375,0.9665666748046875
-0.034930625,0.26550499755859375,1.0678225146484375
0.006647089843749999,0.2672206298828125,1.0653648486328124
-0.04344068359375,0.27065189453125,0.943710380859375
-0.22288134765625,0.24295668701171874,0.9419900146484375
-0.21801845703125,0.2182025634765625,0.8628531689453125
-0.24865466796875,0.246142861328125,1.040050888671875
-0.2960678515625,0.2289865380859375,1.0049062646484375
-0.24476435546875,0.2662402685546875,0.945676513671875
-0.09498732421875,0.25668174560546875,0.8830060302734375
-0.02496169921875,0.1799684716796875,0.7999369189453125
-0.11492517578125,0.23903524169921875,0.884726396484375
-0.20026890625,0.18609572998046875,0.8874298291015625
-0.14604767578125,0.2446723193359375,0.810013349609375
-0.1555303125,0.2485937646484375,0.8250051123046875
-0.133161015625,0.2647697265625,0.871455
-0.092312734375,0.27383806884765627,1.0112961962890625
-0.18786853515625002,0.17384121337890626,1.0461950537109375
-0.154557734375,0.2191829248046875,1.0334151904296875
-0.13340416015625,0.2765340625,1.1336879638671875
-0.33618669921875,0.2427115966796875,1.27746142578125
-0.40694175781249997,0.23119235107421876,1.3216994140625
-0.3408064453125,0.27383806884765627,1.1538408251953125
-0.127325546875,0.29540601806640626,1.13589986328125
-0.2182616015625,0.23021198974609375,1.195375380859375
-0.152612578125,0.26060319091796874,1.2831140576171876
-0.11857234375,0.25766210693359376,1.40132779296875
-0.18300564453125,0.11894097900390625,1.2698426611328124
-0.148722265625,0.1314405859375,1.390022529296875
-0.2416034765625,0.216732021484375,1.4549049121093751
-0.23114826171875,0.16207687744140625,1.4671932421875
-0.3048210546875,0.17335103271484376,1.5146261962890626
-0.3933256640625,0.13560712158203125,1.3244028466796876
-0.24136033203125,0.17090012939453125,1.2629611962890626
-0.343237890625,0.1446754638671875,1.38953099609375
-0.16938955078125,0.13536203125,1.4514641796875
-0.08623412109375,0.01551285888671875,1.4635067431640625
-0.019369375,0.0436982470703125,1.4885749365234375
-0.14458880859375,0.030708459472656248,1.4750577734374999
-0.14361623046875,0.1706550390625,1.473091640625
-0.1307295703125,0.20815385986328125,1.3452930078125
-0.22774423828125,-0.00850599365234375,1.466701708984375
-0.23139140625,0.21109494384765626,1.5549319189453126
-0.2333365625,0.2900140307617187,1.4160737890625
-0.24184662109375,0.25888755859375,1.2973685205078125
-0.26081189453125,0.27824969482421874,1.323665546875
-0.21801845703125,0.2358490673828125,1.3991158935546875
-0.387976484375,0.230457080078125,1.5581268847656249
-0.4818302734375,0.20864404052734375,1.3573355712890625
-0.32257060546875,0.2789849658203125,1.076424345703125
-0.22579908203125,0.2711420751953125,0.9262609521484375
-0.19127255859375,0.14590091552734374,0.9803296044921875
-0.2299325390625,0.08021670654296875,1.155069658203125
-0.1944334375,0.16452778076171876,1.1985703466796875
-0.2172890234375,0.2691813525390625,1.013508095703125
-0.2318776953125,0.1436951025390625,0.846386806640625
-0.26154132812499997,0.21207530517578124,0.868014267578125
-0.21510072265625,0.1593808837890625,0.8766160986328125
-0.25303126953125,0.1407540185546875,0.884726396484375
-0.2425760546875,0.114774443359375,0.88030259765625
-0.203186640625,0.140263837890625,0.814928681640625
-0.23212083984375,0.06355056396484375,0.8289373779296875
-0.2406308984375,0.16109651611328124,0.8962774267578125
-0.25983931640625,0.18658591064453126,0.749063232421875
-0.18884111328125,0.10178465576171875,0.715638974609375
-0.0879361328125,0.1123235400390625,0.67779091796875
-0.07188859375000001,0.019434304199218752,0.640925927734375
-0.06532369140625,-0.018554697265625,0.71318130859375
-0.084532109375,-0.030319033203124998,0.760860029296875
-0.1355924609375,0.104970830078125,0.7522581982421875
-0.13802390625,0.10595119140625,0.6709094531249999
-0.15285572265625,0.15692998046875,0.671400986328125
-0.11492517578125,0.10717664306640624,0.6052897705078125
-0.02715,0.0476196923828125,0.614383134765625
-0.02715,0.16207687744140625,0.5954591064453125
0.0171023046875,0.11011772705078125,0.623722265625
0.02074947265625,0.08119706787109375,0.673367119140625
-0.02131453125,0.23462361572265625,0.7797840576171875
-0.04052294921875,0.220653466796875,0.750046298828125
-0.05073501953125,0.2456526806640625,0.821810146484375
-0.09644619140624999,0.20570295654296875,0.7758517919921875
-0.04465640625,0.2211436474609375,0.723503505859375
-0.0159653515625,0.2289865380859375,0.676316318359375
-0.0232596875,0.24344686767578125,0.6937657470703125
-0.0777240625,0.218692744140625,0.7768348583984375
-0.15066742187499998,0.2221240087890625,0.8785822314453124
-0.13048642578125,0.22776108642578125,0.8707177001953125
-0.14629082031250001,0.2662402685546875,0.8736668994140625
-0.07407689453124999,0.25766210693359376,0.85277673828125
-0.044899550781250006,0.25104466796875,0.7942842871093749
-0.04830357421875,0.26256391357421877,0.79182662109375
-0.06872771484375,0.24687813232421876,0.905370791015625
-0.09158330078125,0.30471945068359374,0.8972604931640625
-0.10763083984374999,0.306925263671875,0.9936010009765625
-0.12708240234375,0.3044743603515625,1.0167030615234376
-0.12635296875,0.344178994140625,0.9714820068359376
-0.112736875,0.2917296630859375,0.9604225097656249
-0.10106593750000001,0.2809456884765625,0.8014115185546875
-0.1555303125,0.252025029296875,0.757419296875
-0.1958923046875,0.14933218017578126,0.8584293701171875
-0.119544921875,0.224574912109375,0.7768348583984375
-0.119544921875,0.23413343505859374,0.81935248046875
-0.06483740234375,0.24442722900390626,0.954524111328125
-0.0597313671875,0.2887885791015625,1.0700344140625
-0.07966921874999999,0.2682009912109375,1.20274837890625
-0.15236943359375,0.2750635205078125,1.3307927783203124
-0.21364185546875,0.28658276611328126,1.2275708056640624
-0.2873146484375,0.2787398754882813,1.09264494140625
-0.2989855859375,0.2927100244140625,1.0781447119140626
-0.26616107421875,0.34442408447265627,1.125577666015625
-0.26761994140625,0.38363853759765626,1.2555881982421875
-0.27029453125,0.3824130859375,1.26959689453125
-0.158448046875,0.39736359619140627,1.25190169921875
-0.1103054296875,0.3858443505859375,1.2673849951171876
-0.15164,0.37579564697265627,1.2300284716796874
-0.14215736328125,0.32947357421875,1.1577730908203125
-0.22361078125,0.25570138427734374,1.156052724609375
-0.31284482421875,0.10325519775390625,1.1941465478515625
-0.27272597656249997,0.0280124658203125,1.122628466796875
-0.26032560546875,0.05497240234375,1.064136015625
-0.2513292578125,0.008895419921875,1.028745625
-0.125380390625,0.03168882080078125,0.950591845703125
-0.07456318359375,0.159871064453125,0.9070911572265625
-0.07383375,0.0780108935546875,0.963371708984375
-0.006239570312500001,0.1701648583984375,1.0039231982421875
0.00956482421875,0.17261576171875,1.0889584423828125
-0.08744984375,0.06747200927734374,1.2300284716796874
-0.18446451171875,0.1966346142578125,1.2671392285156249
-0.25011353515625,0.14516564453125,1.1565442578125
-0.230418828125,0.13707766357421874,1.226833505859375
-0.27977716796875,0.18854663330078125,1.1533492919921875
-0.38700390625000003,0.06257020263671875,1.0211268603515624
-0.333512109375,-0.01169216796875,0.9508376123046876
-0.20537494140625,0.00963069091796875,0.8653108349609375
-0.22434021484375,0.09737302978515625,0.9356000830078125
-0.1851939453125,0.0711483642578125,1.0132623291015626
-0.23309341796875,0.13462676025390624,1.1041959716796874
-0.34348103515625,0.22138873779296875,1.1690783544921874
-0.4156949609375,0.13364639892578126,1.09952640625
-0.40913005859375,0.0750698095703125,0.9862280029296875
-0.34493990234375,0.009140510253906251,0.8328696435546875
-0.2552195703125,0.02972809814453125,0.6768078515625
-0.18543708984375,0.0613447509765625,0.550483818359375
-0.195406015625,0.10276501708984374,0.5335259228515625
-0.28950294921874997,0.07972652587890625,0.4676604736328125
-0.33813185546875,0.0012976196289062499,0.6967149462890625
-0.41350666015625,0.038306259765625,1.0346440234375
-0.26640421875,0.183399736328125,1.1317218310546875
-0.187625390625,0.28707294677734374,1.102967138671875
-0.312115390625,0.14394019287109375,1.008592763671875
-0.36366203125,0.19933060791015625,0.9518206787109375
-0.3213548828125,0.2436919580078125,0.931913583984375
-0.31819400390625,0.20717349853515626,0.8908705615234375
-0.36147373046875,0.1534987158203125,0.927981318359375
-0.23260712890625002,0.11649007568359375,0.8844806298828125
-0.1453182421875,0.04590406005859375,0.77806369140625
-0.27053767578125,0.0740894482421875,0.765283828125
-0.35344996093750003,0.0593840283203125,0.8250051123046875
-0.38384302734375,0.02335574951171875,0.9916348681640625
-0.42858162109375,0.11894097900390625,1.1096028369140625
-0.4225030078125,0.0927163134765625,1.107882470703125
-0.3184371484375,0.08315779052734375,1.0643817822265624
-0.2834243359375,0.10913736572265625,1.0309575244140625
-0.33083751953125,0.15864561279296874,0.984016103515625
-0.35174794921875,0.0922261328125,0.878827998046875
-0.27272597656249997,0.07482471923828125,0.8304119775390625
-0.21947732421875,0.02139502685546875,0.8144371484375
-0.14118478515625,0.07041309326171875,0.804114951171875
-0.15066742187499998,0.13854820556640626,0.90586232421875
-0.23552486328125,0.030708459472656248,1.00220283203125
-0.28585578125,0.0593840283203125,1.03562708984375
-0.32548833984375003,0.11379408203125,1.0117877294921875
-0.4283384765625,0.08658905517578125,0.994829833984375
-0.43149935546875,0.04247279541015625,0.9714820068359376
-0.360744296875,0.0289928271484375,0.8761245654296875
-0.30530734375,0.0451687890625,0.7851909228515626
-0.23139140625,-0.0009081933593750001,0.7630719287109375
-0.190543125,0.04443351806640625,0.76233462890625
-0.15869119140625,0.1240878759765625,0.765283828125
-0.1929745703125,0.1672237744140625,0.8068183837890625
-0.25205869140625,0.15423398681640624,0.84097994140625
-0.1399690625,0.18217428466796876,0.841471474609375
-0.1589343359375,0.2485937646484375,0.947642646484375
-0.1764407421875,0.3387870068359375,1.09952640625
-0.18689595703125,0.38854034423828127,1.3020380859375
-0.2386857421875,0.43559768798828125,1.468667841796875
-0.268349375,0.472606328125,1.5922884423828125
-0.296554140625,0.403000673828125,1.343818408203125
-0.28609892578125,0.37481528564453126,1.149171259765625
-0.27296912109375,0.34834552978515626,1.0987891064453126
