ax,ay,az
0.14596890625,-0.0749254736328125,0.8970147265625
0.14475318359375,-0.1121792041015625,1.0560257177734376
-0.20440236328125,-0.216587685546875,1.09854333984375
-0.15674603515625,-0.3160943603515625,1.035135556640625
0.10974037109375,-0.1680597998046875,0.9523122119140625
0.13040765625,-0.1229631787109375,1.1091113037109375
-0.13607875,-0.19722554931640626,1.325140146484375
-0.16258150390625,-0.08350363525390625,1.0835515771484374
-0.331566953125,-0.1259042626953125,0.7537327978515624
-0.3378887109375,-0.10409122314453124,0.7080202099609375
-0.21121041015625,-0.10997339111328125,0.7613515625
-0.0451426953125,-0.1239435400390625,0.9532952783203125
-0.05657048828125,-0.144040947265625,1.1801378515625
-0.2309051171875,-0.16585398681640626,1.278936025390625
-0.16890326171875,-0.092081796875,1.0904330419921875
-0.0315266015625,0.00865032958984375,1.037101689453125
-0.03274232421875,-0.00703545166015625,1.245511767578125
-0.08963814453125,0.142224560546875,1.3730646337890624
-0.1968648828125,0.08021670654296875,1.3177671484375
-0.25983931640625,-0.0729647509765625,0.958456376953125
-0.3271903515625,-0.10311086181640625,0.7443936669921875
-0.13413359375,-0.00311400634765625,0.6534600244140625
0.028286953125,0.062080021972656246,0.7807671240234375
-0.013047617187499999,0.012816865234374999,1.015474228515625
-0.2960678515625,-0.09967959716796874,1.1204165673828126
-0.28585578125,-0.0817880029296875,0.947642646484375
-0.127325546875,0.03659062744140625,0.8112421826171875
0.00421564453125,-0.06487677001953125,0.7704449267578125
0.0793473046875,-0.00213364501953125,0.9120064892578125
-0.070916015625,0.16673359375,1.151137392578125
-0.1725504296875,-0.0004180126953125,1.2260962060546876
-0.05073501953125,-0.10286577148437501,1.3366911767578125
-0.1229489453125,0.014777587890624999,1.3846156640625
-0.28853037109375,0.02237538818359375,1.215036708984375
-0.26470220703125,0.05717821533203125,1.0004824658203124
-0.29485212890625,-0.0249270458984375,0.8343442431640625
-0.13340416015625,-0.08742508056640624,0.6962234130859375
0.0919908203125,-0.013652890625,0.694011513671875
0.1104698046875,0.01183650390625,0.781504423828125
0.0774021484375,-0.1273748046875,0.850319072265625
0.014670859375000001,-0.17835359375,0.8431918408203125
0.07132353515625,-0.07713128662109375,0.861132802734375
0.001784199218750001,-0.0567887890625,0.8530225048828125
0.042389335937499995,-0.1719812451171875,0.8254966455078125
-0.09450103515625,-0.1660990771484375,1.0053977978515625
-0.21972046875,0.10031411376953125,1.1268064990234374
-0.190543125,0.13511694091796875,1.123611533203125
-0.2668905078125,0.18021356201171876,1.11230626953125
-0.2133987109375,0.1044806494140625,0.9665666748046875
-0.012561328125,0.10619628173828125,0.96288017578125
0.05868001953125,0.08953013916015624,0.9985163330078125
-0.03906408203125,0.13119549560546875,1.1346710302734375
-0.13923962890625,0.0760501708984375,1.3376742431640625
-0.31624884765625,-0.10727739746093751,1.203239912109375
-0.21315556640625,-0.116590830078125,0.985490703125
-0.28074974609375003,-0.0876701708984375,0.8078014501953125
-0.026420566406250002,-0.07958218994140626,0.6126627685546875
-0.1166271875,-0.0724745703125,0.68958771484375
-0.13607875,-0.0371815625,0.716622041015625
-0.199296328125,-0.16242272216796874,0.76233462890625
-0.33278267578125,-0.09526797119140624,0.8682600341796876
-0.3437241796875,-0.012427438964843749,0.8540055712890625
-0.10033650390625,-0.1484525732421875,0.7109694091796875
0.08761421875,-0.14232531494140624,0.8082929833984375
0.1503455078125,0.028257556152343752,1.046932353515625
0.08372390625000001,-0.06536695068359374,1.3396403759765625
-0.3777644140625,-0.1043363134765625,1.5431351220703124
-0.40815748046875,-0.1327667919921875,1.3524202392578124
-0.323786328125,-0.19771572998046874,1.0110504296875
-0.0777240625,-0.20776443359375,0.87047193359375
0.06889208984375,0.09345158447265625,0.930438984375
-0.07553576171875,-0.034240478515625,1.209138310546875
-0.25935302734375,-0.20384298828125,1.414599189453125
-0.428824765625,-0.076396015625,1.3219451806640625
-0.32013916015625,0.09810830078125,1.007609697265625
-0.179844765625,0.09345158447265625,0.7736398925781249
0.12967822265625,0.012816865234374999,0.6704179199218749
-0.039793515625,0.06796218994140625,0.7832247900390625
0.012239414062499999,-0.0915916162109375,0.813945615234375
-0.08744984375,-0.22173458251953124,0.9397781152343749
-0.18640966796875,-0.2347243701171875,0.9994993994140625
-0.040279804687500004,-0.2717330102539062,0.92159138671875
-0.06970029296875,-0.33251541259765627,1.0014655322265624
-0.12367837890625,-0.3523677294921875,1.1961126806640625
-0.1365650390625,-0.12933552734375,1.261240830078125
-0.428824765625,-0.0999246875,1.150154326171875
-0.43101306640625,0.0093856005859375,1.0756870458984376
-0.2347954296875,0.04149243408203125,0.82328474609375
0.04555021484375,0.112813720703125,0.8820229638671875
-0.02350283203125,0.220653466796875,1.1341794970703125
-0.06021765625,0.27824969482421874,1.3091653173828126
-0.20488865234375,0.17384121337890626,1.3057245849609376
-0.27345541015625,0.09149086181640625,1.0869923095703125
-0.07748091796875001,-0.11536537841796875,0.858183603515625
-0.035173769531249996,-0.25016506103515623,0.82328474609375
-0.2007551953125,-0.2160975048828125,0.7812586572265625
-0.06483740234375,-0.2494297900390625,0.80755568359375
-0.13607875,-0.233253828125,1.03562708984375
-0.35199109375,-0.201882265625,1.24796943359375
-0.368524921875,-0.24575343505859376,1.3293181787109374
-0.37800755859375,0.02139502685546875,1.2034856787109376
-0.267376796875,0.120656611328125,1.0004824658203124
-0.30871136718750003,-0.0151234326171875,0.859166669921875
-0.05365275390625,-0.013407800292968751,0.8262339453125
0.02220833984375,-0.016593974609375,0.8220559130859375
-0.11832919921875,-0.0837487255859375,0.890624794921875
0.06208404296875,0.04320806640625,0.9085657568359375
0.02074947265625,-0.06683749267578125,1.06806828125
-0.14556138671875,0.0182088525390625,1.24600330078125
-0.339347578125,0.0701680029296875,1.4305740185546876
-0.4589746875,0.13340130859375,1.40329392578125
-0.52146283203125,0.13217585693359374,1.2890124560546874
-0.4195852734375,-0.11585555908203125,0.97369390625
-0.31770771484375,-0.01978014892578125,0.7869112890625
-0.20464550781250002,0.0270321044921875,0.63256986328125
-0.059245078125,0.044188427734375,0.5042796972656249
-0.14507509765624998,-0.0651218603515625,0.5509753515625
-0.05657048828125,-0.17639287109375001,0.5885776416015625
0.040930468750000004,-0.20653898193359374,0.7891231884765625
0.13891771484374998,-0.16070708984375,1.074458212890625
0.13648626953125,-0.1435507666015625,1.16932412109375
0.001784199218750001,-0.28227189453125,1.198324580078125
-0.28026345703125,-0.21830331787109375,1.2231470068359376
-0.32986494140625,-0.10188541015625,0.9709904736328125
-0.23819945312500002,0.1133039013671875,0.853268271484375
-0.259596171875,0.12629368896484375,0.873912666015625
-0.23260712890625002,0.179478291015625,0.8662939013671875
-0.16890326171875,0.195164072265625,1.0425085546875
-0.0859909765625,0.07237381591796875,1.0982975732421876
-0.11784291015625001,0.0858537841796875,1.2403506689453125
-0.189570546875,0.14541073486328124,1.322190947265625
-0.16987583984375,-0.11291447509765624,1.18505318359375
-0.154557734375,-0.08227818359375,0.9913891015625
-0.2318776953125,-0.14820748291015626,0.8731753662109375
-0.003808124999999999,-0.2580079516601563,0.6765620849609375
0.14815720703125,-0.16070708984375,0.7365291357421875
0.09126138671875,-0.02737794921875,1.0432458544921874
-0.24184662109375,0.0010525292968750002,1.1543323583984375
-0.38870591796875,0.04933532470703125,1.2673849951171876
-0.5557462109375,0.0182088525390625,1.3961666943359374
-0.45702953125,0.12947986328125,1.159984990234375
-0.008671015625,0.03904153076171875,1.0545511181640626
0.03436556640625,0.1093824560546875,0.994829833984375
-0.01620849609375,0.1103628173828125,0.9297016845703125
-0.12951384765625001,-0.10580685546875,0.99630443359375
-0.0665394140625,-0.15457983154296875,1.0899415087890625
-0.0645942578125,-0.18938265869140625,0.96877857421875
-0.17911533203125,-0.13007079833984375,0.85474287109375
-0.1988100390625,-0.244037802734375,0.76233462890625
-0.0543821875,-0.27908572021484374,0.749554765625
-0.13194529296875,-0.030073942871093752,0.7729025927734375
-0.29582470703125,0.07261890625,0.7094948095703125
-0.23892888671875,0.11599989501953126,0.73874103515625
-0.057056777343750004,0.085363603515625,0.9360916162109375
0.06111146484375,0.106931552734375,1.1902142822265624
-0.08672041015625,0.1476165478515625,1.4772696728515624
-0.27929087890625,0.20717349853515626,1.5210161279296874
-0.11249373046875,0.02678701416015625,1.0597122167968749
-0.13583560546875,-0.108747939453125,0.7741314257812499
-0.19419029296875,-0.13717841796875,0.710232109375
0.042389335937499995,-0.2131564208984375,0.64043439453125
0.0783747265625,-0.30163403076171874,0.706791376953125
0.039957890625,-0.2844777075195313,0.888658662109375
-0.07845349609375,-0.24379271240234374,0.968287041015625
-0.26956509765625,-0.16830489013671876,0.8318865771484375
-0.1200312109375,-0.012672529296875,0.7323511035156249
0.094422265625,-0.02860340087890625,0.7711822265625
0.15763984375,0.010611052246093749,0.9611598095703124
0.01345513671875,0.2255552734375,1.3283351123046876
-0.12562353515625,0.05276658935546875,1.5392028564453124
-0.3339983984375,0.032424091796875,1.3617593701171875
-0.24087404296875,0.11452935302734375,1.0648733154296874
-0.15747546875,-0.12958061767578125,0.9638632421875
-0.24816837890625,-0.04330882080078125,0.9129895556640625
-0.0607039453125,0.04124734375,0.7655295947265625
0.06427234375,-0.03644629150390625,0.638959794921875
0.0025136328124999996,-0.04085791748046875,0.6077474365234374
-0.0889087109375,-0.00262382568359375,0.6709094531249999
-0.06532369140625,0.04345315673828125,0.8471241064453126
-0.10617197265625,0.05227640869140625,1.2737749267578125
-0.255705859375,-0.06144550537109375,1.394446328125
-0.206104375,-0.17247142578125,1.4335232177734376
-0.11249373046875,-0.04477936279296875,1.5406774560546874
-0.1414279296875,0.04541387939453125,1.2863090234375
-0.26640421875,0.0015427099609375003,0.8908705615234375
-0.0422249609375,-0.11634573974609375,0.7529954980468749
0.010294257812499999,-0.09722869384765626,0.8338527099609375
-0.1968648828125,-0.02615249755859375,0.8377849755859375
-0.18470765625,-0.01291761962890625,0.80067421875
0.09806943359375,0.0008074389648437498,0.749063232421875
0.1017166015625,0.02335574951171875,0.8825144970703125
-0.020828242187500002,0.0623251123046875,1.0975602734375
-0.05170759765625,-0.19918627197265626,1.129509931640625
-0.076751484375,-0.14379585693359376,1.3062161181640626
-0.26470220703125,-0.1195319140625,1.2324861376953125
-0.2824517578125,-0.11977700439453125,1.16539185546875
-0.26810623046875,-0.1915884716796875,1.151137392578125
-0.2309051171875,0.034384814453125,1.195375380859375
-0.11006228515625,0.04492369873046875,1.114763935546875
-0.10908970703125,-0.13129625,1.260749296875
0.05965259765625,-0.0974737841796875,1.343818408203125
-0.1589343359375,-0.0151234326171875,1.2855717236328126
0.03874216796875,-0.0876701708984375,0.9913891015625
0.0934496875,-0.049926259765625,0.8618701025390625
-0.14604767578125,-0.08056255126953125,0.97369390625
-0.09134015625,-0.07664110595703125,1.1297556982421875
-0.2960678515625,-0.17908886474609376,1.204222978515625
-0.06872771484375,0.0142874072265625,0.9992536328125
0.010294257812499999,-0.08644471923828125,0.98942296875
-0.0855046875,-0.06242586669921875,1.223884306640625
0.008592246093749999,0.0093856005859375,1.25780009765625
-0.2649453515625,-0.08693489990234375,1.35414060546875
-0.24184662109375,-0.1710008837890625,1.10444173828125
-0.21023783203125002,-0.09134652587890625,0.8616243359375
-0.160393203125,0.03462990478515625,0.79575888671875
-0.22920310546875,-0.044044091796875,0.7463597998046875
-0.16987583984375,0.10080429443359375,0.7075286767578125
-0.07310431640625001,0.053992041015625,0.658621123046875
0.08591220703124999,0.00987578125,0.850319072265625
-0.013290761718750002,0.1299700439453125,1.22044357421875
-0.42274615234375,0.03266918212890625,1.532075625
-0.29971501953125,-0.08987598388671875,1.36397126953125
-0.1725504296875,0.026541923828125,1.1395863623046876
-0.12756869140625,-0.18252012939453124,0.96877857421875
-0.10374052734375,-0.21193096923828125,0.922574453125
-0.2620276171875,-0.20849970458984374,0.7984623193359375
-0.21193984375,-0.17418705810546875,0.647807392578125
-0.16063634765625,-0.13252170166015625,0.5851369091796875
-0.206104375,-0.02762303955078125,0.49100830078125
-0.0067258593750000005,-0.0406128271484375,0.450211044921875
0.12092501953125,-0.03693647216796875,0.5460600195312499
-0.026420566406250002,0.11158826904296874,0.87637033203125
-0.2668905078125,0.169674677734375,1.1513831591796875
-0.3816547265625,0.220653466796875,1.311377216796875
-0.28318119140625,0.19393862060546874,1.482430771484375
-0.03614634765625,0.015022678222656249,1.392971728515625
-0.2027003515625,-0.03252484619140625,1.11820466796875
-0.22701480468750002,-0.0523771630859375,1.0216183935546874
-0.27637314453125,-0.15016820556640625,0.8038691845703125
-0.0538958984375,-0.19428446533203125,0.638959794921875
-0.005753281249999999,-0.147962392578125,0.7861739892578125
-0.04465640625,-0.1504132958984375,0.984016103515625
-0.16185207031249998,-0.15948163818359376,1.093136474609375
-0.34104958984375,-0.09232688720703125,1.154578125
-0.42177357421875,-0.1259042626953125,0.9434646142578125
-0.25546271484375,-0.2631548486328125,0.7328426367187499
-0.06289224609374999,-0.2690370166015625,0.5585941162109375
0.07983359375,-0.173451787109375,0.5047712304687499
0.12262703125,-0.118551552734375,0.5566279833984376
0.1007440234375,-0.093062158203125,0.7522581982421875
0.11265810546874999,-0.20653898193359374,1.139340595703125
-0.42590703125,-0.20310771728515625,1.3216994140625
-0.5679034375,-0.07051384765625,1.4281163525390626
-0.3330258203125,0.165753232421875,1.2978600537109375
-0.25886673828125,0.15668489013671874,1.3091653173828126
-0.2338228515625,0.02041466552734375,1.2369099365234375
-0.2153438671875,0.1201664306640625,1.2128248095703125
-0.27613,-0.013652890625,1.0395593554687501
-0.26810623046875,-0.139139140625,0.8812856640625
-0.27345541015625,-0.167569619140625,0.7448852001953125
-0.02593427734375,-0.0259074072265625,0.7365291357421875
-0.09255587890625,0.13536203125,0.8476156396484374
-0.15431458984375,0.10962754638671875,0.9407611816406249
-0.07991236328125,-0.09012107421875,1.0461950537109375
-0.08574783203125,-0.13840386962890625,1.3966582275390624
-0.181789921875,-0.00703545166015625,1.5490335205078125
-0.19467658203125,-0.0415931884765625,1.3799460986328125
-0.3967296875,-0.08056255126953125,1.12803533203125
-0.42663646484375,-0.1111988427734375,0.841471474609375
-0.3485870703125,-0.1445311279296875,0.72301197265625
-0.183735078125,-0.040122646484374996,0.743164833984375
-0.08428896484375001,-0.1680597998046875,0.89406552734375
-0.0932853125,-0.1210024560546875,0.8943112939453125
-0.038577792968749997,-0.14894275390625,0.8186151806640625
0.0287732421875,-0.20310771728515625,0.7942842871093749
0.02123576171875,-0.23521455078125,0.8977520263671875
-0.08039865234375,-0.1131595654296875,1.023338759765625
-0.08283009765625,-0.06193568603515625,1.037101689453125
0.0258555078125,-0.0097314453125,1.2548508984375
-0.16890326171875,0.01796376220703125,1.372327333984375
-0.40232201171875,-0.0543378857421875,1.1626884228515626
-0.28658521484375,-0.08252327392578125,0.8726838330078125
-0.12270580078125,-0.024436865234375,0.7321053369140624
-0.090367578125,-0.12124754638671875,0.733334169921875
-0.170118984375,-0.2062938916015625,0.78789435546875
-0.112736875,-0.0803174609375,0.8576920703124999
0.03728330078125,-0.16977543212890625,0.9284728515625
0.06840580078125,-0.19722554931640626,1.138357529296875
-0.14580453125,-0.1822750390625,1.3268605126953126
-0.022530253906250002,0.0417375244140625,1.0422627880859374
-0.05632734375,0.15913579345703124,0.908319990234375
-0.22677166015625,0.182419375,1.162934189453125
-0.3067662109375,0.17090012939453125,1.176697119140625
-0.16404037109375,0.22040837646484374,1.2605035302734375
-0.212912421875,0.30226854736328124,1.391005595703125
-0.49204234375,0.18168410400390625,1.3244028466796876
-0.26761994140625,-0.0268877685546875,1.0368559228515626
-0.15042427734375,-0.0317895751953125,0.861132802734375
-0.05219388671875,-0.04919098876953125,0.7212916064453125
-0.0276362890625,-0.18644157470703124,0.623722265625
0.030232109375,-0.2543315966796875,0.6873758154296875
-0.02204396484375,-0.31364345703125,0.8156659814453124
-0.053409609375,-0.30187912109375,0.938303515625
0.13210966796875,-0.09330724853515625,1.2639442626953126
-0.0354169140625,0.07090327392578125,1.7041122460937501
-0.37581925781250003,-0.08448399658203125,1.7977493212890625
-0.60486140625,-0.00654527099609375,1.3730646337890624
-0.42858162109375,0.00227798095703125,0.8569547705078124
-0.0310403125,-0.12173772705078124,0.5352462890625
0.167365625,-0.0876701708984375,0.6387140283203125
0.090531953125,-0.01291761962890625,0.946659580078125
-0.2523018359375,-0.0945327001953125,1.0540595849609375
-0.216802734375,-0.14918784423828124,1.121645400390625
-0.15723232421875,-0.1102184814453125,1.18603625
-0.1088465625,-0.163648173828125,0.9754142724609375
0.057707441406250004,0.10521592041015625,1.0582376171875
-0.057543066406249996,0.0936966748046875,1.082322744140625
-0.2960678515625,-0.03595611083984375,0.977134638671875
-0.331566953125,-0.13105115966796876,0.7507835986328125
-0.24281919921875,-0.15286419921875,0.4642197412109375
-0.08331638671875,-0.08301345458984374,0.4219478857421875
0.04992681640625,-0.00213364501953125,0.5571195166015624
0.1124149609375,-0.013407800292968751,0.8419630078125
-0.04198181640625,-0.1445311279296875,1.1538408251953125
-0.19224513671875,-0.10850284912109374,1.4232010205078125
-0.1706052734375,0.040266982421875,1.5200330615234374
-0.2255559375,0.1211467919921875,1.262223896484375
-0.2163164453125,0.14124419921875,0.94715111328125
-0.190543125,0.06355056396484375,0.84786140625
-0.2022140625,-0.08619962890625,0.850319072265625
-0.22579908203125,-0.09183670654296874,0.8368019091796874
-0.04344068359375,-0.2111956982421875,0.633061396484375
0.125544765625,-0.14232531494140624,0.5423735205078125
0.0608683203125,-0.17369687744140624,0.6382224951171875
-0.1482359765625,-0.169530341796875,0.80755568359375
-0.3067662109375,-0.1464918505859375,0.7424275341796875
0.0778884375,-0.089140712890625,0.7478343994140625
0.18122486328125,-0.013407800292968751,1.036118623046875
0.20019013671875,-0.01585870361328125,1.3691323681640626
0.14086287109375,-0.0190448779296875,1.571889814453125
-0.07942607421875,0.03462990478515625,1.6409502294921876
-0.345183046875,-0.13325697265625,1.2457575341796876
-0.3009307421875,-0.12149263671875,1.013508095703125
-0.29825615234375,-0.11757119140625,0.9272440185546875
-0.10714455078125,-0.08056255126953125,0.9778719384765625
0.00980796875,0.013552136230468751,1.0110504296875
-0.2192341796875,-0.11561046875,0.900455458984375
-0.15674603515625,-0.027868129882812502,0.8967689599609375
-0.0976619140625,-0.1665892578125,0.8970147265625
0.0248829296875,0.18168410400390625,1.030220224609375
-0.051464453125000004,0.242221416015625,1.0919076416015625
-0.11395259765625,0.1780077490234375,1.1562984912109375
-0.03274232421875,0.0505607763671875,1.2147909423828125
0.10828150390624999,0.0564429443359375,1.2472321337890624
-0.0621628125,0.14001874755859375,1.5455927880859375
-0.29509527343749997,-0.10580685546875,1.560093017578125
-0.40378087890625003,-0.06487677001953125,1.4829223046875
-0.501768125,-0.1268846240234375,1.126560732421875
-0.38578818359375,-0.22173458251953124,0.8613785693359375
-0.1944334375,-0.18938265869140625,0.6917996142578124
0.1007440234375,-0.15286419921875,0.725961171875
0.21234736328125,-0.0906112548828125,0.8377849755859375
0.16858134765625,-0.15899145751953125,1.039067822265625
-0.041738671875,-0.3386426708984375,1.2334692041015625
-0.15966376953125,-0.1955099169921875,1.3497168066406249
-0.076751484375,0.09933375244140626,1.18701931640625
-0.23260712890625002,0.0633054736328125,1.073475146484375
-0.0782103515625,0.1079119140625,0.9872110693359375
-0.20780638671875,0.15913579345703124,1.038084755859375
-0.080641796875,0.14516564453125,1.2064348779296874
-0.15869119140625,-0.1004148681640625,1.2781987255859375
-0.4215304296875,-0.173451787109375,1.2634527294921876
-0.325731484375,-0.19575500732421874,0.8572005371093749
-0.09085386718749999,-0.0994345068359375,0.60504400390625
0.03874216796875,-0.057278969726562504,0.6057813037109375
0.07521384765625,-0.1200220947265625,0.793301220703125
0.02074947265625,-0.0817880029296875,1.11427240234375
0.09320654296875,-0.0513968017578125,1.4163195556640624
-0.0733474609375,-0.024436865234375,1.724756640625
-0.3889490625,0.0476196923828125,1.6330856982421875
-0.2853694921875,0.0809519775390625,1.167849521484375
-0.28755779296875,0.116735166015625,0.8267254785156251
-0.2610550390625,0.0809519775390625,0.7517666650390625
0.04992681640625,0.01257177490234375,0.75643623046875
0.0209926171875,0.0608545703125,0.988931435546875
-0.09352845703125,0.0020328906249999995,0.9835245703125
-0.24816837890625,-0.07958218994140626,1.056763017578125
-0.24525064453125,-0.10556176513671875,1.1297556982421875
-0.1861665234375,-0.12149263671875,1.012525029296875
-0.1900568359375,-0.077376376953125,0.882760263671875
0.02609865234375,0.0015427099609375003,0.7463597998046875
0.09077509765625,0.10595119140625,0.8775991650390624
-0.0743200390625,-0.118551552734375,1.0801108447265624
-0.21461443359375,-0.26634102294921874,1.1970957470703125
-0.3495596484375,-0.08007237060546875,1.2260962060546876
-0.16549923828125,-0.2567825,1.1010010058593749
-0.24136033203125,-0.16340308349609375,1.227816572265625
-0.35028908203125,-0.12516899169921875,1.13000146484375
-0.11079171875,-0.13717841796875,0.94125271484375
-0.1229489453125,-0.0621807763671875,0.9513291455078126
-0.23163455078125,-0.09232688720703125,0.8859552294921875
-0.3057936328125,-0.091101435546875,0.78396208984375
-0.11225058593750001,-0.15286419921875,0.6878673486328125
-0.0811280859375,-0.016593974609375,0.65616345703125
-0.0461152734375,-0.08399381591796876,0.598654072265625
-0.00696900390625,-0.14109986328125,0.71907970703125
-0.013777050781250001,-0.2229600341796875,0.8790737646484375
-0.18592337890625,-0.17712814208984376,1.113780869140625
-0.23260712890625002,-0.142080224609375,1.255342431640625
-0.304334765625,-0.2406065380859375,1.277952958984375
-0.3267040625,-0.1161006494140625,1.103950205078125
-0.2488978125,0.14933218017578126,0.9886856689453125
-0.19759431640625,0.0966377587890625,1.095102607421875
-0.0859909765625,-0.067572763671875,1.292207421875
-0.16938955078125,0.09002031982421875,1.406734658203125
-0.040766093749999996,0.03168882080078125,1.1415524951171876
-0.22750109375,-0.0710040283203125,1.0284998583984375
-0.366579765625,-0.0960032421875,0.851302138671875
-0.26640421875,-0.2131564208984375,0.6699263867187499
-0.05802935546875,-0.2844777075195313,0.6111881689453125
-0.0927990234375,-0.27246828125,0.6667314208984375
-0.0587587890625,-0.238155634765625,0.6047982373046875
-0.09547361328125001,-0.25849813232421875,0.609467802734375
-0.11443888671875,-0.144040947265625,0.764792294921875
-0.14750654296875,-0.09820905517578125,0.9434646142578125
-0.0714023046875,-0.05556333740234375,1.1997991796875
-0.2892598046875,0.0883046875,1.3932174951171874
-0.46213556640625,0.02090484619140625,1.4084550244140626
-0.4166675390625,-0.1665892578125,1.07298361328125
-0.08574783203125,-0.157766005859375,0.839505341796875
-0.1477496875,-0.0543378857421875,0.59717947265625
-0.03420119140625,0.0074248779296875,0.5055085302734375
0.051385683593749995,0.0829127001953125,0.58931494140625
-0.03566005859375,0.0917359521484375,0.8734211328125
-0.27418484375,-0.07958218994140626,1.1145181689453125
-0.50152498046875,-0.1131595654296875,1.2548508984375
-0.34980279296875,-0.01144707763671875,1.1440101611328124
-0.2124261328125,0.0936966748046875,1.012525029296875
-0.25254498046875,0.08756941650390625,1.0806023779296874
-0.30166017578125,-0.08350363525390625,1.0324321240234375
-0.2484115234375,-0.12222790771484375,1.000728232421875
0.0025136328124999996,-0.15703073486328126,0.9282270849609375
0.047981660156249994,0.050070595703125,0.8805483642578125
0.06062517578125,0.09933375244140626,0.9999909326171875
-0.259596171875,-0.07271966064453125,1.1096028369140625
-0.33375525390625,0.07335417724609375,1.277952958984375
-0.2814791796875,0.19344843994140626,1.24600330078125
-0.12465095703125,-0.028113220214843748,1.2310115380859374
-0.268349375,0.028502646484374998,1.2587831640625
-0.24865466796875,-0.06046514404296875,1.0309575244140625
-0.25205869140625,-0.0592396923828125,0.9972875
-0.38724705078125,-0.04526954345703125,0.9990078662109375
-0.39648654296875,0.10668646240234375,1.1317218310546875
-0.34104958984375,0.07629526123046874,1.187510849609375
-0.1399690625,-0.042083369140625,1.0717547802734375
-0.09912078125,0.00178780029296875,1.0270252587890625
0.0190474609375,-0.01291761962890625,0.9827872705078124
0.006403945312499999,-0.0798272802734375,1.0039231982421875
-0.08817927734375,-0.13840386962890625,1.246494833984375
-0.26324333984375,-0.02272123291015625,1.52126189453125
-0.4682141796875,-0.17026561279296876,1.5313383251953125
-0.413263515625,-0.1210024560546875,1.3902682958984376
-0.24695265625,-0.18521612304687501,1.2157740087890625
-0.15091056640625,-0.14722712158203125,0.9768888720703125
-0.22531279296875,-0.10556176513671875,0.8451579736328125
-0.2980130078125,-0.09036616455078125,0.8210728466796875
-0.3874901953125,-0.08497417724609375,0.7984623193359375
-0.36390517578125,0.015022678222656249,0.7512751318359375
-0.28853037109375,0.018699033203125,0.6141373681640625
-0.01912623046875,0.00276816162109375,0.6436293603515625
0.05965259765625,0.0309535498046875,0.6662398876953125
-0.16209521484375,0.0686974609375,0.8028861181640625
-0.32937865234375,-0.0063001806640625,0.868014267578125
-0.2882872265625,-0.146001669921875,0.8200897802734375
-0.28998923828125,-0.081297822265625,0.7650380615234375
-0.14215736328125,-0.04968116943359375,0.7117067089843749
0.05333083984375,-0.03154448486328125,0.78396208984375
-0.014992773437499999,-0.057278969726562504,1.03661015625
-0.33642984375,-0.07615092529296875,1.1803836181640626
-0.51514107421875,-0.1298257080078125,1.22634197265625
-0.48353228515625,-0.2004117236328125,1.068559814453125
-0.0011335351562500005,-0.11242429443359375,0.76233462890625
0.041416757812499996,-0.04306373046875,0.6686975537109375
-0.010616171875,-0.1023755908203125,0.6079932031249999
-0.06191966796875,-0.2396261767578125,0.681231650390625
-0.049762441406249996,-0.08105273193359375,0.8313950439453125
-0.2172890234375,0.0985984814453125,1.0240760595703124
-0.28269490234375,-0.14232531494140624,0.995812900390625
-0.1321884375,0.0191892138671875,1.0968229736328126
-0.3096839453125,0.167713955078125,1.1422897949218749
-0.33472783203125,0.2142811181640625,1.143272861328125
-0.3388612890625,0.2397705126953125,1.15359505859375
-0.2960678515625,0.22678072509765626,1.12606919921875
-0.25692158203125,0.0868341455078125,0.9351085498046875
-0.20804953125,0.10815700439453126,0.8318865771484375
-0.17376615234375,0.13707766357421874,0.79379275390625
-0.03955037109375,-0.0009081933593750001,0.8078014501953125
-0.22239505859375,-0.008996174316406251,0.9439561474609375
-0.26640421875,0.05668803466796875,1.036118623046875
-0.12829812499999999,0.01575794921875,1.1140266357421875
-0.1200312109375,-0.03252484619140625,1.1449932275390624
-0.1258666796875,-0.0415931884765625,1.2821309912109375
-0.31187224609374997,-0.1141399267578125,1.182595517578125
-0.3612305859375,0.0623251123046875,1.1238572998046874
-0.3126016796875,0.13536203125,1.0850261767578124
-0.3573402734375,0.01894412353515625,1.063644482421875
-0.46553958984375,0.0922261328125,1.105916337890625
-0.2892598046875,-0.13399224365234375,0.913235322265625
-0.024475410156250002,0.02237538818359375,0.816894814453125
0.02415349609375,-0.08301345458984374,0.818860947265625
0.007376523437500001,-0.193059013671875,0.828200078125
-0.1793584765625,-0.19918627197265626,1.054796884765625
-0.39405509765625,-0.212666240234375,1.065610615234375
-0.15164,-0.16928525146484374,0.8989808593749999
-0.16549923828125,-0.00458454833984375,0.9582106103515625
-0.08769298828125,0.01110123291015625,0.991880634765625
-0.21121041015625,-0.02664267822265625,0.9886856689453125
-0.302389609375,0.1549692578125,1.1381117626953126
-0.35977171875,0.208889130859375,1.3688866015625
-0.117599765625,-0.067572763671875,1.317275615234375
-0.2163164453125,-0.0151234326171875,1.3089195507812499
-0.31284482421875,0.21893783447265625,1.16342572265625
-0.31381740234375,-0.02027032958984375,0.89996392578125
-0.08307324218750001,-0.01095689697265625,0.8810398974609375
-0.12416466796875,0.05031568603515625,1.056763017578125
-0.13097271484375,-0.12761989501953125,1.042017021484375
-0.2873146484375,-0.20457825927734374,0.9626344091796875
-0.3709563671875,-0.13889405029296875,0.7060540771484375
-0.2299325390625,-0.1430605859375,0.47134697265625
0.010537402343749998,-0.1621776318359375,0.4153121875
0.1046343359375,-0.0915916162109375,0.59914560546875
-0.092312734375,0.0456589697265625,1.0461950537109375
-0.41399294921875,0.0037485229492187503,1.1258234326171874
-0.4993366796875,0.0015427099609375003,1.226833505859375
-0.27977716796875,0.04492369873046875,1.0147369287109376
-0.089395,0.12237224365234375,0.8962774267578125
-0.1813036328125,-0.04379900146484375,0.6947488134765625
-0.0558410546875,0.05668803466796875,0.640925927734375
0.01685916015625,0.0770305322265625,0.78789435546875
-0.13875333984375,0.0397768017578125,1.0346440234375
-0.179844765625,-0.120512275390625,1.1661291552734374
-0.41302037109375,-0.067572763671875,1.0132623291015626
-0.16938955078125,0.153988896484375,0.870963466796875
-0.18689595703125,0.01698340087890625,0.8874298291015625
-0.08988128906250001,-0.0043394580078125,1.021372626953125
-0.31430369140625003,0.16011615478515626,1.2280623388671874
-0.218747890625,0.06060947998046875,1.0747039794921875
-0.2542469921875,0.02580665283203125,1.0250591259765625
-0.15066742187499998,-0.02762303955078125,0.8628531689453125
-0.11103486328125,0.15766525146484375,0.8510563720703125
-0.18884111328125,0.11158826904296874,0.95501564453125
-0.23941517578125,-0.02664267822265625,1.1209081005859376
-0.1317021484375,0.1191860693359375,1.243545634765625
-0.115654609375,0.12041152099609376,1.1671122216796874
-0.2250696484375,0.026296833496093748,1.0938737744140625
-0.17522501953125,0.00399361328125,1.0348897900390626
-0.39405509765625,0.04345315673828125,1.0425085546875
-0.23455228515625,0.05717821533203125,1.0771616455078126
-0.28220861328125,0.0564429443359375,1.2767241259765625
-0.47040248046875,0.0162481298828125,1.2142994091796875
-0.3330258203125,0.0035034326171875,0.984999169921875
-0.0655668359375,-0.0739451123046875,0.8962774267578125
0.037526445312500004,-0.05090662109375,0.93338818359375
-0.05948822265625,0.05889384765625,1.0948568408203125
-0.01815365234375,0.04247279541015625,1.340869208984375
-0.1229489453125,-0.1955099169921875,1.3691323681640626
-0.255705859375,0.05105095703125,1.4045227587890625
-0.485234296875,-0.042328459472656246,1.216019775390625
-0.358799140625,-0.1729616064453125,1.003677431640625
-0.1832487890625,-0.1141399267578125,1.0289913916015625
-0.070916015625,0.1157548046875,1.2093840771484374
-0.29096181640625,-0.171491064453125,1.224867373046875
-0.48110083984375,-0.167569619140625,1.2383845361328125
-0.37144265625,0.030463369140625002,0.8844806298828125
-0.1083602734375,0.104970830078125,0.74857169921875
0.013941425781249999,0.0887948681640625,0.7925639208984375
-0.1944334375,0.09443194580078125,0.90389619140625
-0.09595990234375,0.0593840283203125,0.8559717041015625
-0.21655958984375,0.00619942626953125,0.8456495068359375
-0.103983671875,0.0035034326171875,0.876861865234375
-0.05365275390625,-0.0018885546875000003,0.92748978515625
-0.15285572265625,0.05325677001953125,1.1199250341796876
-0.33983386718749997,0.0750698095703125,1.1341794970703125
-0.34226531250000003,0.0907555908203125,1.043983154296875
-0.39016478515624997,-0.05090662109375,0.858183603515625
-0.13243158203125,-0.05703387939453125,0.714655908203125
-0.055354765624999996,-0.0376717431640625,0.659604189453125
-0.08355953125,-0.0925719775390625,0.7031048779296875
-0.0723748828125,-0.06487677001953125,0.69351998046875
-0.04100923828125,-0.04477936279296875,0.718096640625
-0.1103054296875,-0.154824921875,0.678282451171875
-0.212912421875,-0.044044091796875,0.701876044921875
-0.097175625,0.03757098876953125,0.6913080810546874
0.0623271875,0.057668395996093746,0.760860029296875
0.0545465625,0.13511694091796875,0.8970147265625
-0.0986344921875,0.07261890625,0.990897568359375
-0.3767918359375,0.093206494140625,1.0565172509765626
-0.30506419921875,0.2182025634765625,1.0589749169921876
-0.3369161328125,0.096147578125,0.9591936767578125
-0.33959072265625,0.08953013916015624,1.0457035205078125
-0.37581925781250003,0.077520712890625,1.1548238916015625
-0.1307295703125,0.122617333984375,1.0663479150390625
-0.08283009765625,0.1863408203125,1.1054248046875
0.03825587890625,0.0211499365234375,1.1604765234375
0.054789707031249996,0.1829095556640625,1.3514371728515624
-0.15164,0.2878082177734375,1.4644898095703125
-0.37460353515625,0.12433296630859375,1.21847744140625
-0.43636224609375,0.052031318359375,1.0582376171875
-0.4020788671875,0.08364797119140625,0.8972604931640625
-0.3972159765625,0.03413972412109375,0.699909912109375
-0.25254498046875,0.06943273193359376,0.5227121923828125
-0.002106113281250002,-0.08497417724609375,0.4843726025390625
0.014184570312499999,-0.16095218017578125,0.5389327880859375
0.01588658203125,-0.0602200537109375,0.702859111328125
-0.131215859375,-0.05605351806640625,1.0112961962890625
-0.2411171875,0.05178622802734375,1.1703071875
-0.49763466796875,0.1348718505859375,1.4551506787109374
-0.4944737890625,0.14050892822265626,1.2968769873046875
-0.30117388671875,-0.09330724853515625,1.0417712548828124
-0.02350283203125,0.12580350830078124,0.87637033203125
0.0910182421875,0.1113431787109375,0.7458682666015625
0.051628828125,0.12188206298828125,0.7790467578125
-0.03322861328125,-0.07075893798828126,0.8267254785156251
-0.0276362890625,0.01845394287109375,0.829674677734375
-0.21801845703125,-0.02419177490234375,0.92650671875
-0.35028908203125,0.0530116796875,0.9532952783203125
-0.3427516015625,0.12188206298828125,0.9336339501953125
-0.282938046875,0.1868310009765625,0.930438984375
-0.22774423828125,0.10717664306640624,0.9655836083984375
-0.0422249609375,0.03144373046875,0.944693447265625
0.021965195312499998,0.17972338134765625,1.02776255859375
-0.1482359765625,0.008895419921875,1.0594664501953126
-0.2177753125,-0.10311086181640625,0.9542783447265625
-0.22044990234375,-0.0011532836914062497,0.9100403564453124
-0.1774133203125,0.053992041015625,0.8962774267578125
-0.24719580078125,0.04835496337890625,0.8702261669921875
-0.055354765624999996,-0.063651318359375,0.666485654296875
0.11095609375,-0.04772044677734375,0.6475616259765625
0.06937837890625,-0.11095375244140625,0.6185611669921875
-0.0334717578125,-0.0955130615234375,0.746114033203125
-0.237226875,0.03512008544921875,0.882760263671875
-0.201241484375,0.057913486328125,1.1725190869140625
-0.11832919921875,-0.0092412646484375,1.4261502197265625
-0.02787943359375,0.09492212646484376,1.462769443359375
-0.0850183984375,0.19148771728515626,1.4487607470703125
-0.20586123046875,0.00717978759765625,1.168832587890625
-0.290718671875,-0.0239466845703125,1.0936280078125
-0.33667298828125003,-0.0808076416015625,1.072492080078125
-0.339347578125,-0.14575657958984375,0.97860923828125
-0.18300564453125,-0.0778665576171875,0.76036849609375
-0.1180860546875,-0.08595453857421875,0.5438481201171875
-0.04684470703125,-0.1415900439453125,0.41359182128906247
0.0297458203125,-0.11781628173828125,0.3944220263671875
-0.09255587890625,0.03928662109375,0.6436293603515625
-0.26567478515625,0.02090484619140625,0.8466325732421875
-0.1346198828125,-0.0298288525390625,1.0771616455078126
-0.20002576171875,-0.05874951171875,1.2457575341796876
-0.14847912109375,-0.07811164794921875,0.84786140625
-0.05365275390625,-0.13546278564453124,0.5590856494140625
-0.11298001953125,-0.0298288525390625,0.5868572753906249
-0.2075632421875,0.064776015625,0.6333071630859375
-0.1929745703125,0.0231106591796875,0.8721922998046875
-0.02009880859375,0.03708080810546875,1.175714052734375
-0.08988128906250001,0.19835024658203124,1.4816934716796875
-0.32986494140625,-0.0141430712890625,1.505041298828125
-0.30798193359375,-0.00850599365234375,1.2801648583984375
-0.26664736328125,0.00178780029296875,1.063644482421875
-0.24719580078125,-0.09722869384765626,0.7439021337890624
-0.004294414062500002,-0.08889562255859375,0.65026505859375
0.022451484375,-0.118551552734375,0.61880693359375
-0.057056777343750004,-0.19330410400390624,0.5541703173828125
-0.14191421875,-0.19207865234375,0.529839423828125
-0.12756869140625,-0.15359947021484374,0.6925369140625
-0.032499179687500004,-0.06046514404296875,1.108865537109375
-0.28512634765625,-0.08546435791015625,1.396903994140625
-0.41423609375,0.08217742919921875,1.44556578125
-0.32354318359375,-0.10409122314453124,1.2646815625
-0.2464663671875,0.13070531494140625,1.19095158203125
-0.174009296875,0.1628121484375,1.147205126953125
-0.1433730859375,-0.06683749267578125,0.9867195361328125
0.0316909765625,0.01183650390625,0.9242948193359375
0.042389335937499995,0.1309504052734375,1.0211268603515624
-0.044170117187499996,-0.04526954345703125,1.118696201171875
-0.11322316406249999,0.0819323388671875,1.4200060546875
-0.2805066015625,0.0373258984375,1.6684760888671875
-0.4823165625,0.07384435791015626,1.654467392578125
-0.56206796875,0.1044806494140625,1.3445557080078125
-0.43149935546875,0.03119864013671875,1.0678225146484375
-0.1103054296875,-0.0504164404296875,0.8648193017578125
-0.19710802734375,-0.1543347412109375,0.7552073974609375
-0.17182099609375,-0.18742193603515625,0.61290853515625
-0.084532109375,-0.21585241455078125,0.513618828125
0.04992681640625,-0.12320826904296875,0.5649840478515625
0.0384990234375,-0.169530341796875,0.741690234375
-0.017181074218750002,-0.2768799072265625,0.9402696484374999
-0.20804953125,-0.3004085791015625,1.105916337890625
-0.20877896484375,-0.3222216186523438,1.122628466796875
-0.27831830078124997,-0.232273466796875,1.0604495166015624
0.006647089843749999,-0.20653898193359374,0.9795923046875
-0.019369375,-0.332270322265625,0.8510563720703125
-0.18592337890625,-0.3222216186523438,0.7866655224609375
-0.16914640625,-0.3062907470703125,0.6711552197265624
-0.11152115234375,-0.28300716552734373,0.6583753564453125
-0.16987583984375,-0.33202523193359373,0.8537598046875
-0.23114826171875,-0.36339679443359374,0.840488408203125
-0.15966376953125,-0.33839758056640623,0.74070716796875
-0.11735662109375,-0.3310448706054687,0.702859111328125
-0.06191966796875,-0.1665892578125,0.6915538476562499
0.0482248046875,-0.13448242431640625,0.619298466796875
0.07813158203125001,-0.2214894921875,0.5706366796875
0.029502675781249998,-0.2239403955078125,0.636010595703125
-0.004051269531250002,-0.01561361328125,0.7532412646484374
-0.2133987109375,7.216796875000007e-05,0.9459222802734375
-0.16306779296875,0.00227798095703125,1.0009739990234374
-0.2202067578125,0.0505607763671875,1.0063808642578125
-0.2231244921875,0.0883046875,0.9139726220703125
-0.2211793359375,0.11354899169921875,0.9127437890625
-0.325731484375,0.024581201171875,0.7964961865234375
-0.23698373046875,-0.04036773681640625,0.6229849658203125
-0.09741876953125,-0.13129625,0.5856284423828125
0.012968847656250001,0.062080021972656246,0.7380037353515625
-0.0334717578125,0.161831787109375,0.8476156396484374
-0.06337853515625,0.1471263671875,0.9363373828125
-0.15091056640625,0.173596123046875,1.1970957470703125
-0.011345605468749999,0.21795747314453126,1.367412001953125
-0.0067258593750000005,0.2177123828125,1.566974482421875
-0.30652306640625,0.12237224365234375,1.5662371826171875
-0.4900971875,0.101049384765625,1.2489525
-0.38773333984375,0.11967625,0.8756330322265625
-0.18227621093750002,0.14541073486328124,0.7679872607421875
0.006647089843749999,-0.104826494140625,0.9284728515625
-0.103983671875,-0.149923115234375,1.266156162109375
-0.146777109375,0.12384278564453124,1.6822390185546876
-0.3437241796875,0.0123266845703125,1.78472369140625
-0.36244630859375,-0.048455717773437504,1.4330316845703126
-0.22871681640625,-0.02149578125,0.906845390625
-0.1414279296875,-0.05458297607421875,0.71711357421875
0.010780546874999998,0.08560869384765625,0.7768348583984375
0.0171023046875,0.0789912548828125,0.895540126953125
-0.18349193359375,0.00227798095703125,1.0267794921875
-0.2177753125,-0.20972515625,1.0444746875
-0.19516287109375,-0.33692703857421874,1.119187734375
-0.366579765625,-0.35849498779296873,0.8810398974609375
-0.28658521484375,-0.2999183984375,0.6910623144531249
-0.1832487890625,-0.2690370166015625,0.5394243212890625
-0.13923962890625,-0.24330253173828126,0.454143310546875
-0.053409609375,-0.277370087890625,0.5352462890625
0.02123576171875,-0.2415868994140625,0.6957318798828125
0.09150453124999999,-0.2925656884765625,1.0117877294921875
0.06840580078125,-0.30800637939453124,1.221426640625
-0.02204396484375,-0.38055311767578126,1.3307927783203124
-0.29363640625,-0.2406065380859375,1.3760138330078124
-0.16987583984375,-0.0332601171875,1.245020234375
-0.06775513671875,-0.16854998046875,1.1744852197265625
-0.12246265625,-0.34035830322265626,1.1784174853515625
-0.16525609375,-0.4043268798828125,1.138357529296875
-0.20926525390625,-0.3839843823242188,0.968287041015625
-0.007941582031250002,-0.2406065380859375,0.9090572900390625
-0.20732009765625,-0.14281549560546875,0.9061080908203125
-0.26713365234374997,-0.065612041015625,1.1526119921875
-0.14702025390625,-0.19575500732421874,1.202256845703125
-0.041738671875,-0.02125069091796875,1.123611533203125
0.01953375,-0.15752091552734376,0.9820499707031249
0.0384990234375,-0.20114699462890626,1.0063808642578125
-0.0996070703125,-0.10262068115234375,0.965337841796875
-0.2513292578125,-0.18987283935546875,0.819844013671875
-0.0179105078125,-0.13742350830078126,0.7746229589843749
-0.16720125,-0.06536695068359374,0.8874298291015625
-0.0840458203125,-0.03522083984375,1.115747001953125
-0.14069849609375001,0.09492212646484376,1.2895039892578124
-0.20537494140625,0.171635400390625,1.5342875244140626
-0.1968648828125,0.09541230712890625,1.63136533203125
-0.2513292578125,-0.07958218994140626,1.392971728515625
-0.32451576171875,-0.06928839599609375,1.1845616503906249
-0.2338228515625,-0.24673379638671875,0.933879716796875
-0.020341953125,-0.07958218994140626,0.88226873046875
0.02172205078125,-0.19771572998046874,1.00416896484375
-0.17717017578125,-0.0915916162109375,1.1346710302734375
0.0012979101562499984,-0.06536695068359374,1.22634197265625
0.0657312109375,0.018699033203125,1.2958939208984375
-0.154557734375,0.16795904541015624,1.337920009765625
-0.25351755859375,0.1074217333984375,1.3209621142578125
-0.43052677734375,-0.09330724853515625,1.0353813232421876
-0.39745912109375,-0.047965537109375,0.8567090039062499
-0.331566953125,-0.09820905517578125,0.6554261572265625
-0.16501294921875,-0.07762146728515625,0.5743231787109375
0.012968847656250001,-0.1886473876953125,0.600128671875
0.09515169921875,0.011346323242187501,0.8023945849609375
0.021965195312499998,0.189281904296875,1.181612451171875
-0.212912421875,0.13315621826171875,1.5382197900390624
-0.22336763671875,-0.0053198193359375,1.7884101904296874
-0.4623787109375,-0.11242429443359375,1.405751591796875
-0.339347578125,-0.1116890234375,0.8889044287109376
-0.2114535546875,-0.11634573974609375,0.6613245556640625
0.105120625,-0.022476142578125,0.5576110498046875
0.14426689453125,-0.0999246875,0.7468513330078125
-0.1910294140625,-0.14673694091796874,0.9424815478515625
-0.37581925781250003,-0.1141399267578125,1.0137538623046876
-0.41618125,-0.091101435546875,1.0759328125
-0.08331638671875,-0.28986969482421876,1.088221142578125
-0.02909515625,-0.29428132080078123,1.18308705078125
0.043848203125,-0.212666240234375,1.086255009765625
-0.0461152734375,-0.23349891845703125,0.96288017578125
-0.265431640625,-0.13399224365234375,0.8537598046875
-0.2104809765625,-0.1974706396484375,0.635027529296875
-0.07407689453124999,-0.04477936279296875,0.70531677734375
-0.1579617578125,0.12188206298828125,0.910286123046875
-0.16938955078125,0.2025167822265625,1.063644482421875
-0.115654609375,-0.01683906494140625,1.136391396484375
-0.17814275390625,-0.048455717773437504,1.2142994091796875
-0.1034973828125,0.03315936279296875,1.1213996337890624
0.01150998046875,-0.16046199951171874,0.9820499707031249
-0.01426333984375,-0.19673536865234376,1.0152284619140626
-0.08672041015625,-0.1327667919921875,1.2020110791015626
-0.4088869140625,-0.11879664306640625,1.2359268701171875
-0.3777644140625,-0.1626678125,1.0346440234375
-0.1910294140625,-0.10507158447265624,0.8783364648437499
-0.080641796875,0.07139345458984375,0.719571240234375
0.036067578125,0.07678544189453125,0.594721806640625
0.11873671875,-0.059729873046875,0.74463943359375
0.1245721875,-0.2013920849609375,1.015474228515625
-0.2523018359375,-0.08889562255859375,1.32268248046875
-0.4745359375,0.06943273193359376,1.4315570849609376
-0.3967296875,0.033404453125,1.1447474609375
-0.30409162109375,0.062080021972656246,0.9614055761718749
-0.07966921874999999,0.14394019287109375,0.867522734375
-0.13972591796875,0.1564397998046875,0.864082001953125
-0.3164919921875,0.02237538818359375,0.8667854345703125
-0.16306779296875,0.07580508056640625,0.7237492724609375
-0.10179537109375,-0.2053135302734375,0.6003744384765625
-0.20877896484375,-0.20702916259765625,0.8107506494140625
-0.14969484375,-0.049926259765625,0.922082919921875
-0.015235917968750002,-0.175412509765625,0.965829375
-0.0315266015625,-0.08350363525390625,1.292207421875
-0.23698373046875,-0.14379585693359376,1.451955712890625
-0.277102578125,0.0642858349609375,1.606788671875
-0.48061455078125,0.05570767333984375,1.440158916015625
-0.4302836328125,0.13511694091796875,1.06806828125
-0.4001337109375,0.059874208984374996,0.713672841796875
-0.29679728515625,-0.008996174316406251,0.514110361328125
-0.03566005859375,-0.0268877685546875,0.34674330566406253
0.05381712890625,-0.05752406005859375,0.550483818359375
0.15350638671875,-0.114630107421875,0.765283828125
-0.0665394140625,-0.3151139990234375,0.9206083203125
-0.345183046875,-0.3435444775390625,1.0216183935546874
-0.36585033203125,-0.36192625244140625,1.098051806640625
-0.312115390625,-0.38300402099609376,0.994829833984375
-0.12416466796875,0.0133070458984375,1.024813359375
0.034122421875,0.11649007568359375,1.1843158837890626
0.0190474609375,0.01698340087890625,1.234698037109375
-0.31308796875,0.04884514404296875,1.36003900390625
-0.24914095703125,-0.006790361328125,1.2157740087890625
-0.2912049609375,0.021885207519531248,1.16539185546875
-0.39113736328125,0.00570924560546875,1.229291171875
-0.2989855859375,-0.10899302978515625,1.0599579833984376
0.0287732421875,-0.08448399658203125,0.7812586572265625
0.0560054296875,-0.22075422119140625,0.619298466796875
0.02512607421875,-0.2278618408203125,0.52836482421875
0.071080390625,-0.1964902783203125,0.5581025830078125
0.12821935546875,-0.151883837890625,0.8343442431640625
0.028286953125,-0.13448242431640625,1.2039772119140626
-0.43782111328125,-0.1023755908203125,1.42098912109375
-0.345183046875,-0.042328459472656246,1.403785458984375
-0.292663828125,0.130460224609375,1.245020234375
-0.24938410156250002,0.18952699462890624,0.986965302734375
-0.0762651953125,0.1471263671875,0.918150654296875
-0.061676523437500005,-0.07026875732421875,0.94321884765625
-0.1083602734375,-0.1744321484375,0.8490902392578125
-0.02107138671875,-0.21438187255859376,0.725469638671875
-0.06191966796875,-0.27271337158203124,0.5915268408203125
0.02804380859375,-0.18448085205078124,0.49616939941406246
0.09490855468750001,-0.09967959716796874,0.5942302734375
0.13308224609375,-0.0033590966796874996,0.8948028271484375
-0.1871391015625,0.15766525146484375,1.371344267578125
-0.47575166015625,0.11305881103515625,1.50848203125
-0.434660234375,0.18805645263671875,1.2673849951171876
-0.36050115234375,0.146146005859375,1.1054248046875
-0.38432931640625,0.12947986328125,1.0442289208984374
-0.3694975,0.157910341796875,0.87243806640625
0.06597435546875,0.0015427099609375003,0.79969115234375
0.1542358203125,0.00178780029296875,1.0936280078125
0.11290125,0.049090234375,1.430328251953125
-0.09061072265625,-0.060710234375,1.5200330615234374
-0.39940427734375,0.00816014892578125,1.4133703564453124
-0.2912049609375,0.0044837939453125,1.0142453955078126
-0.26907880859375,-0.00507472900390625,0.905370791015625
-0.27491427734375,-0.01978014892578125,1.0464408203125
-0.16914640625,-0.22369530517578126,1.13786599609375
-0.0986344921875,-0.306780927734375,1.066593681640625
-0.04854671875,-0.16977543212890625,0.8643277685546875
0.09588113281249999,-0.12149263671875,0.8967689599609375
0.0355812890625,-0.25065524169921877,1.051847685546875
-0.1968648828125,-0.00581,1.573855947265625
-0.36828177734375,0.01404231689453125,1.7402399365234376
-0.3437241796875,-0.1195319140625,1.56255068359375
-0.34834392578125,0.0603643896484375,1.24207103515625
-0.1336473046875,0.13217585693359374,0.8485987060546875
0.13843142578125,-0.049926259765625,0.66796025390625
-0.03906408203125,-0.3156041796875,0.6559176904296875
0.003729355468750001,-0.232273466796875,0.630112197265625
-0.14629082031250001,-0.0798272802734375,0.6824604833984375
-0.220693046875,-0.19967645263671874,0.6952403466796875
-0.09741876953125,-0.30187912109375,0.8048522509765625
-0.03955037109375,-0.35016191650390627,1.0584833837890626
-0.13097271484375,-0.014633251953124999,1.086255009765625
0.07180982421875,0.08658905517578125,1.088221142578125
0.13210966796875,-0.12541408203125,1.4394216162109374
-0.28391062499999997,-0.027868129882812502,1.521753427734375
-0.32062544921875,0.062080021972656246,1.14573052734375
-0.30214646484375,-0.10899302978515625,0.78199595703125
-0.28901666015625,-0.18252012939453124,0.6008659716796875
-0.06580998046875,-0.0004180126953125,0.5222206591796875
0.00980796875,0.11060790771484375,0.6229849658203125
-0.007455292968749999,0.1471263671875,0.7168678076171875
-0.010129882812500001,0.0451687890625,0.7596311962890625
-0.13340416015625,0.1025199267578125,1.001219765625
-0.38287044921875,0.14295983154296876,1.1631799560546874
-0.3777644140625,0.205948046875,1.1508916259765625
-0.17473873046875,0.0682072802734375,1.2939277880859374
0.0078628125,0.11845079833984375,1.3671662353515626
0.0012979101562499984,0.10815700439453126,1.367412001953125
-0.27272597656249997,-0.083258544921875,1.16735798828125
-0.41885583984375,0.00963069091796875,0.93338818359375
-0.35174794921875,0.0221302978515625,0.6706636865234374
-0.02544798828125,-0.05605351806640625,0.518042626953125
0.06451548828125,-0.055073156738281254,0.6190527001953126
-0.1287844140625,-0.0200252392578125,0.720554306640625
-0.06386482421875,-0.15286419921875,0.6195442333984374
0.05868001953125,-0.10507158447265624,0.7065456103515625
-0.09523046875,-0.0827683642578125,0.851793671875
-0.28707150390625,-0.1665892578125,0.830657744140625
-0.230418828125,0.00619942626953125,0.8215643798828125
-0.07383375,-0.12933552734375,0.72891037109375
0.059409453125,-0.08619962890625,0.779538291015625
0.11727785156250001,-0.03203466552734375,0.9306847509765624
0.11460326171875,-0.0710040283203125,1.07101748046875
0.014670859375000001,-0.193059013671875,1.285817490234375
0.039957890625,-0.02664267822265625,1.5736101806640626
-0.004537558593750001,-0.17810850341796874,1.582703544921875
-0.04441326171875,-0.00850599365234375,1.7589181982421875
-0.195406015625,-0.14330567626953125,1.6301364990234375
-0.36390517578125,-0.19820591064453125,1.3059703515625
-0.3592854296875,-0.11928682373046876,0.975168505859375
-0.06824142578125,-0.1602169091796875,0.5861199755859375
0.0997714453125,-0.1376685986328125,0.46151630859375
0.11071294921875,-0.09796396484375,0.4799488037109375
0.05065625,0.0642858349609375,0.68368931640625
-0.20780638671875,0.0686974609375,0.9493630126953125
-0.02544798828125,-0.04698517578125,1.14179826171875
-0.2523018359375,-0.08203309326171875,1.66872185546875
-0.36828177734375,0.18560554931640624,1.495210634765625
-0.40621232421875,0.16624341308593749,1.010558896484375
-0.1628246484375,0.16207687744140625,0.7478343994140625
0.2193985546875,-0.0151234326171875,1.0221099267578124
0.335621640625,0.021885207519531248,1.7458925683593751
0.11800728515625,-0.200901904296875,2.0769401806640624
-0.57762921875,-0.3447699291992187,1.6502893603515625
-0.43368765625,-0.1665892578125,0.70335064453125
-0.19029998046875,-0.16977543212890625,0.35092133789062496
-0.16938955078125,-0.19134338134765624,0.311598681640625
-0.1161408984375,-0.16536380615234375,0.63650212890625
0.1435374609375,-0.065612041015625,0.92552365234375
0.16031443359375,0.06158984130859375,1.331530078125
-0.37752126953125,0.0417375244140625,1.683959384765625
-0.6082654296875,-0.26732138427734375,1.8837676318359375
-0.2688356640625,-0.0219859619140625,1.462769443359375
-0.3184371484375,0.16256705810546876,1.1459762939453124
-0.16112263671875,0.0946770361328125,1.0363643896484376
-0.1258666796875,-0.15752091552734376,0.9365831494140625
-0.20877896484375,-0.10286577148437501,0.941744248046875
0.0010547656249999988,-0.22075422119140625,0.7468513330078125
0.14523947265625,-0.05360261474609375,0.600620205078125
0.11265810546874999,0.04590406005859375,1.0444746875
0.03776958984375,-0.13105115966796876,1.42688751953125
-0.43368765625,-0.4631485595703125,1.61170400390625
-0.51951767578125,-0.4337377197265625,1.2391218359375
-0.11103486328125,-0.2058037109375,0.9245405859375
0.1853583203125,-0.037916833496093746,0.92159138671875
0.22110056640625,-0.0866898095703125,1.0589749169921876
-0.1803310546875,-0.2957518627929687,1.243545634765625
-0.17327986328125,0.03217900146484375,1.25583396484375
-0.26372962890625,-0.3043300244140625,0.97467697265625
0.02318091796875,-0.10065995849609374,0.9616513427734374
0.047981660156249994,0.018699033203125,1.1223827001953124
0.0812924609375,0.03659062744140625,1.2108586767578124
0.1649341796875,-0.19624518798828125,1.11230626953125
-0.089395,-0.2445279833984375,0.9847534033203125
-0.26956509765625,-0.280311171875,0.7699533935546875
-0.0621628125,-0.2915853271484375,0.5871030419921874
-0.013047617187499999,-0.27271337158203124,0.49592363281249996
0.14280802734375,-0.1665892578125,0.521974892578125
0.039957890625,-0.2357047314453125,0.409905322265625
-0.0509781640625,-0.1357078759765625,0.5467973193359374
-0.09401474609375,-0.0013983740234375002,0.760860029296875
-0.15820490234375,0.171635400390625,1.02383029296875
-0.17522501953125,0.25128975830078126,1.1744852197265625
-0.08623412109375,0.3407477294921875,1.333004677734375
0.02318091796875,0.26746572021484377,1.3706069677734374
0.0793473046875,0.18266446533203126,1.25583396484375
-0.0500055859375,0.06673673828125,1.2236385400390626
-0.3651208984375,-0.05458297607421875,1.0034316650390624
-0.33983386718749997,-0.06781785400390625,0.7330884033203124
-0.2425760546875,-0.1651187158203125,0.6047982373046875
0.07278240234375,-0.00409436767578125,0.6480531591796875
0.137215703125,0.014777587890624999,0.6709094531249999
0.01758859375,0.11403917236328125,0.71711357421875
0.018561171875,0.14786163818359374,0.9638632421875
-0.02739314453125,0.27457333984375,1.259274697265625
-0.32305689453124997,0.19246807861328125,1.653484326171875
-0.41885583984375,0.12335260498046875,1.4703882080078126
-0.23892888671875,0.14737145751953126,1.16539185546875
-0.1297569921875,0.09737302978515625,0.8889044287109376
0.038012734374999996,0.108892275390625,0.79969115234375
0.04068732421875,-0.016593974609375,0.8938197607421875
-0.19224513671875,-0.09771887451171875,1.05233921875
0.078861015625,-0.11879664306640625,1.052830751953125
0.016372871093749998,-0.130315888671875,1.1400778955078126
-0.11541146484375,-0.12712971435546874,1.2167570751953125
-0.29144810546875,-0.14428603759765624,1.1926719482421875
-0.2450075,-0.013652890625,1.0294829248046875
-0.07869664062500001,-0.07615092529296875,0.92355751953125
0.24395615234375,-0.00507472900390625,0.923065986328125
-0.009400449218749999,-0.20776443359375,1.2216724072265626
-0.013777050781250001,-0.095022880859375,1.2914701220703124
-0.1103054296875,-0.09722869384765626,1.3406234423828125
-0.0179105078125,-0.1038461328125,1.210121376953125
-0.237226875,0.021885207519531248,1.3868275634765626
-0.24038775390625,0.11943115966796874,1.3381657763671875
-0.277102578125,-0.06977857666015624,1.1671122216796874
-0.2027003515625,-0.10164031982421876,1.0766701123046876
-0.0855046875,-0.19036302001953126,0.96288017578125
-0.05316646484375,-0.0847290869140625,1.15359505859375
-0.107873984375,0.03462990478515625,1.2565712646484375
-0.07553576171875,-0.165608896484375,1.1371286962890625
-0.008671015625,-0.020515419921875,0.9429730810546875
-0.25157240234375,-0.10654212646484375,0.84687833984375
-0.21315556640625,-0.1092381201171875,0.7365291357421875
-0.09109701171875,-0.16928525146484374,0.7200627734375
-0.038091503906250004,-0.0411030078125,0.9773804052734375
-0.32305689453124997,-0.0033590966796874996,1.180629384765625
-0.1788721875,-0.19869609130859375,0.9557529443359375
-0.1667149609375,-0.134237333984375,0.8599039697265625
0.01005111328125,-0.13056097900390626,0.8608870361328125
0.1795228515625,-0.093062158203125,1.0570087841796876
0.06816265625,-0.17467723876953126,1.212087509765625
0.0025136328124999996,-0.05213207275390625,1.1612138232421876
-0.2163164453125,-0.0406128271484375,0.9881941357421875
-0.30749564453125,0.0397768017578125,0.8628531689453125
-0.32281375,0.01159141357421875,0.7276815380859375
-0.09401474609375,0.03904153076171875,0.61684080078125
0.03776958984375,0.021640117187500002,0.8038691845703125
0.06840580078125,-0.120512275390625,0.704825244140625
-0.1744955859375,-0.1219828173828125,0.6087305029296874
-0.11054857421875,-0.130315888671875,0.466431640625
0.0034862109374999978,-0.0435539111328125,0.49666093261718747
0.0078628125,0.10570610107421875,0.709740576171875
0.01005111328125,0.15276344482421875,0.980083837890625
0.13332539062499998,0.053992041015625,1.36986966796875
0.08202189453125,0.20619313720703125,1.7397484033203126
-0.20877896484375,0.18070374267578124,1.7657996630859376
-0.34396732421875,-0.19281392333984376,1.2560797314453125
-0.41982841796875,-0.1180613720703125,1.0039231982421875
-0.34056330078125,-0.06291604736328126,0.802148818359375
0.02074947265625,0.0250713818359375,0.8159117480468749
0.2135630859375,-0.02174087158203125,0.9360916162109375
-0.0840458203125,-0.06536695068359374,1.0174403613281249
-0.156502890625,-0.09232688720703125,0.8957858935546875
-0.02690685546875,0.14590091552734374,0.9587021435546875
0.0637860546875,0.06747200927734374,1.1447474609375
0.042875625,0.00178780029296875,1.393954794921875
-0.3777644140625,-0.0690433056640625,1.4219721875
-0.23552486328125,-0.01389798095703125,1.1813666845703126
-0.15285572265625,0.009140510253906251,0.9813126708984374
-0.2814791796875,-0.1004148681640625,0.8267254785156251
-0.13097271484375,-0.06144550537109375,0.79969115234375
0.16760876953125,-0.170510703125,1.0162115283203126
0.06694693359375001,0.15815543212890626,1.339886142578125
0.0151571484375,0.07433453857421875,1.376259599609375
-0.1064151171875,-0.075415654296875,1.362988203125
-0.22944625,-0.02419177490234375,1.1096028369140625
-0.1560166015625,-0.022476142578125,0.894557060546875
0.10098716796875,-0.037916833496093746,1.0201437939453124
0.168338203125,-0.05090662109375,1.356598271484375
0.040201035156249995,-0.042328459472656246,1.6107209375
-0.36463460937500003,0.056933125,1.695756181640625
-0.53556521484375,-0.07320984130859375,1.3450472412109375
-0.17571130859375,0.04492369873046875,1.0019570654296874
-0.20926525390625,-0.0288484912109375,0.9999909326171875
-0.36536404296875,-0.06095532470703125,1.0373474560546876
-0.380195859375,-0.0513968017578125,0.8250051123046875
-0.09425789062500001,-0.04085791748046875,0.48584720214843746
0.09223396484375,-0.13129625,0.463973974609375
0.1581261328125,-0.095022880859375,0.5492549853515625
0.14985921875,-0.03497574951171875,0.868014267578125
0.1401334375,-0.11977700439453125,1.2315030712890624
-0.21899103515625,-0.3121729150390625,1.4836596044921875
-0.38821962890625,-0.3072711083984375,1.7215616748046876
-0.30141703125,-0.1837455810546875,1.3317758447265624
-0.14750654296875,-0.23987126708984374,0.9397781152343749
-0.25789416015625,-0.1602169091796875,0.6529684912109375
-0.20975154296875,-0.146001669921875,0.484618369140625
-0.03614634765625,-0.14502130859375,0.33052270996093747
0.069135234375,-0.01585870361328125,0.4116256884765625
0.10974037109375,-0.0798272802734375,0.5369666552734375
0.13989029296875,-0.1455114892578125,0.589806474609375
0.1435374609375,-0.11291447509765624,0.9818042041015624
-0.074806328125,-0.14869766357421876,1.0108046630859375
-0.21655958984375,-0.23987126708984374,0.99630443359375
-0.2630001953125,-0.10016977783203125,0.9616513427734374
-0.30919765625,-0.11046357177734376,0.6915538476562499
0.02147890625,-0.114630107421875,0.5050169970703124
0.1094972265625,-0.0621807763671875,0.38876939453125
0.136243125,-0.0016434643554687498,0.484618369140625
0.16153015625,0.06404074462890624,0.686146982421875
0.022451484375,0.20325205322265624,0.9945840673828125
-0.15382830078125,0.267710810546875,1.16932412109375
-0.14191421875,-0.0028689160156250004,1.3686408349609376
-0.015479062500000002,0.03119864013671875,1.5018463330078125
-0.06726884765625,0.23805488037109374,1.41509072265625
-0.17133470703125,-0.0190448779296875,1.0712632470703125
-0.0966893359375,0.1623219677734375,0.935845849609375
-0.14312994140625,0.18511536865234374,1.05233921875
-0.15188314453125001,-0.13889405029296875,1.087238076171875
0.08591220703124999,-0.06389640869140625,1.00810123046875
-0.15285572265625,0.0858537841796875,1.0009739990234374
-0.07067287109375,-0.13007079833984375,0.93535431640625
-0.119544921875,-0.15359947021484374,0.8761245654296875
0.1221407421875,-0.173451787109375,0.9518206787109375
0.1746599609375,-0.1131595654296875,1.2978600537109375
0.1231133203125,0.05962911865234375,1.6655268896484374
-0.265431640625,0.02433611083984375,1.7687488623046874
-0.40718490234375,-0.14869766357421876,1.461786376953125
-0.4409819921875,-0.13497260498046876,0.9980247998046875
-0.374360390625,-0.06928839599609375,0.7812586572265625
-0.18981369140625,0.008405239257812499,0.5856284423828125
0.096367421875,-0.11977700439453125,0.474296171875
0.1513180859375,-0.14894275390625,0.4052357568359375
0.08372390625000001,-0.1749223291015625,0.4644655078125
0.07424126953125,-0.21928367919921876,0.7247323388671875
0.0355812890625,-0.31780999267578125,1.2138078759765625
-0.24670951171875,-0.3102121923828125,1.594500341796875
-0.27637314453125,-0.2562923193359375,1.8171648828125
-0.21461443359375,0.0069346972656249995,1.3897767626953126
-0.237226875,0.0652661962890625,1.068559814453125
-0.11079171875,0.0789912548828125,0.906353857421875
-0.1744955859375,0.055952763671875,0.9975332666015625
-0.2338228515625,0.0280124658203125,1.0457035205078125
-0.216802734375,0.13315621826171875,1.15359505859375
-0.12027435546875,-0.0661022216796875,1.0633987158203124
-0.05900193359375,0.00816014892578125,1.1941465478515625
0.092477109375,-0.09330724853515625,1.1263149658203124
-0.006482714843750001,-0.15163874755859374,1.1567900244140625
-0.12465095703125,-0.09183670654296874,1.095102607421875
0.1323528125,-0.16144236083984376,1.04742388671875
0.16274587890625,-0.0915916162109375,1.4669474755859375
-0.26713365234374997,-0.30555547607421873,1.617110869140625
-0.39113736328125,-0.165608896484375,1.53305869140625
-0.3388612890625,0.030708459472656248,1.1027213720703124
-0.35028908203125,0.046149150390625,0.9660751416015625
-0.33229638671875,0.00276816162109375,0.94125271484375
0.0010547656249999988,-0.05017135009765625,0.9621428759765625
0.016372871093749998,-0.1121792041015625,0.8510563720703125
-0.08355953125,0.09149086181640625,1.119187734375
-0.2192341796875,0.12433296630859375,1.1366371630859375
-0.1910294140625,0.0427178857421875,1.0987891064453126
-0.20975154296875,0.1123235400390625,1.14671359375
-0.07018658203125,-0.01487834228515625,1.1091113037109375
-0.07966921874999999,-0.00213364501953125,1.1238572998046874
-0.0694571484375,0.06011929931640625,1.0029401318359374
-0.27977716796875,0.053992041015625,0.9164302880859375
-0.2736985546875,0.0191892138671875,0.8756330322265625
-0.0198556640625,-0.07615092529296875,0.80952181640625
0.12870564453125,0.01404231689453125,0.8358188427734374
0.02415349609375,-0.0001729223632812504,1.00515203125
0.0209926171875,-0.03399538818359375,1.1474508935546874
-0.09061072265625,-0.15654055419921875,1.2388760693359375
-0.022287109375,-0.183255400390625,1.2054518115234374
-0.037848359375,-0.0411030078125,1.3229282470703125
-0.1492085546875,-0.04428918212890625,1.40132779296875
-0.30141703125,-0.19992154296875,1.3374284765625
-0.426879609375,-0.1327667919921875,1.1440101611328124
-0.3709563671875,-0.08595453857421875,0.85474287109375
-0.26178447265625,-0.03742665283203125,0.6097135693359375
0.02074947265625,-0.01291761962890625,0.499364365234375
0.13259595703125,-0.08595453857421875,0.5077204296875
0.18073857421875,-0.038161923828125,0.6898334814453125
0.14329431640625,0.1000690234375,1.0142453955078126
-0.013047617187499999,0.024581201171875,1.2501813330078124
-0.22385392578125,-0.17516741943359376,1.3755222998046874
-0.052680175781250005,0.06673673828125,1.2708257275390624
-0.1633109375,0.0201695751953125,1.265173095703125
-0.1813036328125,-0.0190448779296875,1.235681103515625
-0.26859251953125,-0.029338671875,1.135408330078125
-0.29169125,-0.14281549560546875,0.9520664453125
-0.080641796875,-0.13056097900390626,0.7743771923828124
-0.040766093749999996,-0.08301345458984374,0.81738634765625
-0.138996484375,-0.14330567626953125,0.868997333984375
-0.024475410156250002,-0.11193411376953125,0.92650671875
-0.0179105078125,-0.10654212646484375,0.977134638671875
-0.02155767578125,-0.01634888427734375,1.16539185546875
0.065244921875,-0.05752406005859375,1.27156302734375
0.06208404296875,0.00668960693359375,1.29908888671875
-0.08574783203125,0.1534987158203125,1.235681103515625
-0.12367837890625,0.07727562255859374,1.114763935546875
-0.1949197265625,0.108892275390625,1.12410306640625
-0.4020788671875,0.01208159423828125,1.1073909375
-0.423961875,-0.0641414990234375,1.0629071826171874
-0.28561263671875,-0.11364974609375,0.8594124365234375
0.049197382812499996,-0.0513968017578125,0.7409529345703125
0.1367294140625,0.01992448486328125,0.7552073974609375
0.12651734375,-0.08007237060546875,0.810996416015625
-0.010129882812500001,-0.0567887890625,0.9169218212890625
0.032420410156249996,0.009140510253906251,1.0457035205078125
-0.059245078125,-0.1592365478515625,1.22830810546875
0.0190474609375,-0.06046514404296875,1.306461884765625
-0.0801555078125,0.0927163134765625,1.1661291552734374
-0.19953947265625,0.02041466552734375,1.0189149609375
-0.164283515625,-0.0945327001953125,0.89406552734375
0.00956482421875,0.026541923828125,0.82721701171875
-0.15431458984375,0.16795904541015624,1.0461950537109375
-0.27807515625,-0.00311400634765625,1.0584833837890626
-0.31138595703125,-0.0092412646484375,0.983033037109375
-0.09644619140624999,0.073599267578125,0.9203625537109374
0.04482078125,0.07825598388671876,0.8756330322265625
0.14402375,0.0505607763671875,0.9867195361328125
0.07180982421875,0.17433139404296874,1.2627154296875
0.0579505859375,0.09835339111328124,1.391005595703125
-0.19759431640625,0.1084020947265625,1.472600107421875
-0.39089421875,0.09639266845703125,1.226833505859375
-0.3651208984375,-0.067572763671875,0.9559987109375
-0.30141703125,0.0123266845703125,0.804114951171875
-0.1141957421875,-0.0337502978515625,0.68762158203125
0.069135234375,-0.032279755859375,0.70335064453125
-0.003808124999999999,-0.02321141357421875,0.8107506494140625
-0.035903203125000005,-0.07320984130859375,0.8810398974609375
-0.109819140625,-0.03546593017578125,0.9857364697265625
-0.1083602734375,0.10031411376953125,1.072492080078125
-0.070916015625,0.0584036669921875,1.04349162109375
-0.0179105078125,0.064776015625,1.00515203125
-0.092312734375,0.0750698095703125,0.95698177734375
-0.01085931640625,0.07629526123046874,0.971236240234375
0.006890234374999998,0.0574233056640625,0.9277355517578125
-0.09985021484375001,0.0162481298828125,0.8726838330078125
-0.0256911328125,-0.1053166748046875,0.8048522509765625
-0.053409609375,-0.13742350830078126,0.7866655224609375
-0.09425789062500001,-0.13301188232421876,0.736283369140625
-0.1958923046875,-0.10065995849609374,0.759876962890625
0.07083724609375,-0.0847290869140625,0.7905977880859375
0.11265810546874999,0.0652661962890625,0.953541044921875
-0.01426333984375,0.17482157470703125,1.2010280126953126
-0.01474962890625,-0.1013952294921875,1.34430994140625
-0.12416466796875,0.18266446533203126,1.4089465576171876
-0.17814275390625,0.28070059814453124,1.1558069580078125
-0.19248828125,0.24687813232421876,1.0909245751953125
-0.18859796875,0.13315621826171875,1.1041959716796874
-0.221665625,0.09002031982421875,1.1587561572265626
-0.09352845703125,-0.0018885546875000003,1.0346440234375
0.018318027343749998,-0.1474722119140625,0.9208540869140625
0.01929060546875,-0.02370159423828125,0.8648193017578125
0.045793359374999995,-0.014633251953124999,0.9166760546875
-0.20732009765625,-0.0298288525390625,0.99630443359375
-0.23795630859375,-0.081297822265625,1.0353813232421876
-0.1871391015625,0.01183650390625,1.0130165625
-0.11687033203125,0.1079119140625,1.0108046630859375
-0.09644619140624999,0.0133070458984375,1.0383305224609374
-0.049276152343750004,0.046149150390625,1.2258504394531249
-0.14969484375,-0.02149578125,1.3219451806640625
-0.1803310546875,-0.06536695068359374,1.1997991796875
-0.191515703125,-0.1298257080078125,0.938795048828125
-0.1696326953125,-0.0543378857421875,0.8073099169921875
-0.1025248046875,-0.05262225341796875,0.8510563720703125
-0.01037302734375,-0.10580685546875,1.03366095703125
0.036797011718749995,-0.012672529296875,1.169815654296875
-0.026420566406250002,-0.05556333740234375,1.2332234375
0.036797011718749995,-0.14281549560546875,1.324157080078125
-0.0295814453125,-0.1935491943359375,1.40329392578125
-0.15747546875,-0.123453359375,1.277952958984375
-0.1676875390625,-0.0886505322265625,1.1388490625
-0.24719580078125,-0.013162709960937501,1.08674654296875
-0.23212083984375,0.02482629150390625,1.00810123046875
-0.08672041015625,-0.089140712890625,1.087729609375
-0.14653396484375,0.03708080810546875,1.177680185546875
-0.08963814453125,0.008895419921875,1.073475146484375
0.0112668359375,0.1172253466796875,1.1012467724609376
-0.12367837890625,-0.013652890625,1.0555341845703126
-0.04781728515625,0.04737460205078125,0.9402696484374999
-0.1521262890625,0.052031318359375,0.9614055761718749
-0.1399690625,-0.0680629443359375,0.8812856640625
-0.0035649804687499995,-0.0553182470703125,0.812962548828125
0.03290669921875,-0.03522083984375,0.9798380712890625
-0.081614375,0.0054641552734375,1.1880023828125
-0.23260712890625002,-0.00507472900390625,1.229291171875
-0.24379177734375002,0.0221302978515625,1.0778989453125
-0.14945169921875,-0.03546593017578125,0.8343442431640625
-0.12902755859375,-0.0043394580078125,0.745130966796875
-0.04538583984375,0.04345315673828125,0.7203085400390625
0.041416757812499996,0.03119864013671875,0.8834975634765625
-0.03031087890625,0.079481435546875,1.1150097021484375
-0.1803310546875,0.04712951171875,1.2253589062499999
0.012968847656250001,-0.0033590966796874996,1.260257763671875
0.0326635546875,0.0652661962890625,1.2462490673828124
0.006890234374999998,0.06943273193359376,1.2796733251953125
-0.06143337890625,0.09002031982421875,1.3506998730468749
-0.24233291015625,0.06551128662109375,1.3440641748046875
-0.37144265625,0.11796061767578125,1.21257904296875
-0.1900568359375,0.09345158447265625,0.9916348681640625
0.06354291015625,0.14933218017578126,0.9803296044921875
-0.02107138671875,0.06011929931640625,1.0486527197265625
0.03728330078125,-0.0180645166015625,1.1843158837890626
-0.16063634765625,-0.00948635498046875,1.149171259765625
-0.12221951171875,-0.00703545166015625,0.9641090087890625
-0.18008791015625,-0.00605509033203125,0.852285205078125
-0.15431458984375,-0.08791526123046875,0.738249501953125
-0.1064151171875,0.04982550537109375,0.7522581982421875
-0.133161015625,0.07237381591796875,0.7099863427734375
-0.1205175,-0.04428918212890625,0.7134270751953125
-0.05997451171875,-0.10899302978515625,0.814928681640625
-0.0276362890625,-0.012672529296875,0.866048134765625
0.0151571484375,0.0299731884765625,0.8485987060546875
0.005431367187500001,-0.0347306591796875,0.996795966796875
-0.11249373046875,-0.13987441162109376,1.1479424267578124
-0.2571647265625,-0.0494360791015625,1.191443115234375
-0.2484115234375,0.05325677001953125,1.0383305224609374
-0.20488865234375,0.07678544189453125,0.9026673583984375
-0.04198181640625,-0.07713128662109375,0.807064150390625
0.05965259765625,0.0329142724609375,1.050864619140625
-0.012075039062500001,0.01747358154296875,1.2138078759765625
-0.11225058593750001,-0.006790361328125,1.4443369482421875
-0.2386857421875,-0.00360418701171875,1.3524202392578124
-0.17571130859375,0.04296297607421875,1.030220224609375
-0.12854126953125,0.04884514404296875,0.8530225048828125
-0.13802390625,0.0012976196289062499,0.716622041015625
-0.113709453125,0.05668803466796875,0.7753602587890625
-0.1433730859375,0.02286556884765625,0.77216529296875
0.058193730468749996,-0.01561361328125,0.8299204443359375
-0.13340416015625,0.11599989501953126,0.9852449365234375
-0.14361623046875,0.0289928271484375,1.0860092431640624
-0.1112780078125,0.06355056396484375,1.166866455078125
-0.0723748828125,0.16354741943359374,1.23617263671875
-0.10082279296875,0.07825598388671876,1.204222978515625
-0.07067287109375,0.020659755859375,1.1012467724609376
-0.1988100390625,0.1025199267578125,1.1022298388671874
-0.13948277343749999,-0.05899460205078125,1.001219765625
-0.07359060546875,0.06060947998046875,1.076424345703125
-0.1205175,0.01698340087890625,1.128526865234375
-0.089395,-0.0121823486328125,1.071509013671875
-0.057543066406249996,0.028257556152343752,0.9508376123046876
-0.07602205078125,-0.02370159423828125,0.9754142724609375
-0.1414279296875,0.079481435546875,0.95894791015625
-0.21266927734375,0.12041152099609376,0.9601767431640625
-0.18081734375,0.0280124658203125,0.9075826904296875
-0.0694571484375,0.03512008544921875,1.016948828125
-0.0855046875,0.0946770361328125,1.0884669091796875
-0.0932853125,-0.1092381201171875,1.1331964306640625
-0.08915185546875,-0.015368522949218751,1.1720275537109375
0.0034862109374999978,-0.0396324658203125,1.1135351025390625
-0.17279357421875,-0.0121823486328125,1.221426640625
-0.1929745703125,-0.0190448779296875,1.239613369140625
-0.2552195703125,-0.11536537841796875,1.116730068359375
-0.23990146484375,0.0054641552734375,1.0108046630859375
-0.1321884375,-0.0011532836914062497,0.8790737646484375
0.011753125,-0.04085791748046875,0.834590009765625
0.0822650390625,0.03561026611328125,0.95501564453125
-0.04295439453125,0.02580665283203125,1.0987891064453126
-0.2552195703125,0.00987578125,1.23224037109375
-0.37898013671874997,-0.03056412353515625,1.103458671875
-0.1881116796875,0.069677822265625,0.917167587890625
-0.17960162109375,0.09737302978515625,0.8756330322265625
-0.15869119140625,0.03659062744140625,0.8778449316406249
-0.14021220703125,0.11379408203125,1.0697886474609375
-0.174009296875,0.0505607763671875,1.1046875048828124
-0.19516287109375,0.03462990478515625,1.0179318945312499
-0.07650833984375,0.013552136230468751,0.8898874951171875
-0.04878986328125,0.0848734228515625,0.8515479052734375
0.0020273437500000005,0.12678386962890625,0.8908705615234375
-0.10544253906250001,0.15374380615234376,1.0560257177734376
-0.15869119140625,0.09492212646484376,1.1307387646484375
-0.1866528125,0.13413657958984376,1.153103525390625
-0.18154677734375,0.25521120361328126,1.07691587890625
-0.07359060546875,0.24099596435546874,1.04939001953125
-0.09498732421875,0.24001560302734376,1.1671122216796874
-0.10690140625,0.116735166015625,1.24010490234375
-0.1326747265625,0.08756941650390625,1.27254609375
-0.06580998046875,0.2338883447265625,1.23027423828125
-0.20148462890625,0.14197947021484375,1.070525947265625
-0.1540714453125,0.04394333740234375,0.980083837890625
-0.10374052734375,0.12090170166015625,1.0044147314453125
-0.16258150390625,0.04198261474609375,0.965337841796875
-0.162338359375,0.1133039013671875,0.9316678173828125
-0.089395,0.10031411376953125,0.84097994140625
-0.06435111328125,0.0427178857421875,0.8240220458984375
-0.02690685546875,0.0985984814453125,0.8790737646484375
-0.07699462890625,0.1858506396484375,0.996795966796875
-0.0821006640625,0.112813720703125,1.07888201171875
-0.17327986328125,0.1731059423828125,1.10444173828125
-0.1550440234375,0.15668489013671874,1.0130165625
-0.14993798828125,0.06673673828125,0.9508376123046876
-0.13534931640625,0.12678386962890625,0.9704989404296875
-0.15625974609374998,0.0436982470703125,1.0481611865234375
-0.190543125,-0.02125069091796875,1.1037044384765624
-0.24525064453125,-0.035711020507812496,0.9827872705078124
-0.07456318359375,-0.01291761962890625,0.7655295947265625
-0.04830357421875,-0.071494208984375,0.68270625
-0.0879361328125,-0.0788469189453125,0.62470533203125
-0.10860341796875,-0.026397587890625,0.578009677734375
-0.09401474609375,0.02531647216796875,0.6178238671875
-0.08866556640625001,-0.04306373046875,0.7517666650390625
-0.146777109375,-0.029338671875,0.9660751416015625
-0.21607330078125,-0.013407800292968751,1.07888201171875
-0.244034921875,0.04737460205078125,1.1410609619140626
-0.24281919921875,0.04296297607421875,0.9587021435546875
