ax,ay,az
-0.06775513671875,-0.1406096826171875,0.8510563720703125
-0.013290761718750002,-0.11095375244140625,1.090187275390625
-0.17133470703125,-0.18840229736328126,1.1312302978515625
-0.14702025390625,-0.1415900439453125,1.0840431103515624
-0.047574140625,-0.02762303955078125,0.9596852099609375
-0.1025248046875,0.00865032958984375,1.0093300634765625
-0.1005796484375,-0.04330882080078125,1.0575003173828126
-0.185680234375,-0.0411030078125,1.118696201171875
-0.190543125,-0.0411030078125,1.079373544921875
-0.1788721875,-0.067572763671875,1.043000087890625
-0.056084199218750005,-0.06193568603515625,1.0176861279296876
-0.21461443359375,-0.05458297607421875,1.1110774365234375
-0.1210037890625,-0.06536695068359374,1.17817171875
-0.1890842578125,-0.09183670654296874,1.0540595849609375
-0.0743200390625,-0.2136466015625,1.1425355615234376
-0.113709453125,-0.2229600341796875,1.1666206884765624
-0.08039865234375,-0.21560732421875,1.03759322265625
-0.07602205078125,-0.293055869140625,0.993355234375
-0.12708240234375,-0.29673222412109374,0.972219306640625
-0.1842213671875,-0.35065209716796875,0.954524111328125
-0.09352845703125,-0.3374172192382813,0.93142205078125
-0.08817927734375,-0.2567825,0.9301932177734376
-0.07893978515625,-0.2621744873046875,0.8930824609375
-0.011831894531250001,-0.2651155712890625,0.8653108349609375
0.020020039062499998,-0.21952876953125,0.9557529443359375
-0.0091573046875,-0.2268814794921875,1.0228472265625
-0.05511162109375,-0.22320512451171876,1.032677890625
-0.0645942578125,-0.1660990771484375,1.0673309814453125
-0.1248941015625,-0.198941181640625,1.133442197265625
-0.24768208984375,-0.14109986328125,1.202256845703125
-0.22361078125,-0.077376376953125,1.192426181640625
-0.23212083984375,-0.06267095703125,1.0968229736328126
-0.1988100390625,-0.029338671875,1.0589749169921876
-0.179844765625,-0.024436865234375,1.08281427734375
-0.12513724609375,-0.0935523388671875,1.0727378466796875
-0.14702025390625,-0.16095218017578125,1.097068740234375
-0.12610982421875,-0.11389483642578124,1.1189419677734376
-0.12854126953125,-0.20384298828125,0.9410069482421874
-0.14750654296875,-0.25947849365234377,0.7709364599609375
-0.12951384765625001,-0.31143764404296875,0.706791376953125
-0.1978374609375,-0.2758995458984375,0.658621123046875
-0.14702025390625,-0.27614463623046875,0.6669771875
-0.045872128906250004,-0.2582530419921875,0.7670041943359375
-0.074806328125,-0.2484494287109375,0.9105318896484375
-0.10811712890625,-0.2516356030273437,0.933879716796875
-0.14604767578125,-0.25212578369140626,0.98647376953125
-0.09450103515625,-0.245998525390625,1.0594664501953126
-0.11687033203125,-0.2523708740234375,1.1764513525390625
-0.133161015625,-0.100905048828125,1.2275708056640624
-0.038577792968749997,-0.242077080078125,1.1258234326171874
-0.090367578125,-0.2580079516601563,1.041033955078125
-0.032499179687500004,-0.24673379638671875,0.9773804052734375
-0.0004041015625000019,-0.218548408203125,1.029237158203125
-0.1326747265625,-0.2778602685546875,1.1213996337890624
-0.15164,-0.30972201171875,1.04349162109375
-0.08526154296874999,-0.2660959326171875,1.00023669921875
-0.2027003515625,-0.30408493408203124,1.1066536376953124
-0.16306779296875,-0.2058037109375,1.19095158203125
-0.1492085546875,-0.25604722900390625,1.158510390625
-0.16744439453124998,-0.13717841796875,1.1336879638671875
-0.0743200390625,-0.09624833251953124,1.1238572998046874
-0.109819140625,-0.0680629443359375,1.235681103515625
-0.14507509765624998,-0.07615092529296875,1.2983515869140625
-0.17522501953125,-0.046740085449218746,1.3416065087890625
-0.105928828125,-0.0513968017578125,1.20864677734375
-0.15625974609374998,-0.11781628173828125,1.146222060546875
-0.16793068359375,-0.149923115234375,1.2501813330078124
-0.12708240234375,-0.25261596435546874,1.2526389990234374
-0.17133470703125,-0.24232217041015625,1.1685868212890624
-0.2007551953125,-0.22345021484375,1.0653648486328124
-0.02739314453125,-0.24330253173828126,1.0044147314453125
-0.0621628125,-0.20776443359375,1.0599579833984376
-0.10495625,-0.2278618408203125,1.1597392236328126
-0.0529233203125,-0.27859553955078126,1.1317218310546875
-0.11395259765625,-0.25482177734375,1.0280083251953125
-0.10908970703125,-0.3190354443359375,0.9483799462890625
-0.08574783203125,-0.30261439208984375,0.89504859375
-0.16306779296875,-0.30972201171875,0.8154202148437499
-0.10665826171875001,-0.22565602783203126,0.7699533935546875
-0.08477525390625,-0.24869451904296874,0.7773263916015625
-0.133161015625,-0.2160975048828125,0.8984893261718749
-0.13486302734375,-0.20948006591796875,0.9881941357421875
-0.08915185546875,-0.1857063037109375,1.0130165625
-0.06483740234375,-0.18252012939453124,0.9729566064453125
-0.0247185546875,-0.16193254150390626,1.0167030615234376
-0.018883085937500002,-0.195019736328125,1.098051806640625
-0.11857234375,-0.27418391357421873,1.12017080078125
-0.13194529296875,-0.30506529541015626,1.0614325830078124
-0.164283515625,-0.31437872802734373,0.9257694189453125
-0.13486302734375,-0.2504101513671875,0.7753602587890625
-0.034687480468750004,-0.22663638916015624,0.7424275341796875
0.018318027343749998,-0.27124282958984375,0.787402822265625
-0.07650833984375,-0.1979608203125,0.9501003125
-0.057056777343750004,-0.27246828125,1.0737209130859375
0.0336361328125,-0.15212892822265625,1.1789090185546875
-0.0140201953125,-0.10580685546875,1.234698037109375
-0.10374052734375,-0.136198056640625,1.2177401416015625
-0.15820490234375,-0.1744321484375,1.1911973486328125
-0.2878009375,-0.1660990771484375,1.08478041015625
-0.2211793359375,-0.20310771728515625,0.970253173828125
-0.12440781249999999,-0.32148634765625,0.897506259765625
-0.066053125,-0.19820591064453125,0.79575888671875
0.027557519531249998,-0.1337471533203125,0.8380307421875
0.03776958984375,-0.146001669921875,0.978117705078125
-0.05413904296875,-0.2337440087890625,1.2315030712890624
-0.14118478515625,-0.2758995458984375,1.4123872900390624
-0.2172890234375,-0.2523708740234375,1.3337419775390624
-0.22142248046875002,-0.0749254736328125,1.0078554638671875
-0.3048210546875,-0.13938423095703126,0.810013349609375
-0.18397822265625,-0.1759026904296875,0.7306307373046875
-0.10203851562499999,-0.1690401611328125,0.7738856591796874
-0.03079716796875,-0.24918469970703125,0.846386806640625
0.047981660156249994,-0.26830174560546877,0.9518206787109375
0.021965195312499998,-0.29379114013671875,1.0216183935546874
-0.05462533203125,-0.32712342529296873,1.0407881884765624
-0.14945169921875,-0.3288390576171875,1.0260421923828125
-0.1151683203125,-0.16928525146484374,1.032186357421875
-0.1793584765625,-0.1337471533203125,1.0535680517578125
-0.164283515625,-0.16487362548828124,1.0732293798828125
-0.12221951171875,-0.14894275390625,1.093136474609375
-0.05219388671875,-0.15654055419921875,1.0810939111328124
-0.12173322265625,-0.1513936572265625,1.0324321240234375
-0.031769746093749995,-0.144040947265625,0.9680412744140625
-0.052680175781250005,-0.2621744873046875,0.969761640625
0.0093216796875,-0.218548408203125,1.0184234277343749
0.006403945312499999,-0.3357015869140625,1.0633987158203124
-0.0383346484375,-0.35800480712890626,1.1014925390624999
-0.043683828125000004,-0.2700173779296875,0.973202373046875
-0.16938955078125,-0.23521455078125,0.88620099609375
-0.14702025390625,-0.216587685546875,0.85474287109375
-0.144831953125,-0.173451787109375,0.845403740234375
-0.0266637109375,-0.069533486328125,0.8053437841796875
0.07594328125,-0.19428446533203125,0.843929140625
-0.02155767578125,-0.13742350830078126,0.9532952783203125
-0.1268392578125,-0.2121760595703125,1.0228472265625
-0.18470765625,-0.14330567626953125,1.04939001953125
-0.257651015625,-0.12124754638671875,0.9120064892578125
-0.3028758984375,-0.10997339111328125,0.83311541015625
-0.2955815625,-0.08448399658203125,0.7763433251953125
-0.27807515625,-0.14771730224609375,0.784453623046875
-0.15917748046875,-0.1102184814453125,0.9206083203125
-0.10203851562499999,-0.1004148681640625,1.0245675927734375
-0.10374052734375,-0.0808076416015625,1.103950205078125
-0.22482650390625,-0.1817848583984375,1.158510390625
-0.27029453125,-0.181294677734375,1.078390478515625
-0.28391062499999997,-0.20163717529296876,0.9542783447265625
-0.3267040625,-0.1886473876953125,0.984016103515625
-0.23844259765625,-0.20653898193359374,0.9700074072265625
-0.174981875,-0.3121729150390625,0.953541044921875
-0.17619759765625,-0.25090033203125,0.91176072265625
-0.2177753125,-0.28496788818359375,0.8117337158203125
-0.23163455078125,-0.30408493408203124,0.758893896484375
-0.27394169921875,-0.24305744140625,0.70728291015625
-0.25108611328125,-0.22075422119140625,0.680248583984375
-0.20197091796875,-0.267566474609375,0.6571465234375
-0.2250696484375,-0.271487919921875,0.67484171875
-0.2873146484375,-0.251880693359375,0.7050710107421875
-0.28196546875,-0.25849813232421875,0.766758427734375
-0.216802734375,-0.1180613720703125,0.9724650732421874
-0.220693046875,-0.1352176953125,1.1307387646484375
-0.2022140625,-0.010711806640625,1.2671392285156249
-0.20877896484375,-0.0055649096679687505,1.44261658203125
-0.43587595703125,0.01894412353515625,1.490295302734375
-0.486206875,0.0922261328125,1.2487067333984374
-0.46310814453125,0.1000690234375,1.1312302978515625
-0.50347013671875,0.0686974609375,1.224867373046875
-0.627230703125,0.0358553564453125,1.345784541015625
-0.57689978515625,-0.06438658935546875,1.39542939453125
-0.32062544921875,-0.23791054443359375,1.309411083984375
-0.310170234375,-0.22369530517578126,1.179646318359375
-0.2736985546875,-0.2602137646484375,1.1513831591796875
-0.2318776953125,-0.3690338720703125,1.2870463232421876
-0.30457791015625,-0.4406002490234375,1.5126600634765626
-0.386031328125,-0.4651092822265625,1.5913053759765625
-0.3437241796875,-0.5053040966796875,1.501109033203125
-0.304334765625,-0.39207236328125,1.2541135986328125
-0.2172890234375,-0.41486576416015625,1.0712632470703125
-0.22482650390625,-0.38741564697265624,0.9559987109375
-0.280992890625,-0.35604408447265623,0.889641728515625
-0.19273142578125,-0.3663378784179688,0.842454541015625
-0.1579617578125,-0.3462404711914063,0.8205813134765625
-0.0879361328125,-0.32761360595703126,0.8146829150390625
-0.04830357421875,-0.332270322265625,0.8844806298828125
-0.0018629687499999992,-0.38300402099609376,1.014491162109375
0.003729355468750001,-0.4307966357421875,1.1887396826171874
0.00810595703125,-0.43153190673828123,1.2619781298828125
-0.1034973828125,-0.4680503662109375,1.201273779296875
-0.14118478515625,-0.43912970703125,1.0240760595703124
-0.17473873046875,-0.37908257568359377,0.8677685009765626
-0.1633109375,-0.351877548828125,0.805098017578125
-0.17230728515625,-0.34673065185546875,0.693028447265625
-0.16160892578125,-0.27222319091796876,0.6362563623046875
-0.1297569921875,-0.2259011181640625,0.5659671142578125
-0.002835546875000001,-0.2567825,0.51656802734375
0.0355812890625,-0.27246828125,0.5826792431640625
-0.024232265625,-0.2805562622070312,0.60897626953125
0.01150998046875,-0.28545806884765623,0.6964691796875
-0.008184726562500001,-0.311682734375,0.9921264013671875
-0.16841697265625,-0.21144078857421875,1.2452660009765626
-0.356853984375,-0.15286419921875,1.274020693359375
-0.40280830078125,-0.17369687744140624,1.064627548828125
-0.3524773828125,-0.08203309326171875,0.767741494140625
-0.28391062499999997,-0.0759058349609375,0.572111279296875
-0.25303126953125,-0.1259042626953125,0.476753837890625
-0.1657423828125,-0.16830489013671876,0.488550634765625
-0.13097271484375,-0.14722712158203125,0.5807131103515625
-0.28901666015625,-0.1680597998046875,0.6888504150390625
-0.28853037109375,-0.24281235107421875,0.7952673535156249
-0.15042427734375,-0.30849656005859377,0.8048522509765625
-0.19710802734375,-0.2214894921875,0.8874298291015625
-0.38432931640625,-0.10801266845703125,0.859658203125
-0.37508982421875,-0.1327667919921875,0.75250396484375
-0.35661083984374997,-0.1327667919921875,0.7306307373046875
-0.38384302734375,-0.1161006494140625,0.7149016748046875
-0.43101306640625,-0.149923115234375,0.6775451513671875
-0.42128728515625,-0.1660990771484375,0.6642737548828125
-0.4361191015625,-0.20751934326171875,0.7173593408203125
-0.4526529296875,-0.236194912109375,0.68172318359375
-0.42225986328125,-0.24305744140625,0.6873758154296875
-0.39745912109375,-0.28643843017578124,0.686638515625
-0.3578265625,-0.355798994140625,0.759876962890625
-0.312115390625,-0.35653426513671876,0.862115869140625
-0.34396732421875,-0.24477307373046875,0.943710380859375
-0.3806821484375,-0.26241957763671875,0.9021758251953125
-0.4049966015625,-0.30604565673828127,0.7792925244140625
-0.42274615234375,-0.22859711181640624,0.7055625439453125
-0.28998923828125,-0.19820591064453125,0.6608330224609374
-0.2177753125,-0.23202837646484376,0.7222746728515625
-0.27029453125,-0.2445279833984375,0.775606025390625
-0.32475890625,-0.2151171435546875,0.7832247900390625
-0.3096839453125,-0.3298194189453125,0.7448852001953125
-0.18203306640625,-0.1651187158203125,0.818860947265625
-0.0782103515625,-0.09624833251953124,0.9292101513671875
0.0032430664062499982,-0.0415931884765625,1.2123332763671875
0.071080390625,-0.17369687744140624,1.65299279296875
0.13210966796875,-0.18595139404296876,1.956268779296875
0.14767091796875,-0.0513968017578125,2.129718558349609
-0.1399690625,-0.19281392333984376,2.129718558349609
-0.392839375,-0.2643803002929688,1.9481584814453126
-0.51708623046875,-0.11879664306640625,1.980845439453125
-0.59391990234375,-0.096983603515625,2.05605001953125
-0.693366015625,-0.2180582275390625,2.129718558349609
-0.4905834765625,-0.1906081103515625,1.988709970703125
-0.38773333984375,-0.20727425292968749,1.733112705078125
-0.352963671875,-0.2778602685546875,1.616127802734375
-0.15480087890625,-0.406777783203125,1.7603927978515626
-0.1744955859375,-0.47270708251953125,1.93218365234375
-0.3719289453125,-0.570498125,1.6979680810546876
-0.458002109375,-0.49206921875,1.294665087890625
-0.4730770703125,-0.46682491455078123,1.114763935546875
-0.43733482421875003,-0.48618705078125,1.0122792626953125
-0.4448723046875,-0.48618705078125,0.96877857421875
-0.4759948046875,-0.581282099609375,0.917167587890625
-0.42955419921875,-0.5418225561523438,0.9026673583984375
-0.352963671875,-0.465599462890625,0.820335546875
-0.29582470703125,-0.47123654052734376,0.7952673535156249
-0.34834392578125,-0.5040786450195313,0.7829790234375
-0.33715927734375,-0.50187283203125,0.7109694091796875
-0.288773515625,-0.39672907958984377,0.5561364501953125
-0.1774133203125,-0.40898359619140623,0.45537214355468747
-0.25838044921875,-0.3925625439453125,0.5391785546875
-0.3656071875,-0.44305115234375,0.6957318798828125
-0.34202216796875,-0.43398281005859374,0.6510023583984375
-0.30700935546875,-0.4700110888671875,0.5979167724609376
-0.2800203125,-0.4254046484375,0.41236298828125
-0.33108066406250003,-0.47050126953125,0.414820654296875
-0.31819400390625,-0.38741564697265624,0.3393703076171875
-0.34202216796875,-0.46780527587890625,0.5025593310546875
-0.33375525390625,-0.4602074755859375,0.5118984619140625
-0.26859251953125,-0.4097188671875,0.5123899951171875
-0.22871681640625,-0.34673065185546875,0.5866115087890625
-0.2299325390625,-0.1660990771484375,0.6883588818359375
-0.3033621875,-0.12075736572265625,0.7281730712890625
-0.3213548828125,-0.11438501708984375,0.722520439453125
-0.25594900390624997,-0.1043363134765625,0.6932742138671875
-0.24938410156250002,-0.24330253173828126,0.6087305029296874
-0.33108066406250003,-0.2425672607421875,0.5861199755859375
-0.361716875,-0.14575657958984375,0.541636220703125
-0.31187224609374997,-0.1116890234375,0.539670087890625
-0.27053767578125,-0.09796396484375,0.5546618505859375
-0.308225078125,-0.26487048095703125,0.5340174560546875
-0.28974609375,-0.2915853271484375,0.5330343896484375
-0.24695265625,-0.2820268041992188,0.60307787109375
-0.21801845703125,-0.226391298828125,0.651739658203125
-0.244034921875,-0.29771258544921875,0.714164375
-0.2800203125,-0.36339679443359374,0.8087845166015625
-0.3242726171875,-0.3278586962890625,0.799199619140625
-0.3009307421875,-0.33594667724609373,0.8589209033203125
-0.2717533984375,-0.3131532763671875,0.9267524853515625
-0.2999581640625,-0.2357047314453125,0.8957858935546875
-0.28172232421875,-0.40261124755859373,0.8771076318359375
-0.25011353515625,-0.438149345703125,0.8274627783203125
-0.20537494140625,-0.46437401123046873,0.8616243359375
-0.20780638671875,-0.46290346923828124,0.94125271484375
-0.1900568359375,-0.222469853515625,1.07888201171875
-0.20026890625,-0.3857000146484375,1.1150097021484375
-0.152612578125,-0.47515798583984376,1.1700614208984375
-0.18835482421875,-0.3660927880859375,1.2506728662109374
-0.36682291015625,-0.24697888671875,1.24993556640625
-0.2523018359375,-0.32761360595703126,1.1828412841796876
-0.333512109375,-0.21144078857421875,1.050864619140625
-0.34883021484375,-0.29673222412109374,0.845403740234375
-0.19175884765625,-0.28398752685546874,0.751029365234375
-0.26372962890625,-0.3398681225585938,0.8023945849609375
-0.34250845703125,-0.46069765625,0.8023945849609375
-0.190543125,-0.481285244140625,0.75250396484375
-0.1949197265625,-0.4898634057617188,0.9719735400390626
-0.12708240234375,-0.434227900390625,1.0820769775390624
-0.09693248046875,-0.4719718115234375,1.006626630859375
-0.01863994140625,-0.4859419604492187,1.196358447265625
-0.15334201171875,-0.6712302514648437,1.567957548828125
-0.57398205078125,-0.6104478491210937,1.7237735742187499
-0.68777369140625,-0.5484399951171876,1.516838095703125
-0.6342818945312501,-0.5307934912109376,1.2290454052734374
-0.459947265625,-0.6072616748046875,1.001711298828125
-0.1803310546875,-0.56069451171875,0.9641090087890625
-0.06410796875,-0.5207447875976563,1.1808751513671876
-0.11492517578125,-0.64304486328125,1.63431453125
-0.63087787109375,-0.7079938012695313,1.6989511474609376
-0.69993091796875,-0.6151045654296875,1.2585373974609375
-0.16598552734375,-0.3788374853515625,1.321207880859375
-0.49885039062500003,-0.25090033203125,1.8616486376953125
-0.70673896484375,-0.2641352099609375,2.114542470703125
-0.7113587109375,-0.32908414794921875,1.89286099609375
-0.44924890625,-0.17761832275390624,1.468667841796875
-0.4409819921875,-0.147962392578125,1.0117877294921875
-0.4925286328125,-0.3768767626953125,0.8557259375
-0.366579765625,-0.5231956909179688,0.7635634619140625
-0.40621232421875,-0.49525539306640626,0.7517666650390625
-0.39308251953125,-0.4959906640625,0.554416083984375
-0.35320681640625,-0.4986866577148438,0.46594010742187497
-0.2736985546875,-0.4396198876953125,0.40277809082031246
-0.2240970703125,-0.41976757080078125,0.4386600146484375
-0.25594900390624997,-0.46290346923828124,0.490516767578125
-0.33983386718749997,-0.48741250244140627,0.6178238671875
-0.4545980859375,-0.5288327685546875,0.6465785595703125
-0.45484123046875,-0.52148005859375,0.605535537109375
-0.475508515625,-0.46486419189453126,0.548517685546875
-0.36366203125,-0.4749128955078125,0.4666774072265625
-0.25157240234375,-0.453835126953125,0.5064915966796875
-0.21850474609375,-0.32075107666015623,0.6003744384765625
-0.22531279296875,-0.320505986328125,0.6453497265625
-0.36633662109375,-0.38202365966796875,0.7389868017578125
-0.4536255078125,-0.40898359619140623,0.7060540771484375
-0.32111173828125,-0.30800637939453124,0.6846723828125
-0.26810623046875,-0.30849656005859377,0.8576920703124999
-0.28585578125,-0.2053135302734375,1.1056705712890624
-0.2571647265625,-0.2082546142578125,1.3386573095703125
-0.33764556640625,-0.30261439208984375,1.5379740234375001
-0.43927998046875,-0.38986655029296874,1.7132056103515625
-0.36244630859375,-0.12026718505859375,1.5571438183593749
-0.42906791015625,0.010611052246093749,1.4477776806640625
-0.4273658984375,0.0270321044921875,1.3590559375
-0.45313921875,0.057913486328125,1.3059703515625
-0.6119125976562501,0.00227798095703125,1.31088568359375
-0.57933123046875,-0.052867343750000004,1.1907058154296875
-0.5134390625,-0.14183513427734376,1.0661021484375
-0.34445361328125,-0.14502130859375,0.9827872705078124
-0.23941517578125,-0.2259011181640625,0.854251337890625
-0.15431458984375,-0.33055468994140624,0.8579378369140624
-0.27540056640625,-0.38422947265625,0.8844806298828125
-0.39818855468750003,-0.4347180810546875,0.86850580078125
-0.3952708203125,-0.55285162109375,0.9778719384765625
-0.39016478515624997,-0.5874093579101562,1.136391396484375
-0.14215736328125,-0.44525696533203124,1.3376742431640625
-0.011831894531250001,-0.23742036376953124,1.437209716796875
-0.057056777343750004,-0.38692546630859376,1.4182856884765624
-0.325731484375,-0.5788311962890625,1.2998261865234375
-0.51416849609375,-0.6366725146484375,1.1071451708984374
-0.5460204296875,-0.5746646606445313,0.8702261669921875
-0.52194912109375,-0.5398618334960937,0.79379275390625
-0.36487775390625,-0.36854369140625,0.7448852001953125
-0.08307324218750001,-0.25310614501953127,0.9513291455078126
-0.1803310546875,-0.365602607421875,1.1867735498046874
-0.34591248046875,-0.3406033935546875,1.347750673828125
-0.46553958984375,-0.4945201220703125,1.3189959814453125
-0.6675926953125,-0.2820268041992188,1.134425263671875
-0.55817765625,-0.34771101318359376,0.9734481396484375
-0.49082662109375,-0.46731509521484377,0.8970147265625
-0.4273658984375,-0.54893017578125,0.86457353515625
-0.1890842578125,-0.2842326171875,0.798216552734375
-0.160393203125,-0.0935523388671875,0.8186151806640625
-0.26713365234374997,-0.1587463671875,0.862115869140625
-0.39162365234375,-0.28300716552734373,0.664519521484375
-0.36755234375,-0.238155634765625,0.5286105908203125
-0.2805066015625,-0.23791054443359375,0.4578298095703125
-0.1161408984375,-0.3729553173828125,0.4917456005859375
-0.2104809765625,-0.5094706323242187,0.67779091796875
-0.245980078125,-0.5778508349609375,0.7370206689453125
-0.18495080078125,-0.5641257763671875,0.7217831396484375
-0.19467658203125,-0.6119183911132813,0.7817501904296875
-0.20975154296875,-0.6599560961914063,0.9272440185546875
-0.221665625,-0.6560346508789062,0.9164302880859375
-0.2153438671875,-0.695984375,0.7729025927734375
-0.26421591796875,-0.6442703149414063,0.5782554443359375
-0.19759431640625,-0.5957424291992187,0.4425922802734375
-0.1550440234375,-0.5457440014648437,0.2646572607421875
-0.13486302734375,-0.49084376708984373,0.260479228515625
-0.14215736328125,-0.4680503662109375,0.2543350634765625
-0.1073876953125,-0.45089404296875,0.2081309423828125
-0.14580453125,-0.48153033447265625,0.301768017578125
-0.23601115234375,-0.5403520141601562,0.3860659619140625
-0.25157240234375,-0.5972129711914063,0.5094407958984375
-0.2775888671875,-0.6751516967773438,0.6701721533203124
-0.356853984375,-0.6991705493164062,0.67975705078125
-0.34104958984375,-0.675396787109375,0.605535537109375
-0.2955815625,-0.6359372436523437,0.5458142529296874
-0.23528171875,-0.6325059790039063,0.4887964013671875
-0.12854126953125,-0.665593173828125,0.5654755810546875
-0.18640966796875,-0.6555444702148437,0.7134270751953125
-0.1706052734375,-0.6606913671875,0.6460870263671875
-0.207076953125,-0.5790762866210938,0.600620205078125
-0.3252451953125,-0.46388383056640625,0.47724537109375
-0.346155625,-0.3310448706054687,0.5133730615234375
-0.4370916796875,-0.30751619873046876,0.7355460693359375
-0.3748466796875,-0.353838271484375,0.8235305126953125
-0.28998923828125,-0.3033496630859375,0.985490703125
-0.49325806640625003,-0.21634259521484375,1.099034873046875
-0.3835998828125,-0.41241486083984374,0.9940925341796875
-0.2882872265625,-0.2058037109375,1.079865078125
-0.40718490234375,-0.3141336376953125,1.2845886572265626
-0.086477265625,-0.5035884643554688,1.18603625
-0.146777109375,-0.5454989111328125,1.1919346484375
-0.3223274609375,-0.2817817138671875,1.420497587890625
-0.14847912109375,-0.377366943359375,1.329072412109375
-0.47818310546875,-0.44231588134765626,1.4128788232421874
-0.50152498046875,-0.5038335546875,1.2614865966796875
-0.36487775390625,-0.5594690600585938,1.00220283203125
-0.45702953125,-0.35310300048828125,0.9346170166015625
-0.2474389453125,-0.41241486083984374,0.9552614111328125
-0.112736875,-0.5013826513671875,1.3602847705078125
-0.14215736328125,-0.4803048828125,1.7041122460937501
-0.19224513671875,-0.5065295483398438,1.696739248046875
-0.1180860546875,-0.5310385815429688,1.44851498046875
-0.2722396875,-0.24085162841796875,1.5908138427734375
-0.25935302734375,-0.3974643505859375,1.9390651171875
-0.3111428125,-0.404817060546875,2.129718558349609
-0.29193439453125003,-0.028113220214843748,2.129718558349609
-0.53070232421875,-0.2151171435546875,2.129718558349609
-0.45289607421875,-0.5526065307617187,2.129718558349609
-0.2707808203125,-0.0808076416015625,2.129718558349609
-0.48790888671875,-0.38839600830078125,1.95381111328125
-0.13948277343749999,-0.47662852783203125,1.9683113427734376
-0.15577345703125,-0.58814462890625,2.0499058544921875
-0.29728357421875,-0.21487205322265626,2.0907031103515625
-0.4818302734375,-0.638143056640625,1.771943828125
-0.17717017578125,-0.4082483251953125,1.744909501953125
-0.439523125,-0.72147376953125,1.5529657861328126
-0.34226531250000003,-0.6182907397460937,1.322190947265625
-0.39600025390625,-0.5555476147460937,0.980083837890625
-0.2659179296875,-0.44133552001953125,0.8712092333984375
-0.39989056640625,-0.40212106689453125,0.8073099169921875
-0.3505322265625,-0.5984384228515625,0.904387724609375
-0.33642984375,-0.6033402294921875,1.0230929931640624
-0.54140068359375,-0.5325091235351562,0.9552614111328125
-0.4332013671875,-0.555792705078125,0.6323240966796875
-0.3729015234375,-0.5133920776367188,0.43988884765625
-0.34396732421875,-0.49133394775390626,0.329293876953125
-0.36536404296875,-0.4729521728515625,0.2508943310546875
-0.31697828125,-0.48790268310546875,0.215258173828125
-0.31430369140625003,-0.4803048828125,0.261953828125
-0.28658521484375,-0.4594722045898437,0.11940919921875
-0.3223274609375,-0.41143449951171873,0.08106960937499999
-0.35369310546875,-0.3839843823242188,0.110070068359375
-0.341292734375,-0.3535931811523437,0.14963849121093747
-0.3952708203125,-0.332270322265625,0.20247831054687498
-0.46067669921875,-0.35898516845703127,0.3433025732421875
-0.52827087890625,-0.38422947265625,0.49641516601562496
-0.59002958984375,-0.35947534912109375,0.5866115087890625
-0.62698755859375,-0.35261281982421877,0.5369666552734375
-0.43636224609375,-0.154824921875,0.5222206591796875
-0.3855450390625,-0.1038461328125,0.5359835888671876
-0.45435494140625,-0.10507158447265624,0.5509753515625
-0.50395642578125,-0.11340465576171875,0.4607790087890625
-0.4332013671875,-0.0788469189453125,0.4322700830078125
-0.42055785156250003,-0.04477936279296875,0.5222206591796875
-0.47380650390625,0.0044837939453125,0.5104238623046875
-0.1944334375,-0.07419020263671874,0.5826792431640625
-0.1229489453125,-0.22467566650390625,0.686638515625
-0.2800203125,-0.38104329833984374,0.740215634765625
-0.42055785156250003,-0.39427817626953127,0.8019030517578125
-0.3826273046875,-0.10115013916015625,0.908319990234375
-0.329621796875,-0.10409122314453124,0.7650380615234375
-0.304334765625,-0.05090662109375,0.669434853515625
-0.35612455078125,-0.1121792041015625,0.515093427734375
-0.29485212890625,-0.29624204345703126,0.252614697265625
-0.159420625,-0.20898988525390624,0.296852685546875
-0.082586953125,-0.224430576171875,0.368616533203125
-0.01280447265625,-0.19036302001953126,0.5873488085937499
-0.049276152343750004,-0.4464824169921875,0.8495817724609375
-0.45873154296875,-0.5575083374023437,0.9877026025390625
-0.55404419921875,-0.5834879125976562,0.945676513671875
-0.31576255859375,-0.5168233422851563,0.94321884765625
-0.05997451171875,-0.1749223291015625,0.875387265625
-0.13097271484375,-0.01046671630859375,0.9208540869140625
-0.22190876953125,-0.296977314453125,0.8225474462890625
-0.35028908203125,-0.23889090576171876,0.5522041845703125
-0.35223423828125,-0.19232374267578126,0.356328203125
-0.28464005859375,-0.1445311279296875,0.3747606982421875
-0.32500205078125,-0.067572763671875,0.552449951171875
-0.29631099609375,-0.11830646240234374,0.8141913818359375
-0.44049570312499997,-0.32271179931640626,1.09854333984375
-0.646682265625,-0.3508971875,1.289749755859375
-0.142886796875,-0.19771572998046874,1.3239113134765625
-0.0626491015625,-0.28006608154296875,1.4121415234375
-0.0772377734375,-0.32075107666015623,1.382157998046875
-0.06726884765625,-0.18742193603515625,1.27549529296875
-0.25351755859375,-0.2317832861328125,1.36790353515625
-0.47672423828125,-0.22516584716796875,1.4337689843749999
-0.6296621484375,-0.2516356030273437,1.54485548828125
-0.64060365234375,-0.15801109619140624,1.43475205078125
-0.66589068359375,-0.21732295654296874,1.057746083984375
-0.587355,-0.1901179296875,0.6492819921874999
-0.203186640625,-0.3288390576171875,0.4740504052734375
-0.005510136718749999,-0.33888776123046876,0.684180849609375
-0.08428896484375001,-0.4151108544921875,1.13393373046875
-0.3281629296875,-0.5467243627929688,1.4831680712890625
-0.4341739453125,-0.41829702880859376,1.482430771484375
-0.3233000390625,-0.5682923120117187,1.099034873046875
-0.32281375,-0.5481949047851562,0.9048792578125
-0.2698082421875,-0.31486890869140627,1.2487067333984374
-0.45678638671875,-0.09085634521484375,1.4723543408203126
-0.44657431640625,-0.12663953369140624,1.3135891162109374
-0.2255559375,-0.22663638916015624,1.1867735498046874
-0.07188859375000001,-0.1278649853515625,1.3885479296875
-0.16793068359375,-0.3141336376953125,1.5637795166015624
-0.33132380859375,-0.5325091235351562,1.5672202490234375
-0.48158712890625,-0.6528484765625,1.293682021484375
-0.60315939453125,-0.4040817895507812,0.9454307470703125
-0.18689595703125,-0.4043268798828125,0.83213234375
-0.18689595703125,-0.4396198876953125,0.992863701171875
-0.34445361328125,-0.4553056689453125,1.042017021484375
-0.510521328125,-0.273448642578125,0.8127167822265625
-0.46553958984375,-0.3464855615234375,0.5900522412109375
-0.30360533203125,-0.13056097900390626,0.5448311865234375
-0.14896541015625,-0.07517056396484376,0.6215103662109375
-0.286828359375,-0.0043394580078125,0.951574912109375
-0.47842625,-0.00409436767578125,1.277952958984375
-0.63987421875,0.0054641552734375,1.35610673828125
-0.52632572265625,0.096147578125,1.30498728515625
-0.44730375,0.06943273193359376,1.3180129150390625
-0.76898396484375,-0.10409122314453124,1.3728188671875
-0.68291080078125,-0.02321141357421875,1.169815654296875
-0.44268400390625,0.09247122314453125,1.045949287109375
-0.35977171875,0.14099910888671874,1.08674654296875
-0.26907880859375,0.019434304199218752,1.121645400390625
-0.3592854296875,-0.275409365234375,1.040542421875
-0.55793451171875,-0.17712814208984376,0.9262609521484375
-0.46991619140625,-0.0857094482421875,0.783470556640625
-0.37071322265625,-0.20408807861328124,0.7684787939453125
-0.41399294921875,-0.07468038330078125,0.859658203125
-0.31989601562500003,-0.12467881103515625,0.9026673583984375
-0.21899103515625,-0.128355166015625,0.9105318896484375
-0.3811684375,-0.16830489013671876,0.84097994140625
-0.3203823046875,-0.283252255859375,0.839505341796875
-0.27029453125,-0.14134495361328125,0.9547698779296875
-0.35320681640625,0.0613447509765625,1.0781447119140626
-0.45313921875,0.08462833251953125,1.120662333984375
-0.18057419921875,-0.21585241455078125,1.094119541015625
-0.4147223828125,-0.17712814208984376,1.2115959765625
-0.58127638671875,-0.09771887451171875,1.1538408251953125
-0.69263658203125,-0.1327667919921875,0.9095488232421876
-0.52340798828125,-0.06242586669921875,0.7065456103515625
-0.36536404296875,-0.0011532836914062497,0.580958876953125
-0.13948277343749999,0.02433611083984375,0.571128212890625
-0.08331638671875,0.06796218994140625,0.77609755859375
-0.221665625,0.1623219677734375,0.96877857421875
-0.38578818359375,-0.06046514404296875,1.07494974609375
-0.4045103125,-0.08644471923828125,1.17129025390625
-0.605833984375,-0.1817848583984375,1.35610673828125
-0.615559765625,-0.25359632568359375,1.031203291015625
-0.3408064453125,-0.20212735595703124,0.609467802734375
-0.19564916015625,-0.0759058349609375,0.4126087548828125
-0.1453182421875,-0.08203309326171875,0.352887470703125
-0.06848457031249999,-0.07222947998046875,0.32069204589843747
-0.04295439453125,-0.06830803466796875,0.384345595703125
-0.115654609375,0.053992041015625,0.708757509765625
-0.39551396484375,-0.12516899169921875,0.9501003125
-0.6481411328125,-0.147962392578125,1.24403716796875
-0.5897864453125,-0.1190417333984375,1.2659103955078126
-0.40037685546875,-0.3072711083984375,1.2152824755859375
-0.308225078125,-0.393052724609375,0.9990078662109375
-0.24330548828125,-0.14820748291015626,0.80952181640625
-0.3500459375,-0.159726728515625,0.6170865673828125
-0.296554140625,-0.24918469970703125,0.419735986328125
-0.21655958984375,-0.19967645263671874,0.378447197265625
-0.2299325390625,-0.04428918212890625,0.5551533837890625
-0.26518849609375,0.0059543359375,0.567195947265625
-0.361716875,0.016738310546875,0.680248583984375
-0.458002109375,-0.0170841552734375,0.79379275390625
-0.51076447265625,-0.1004148681640625,0.6886046484375
-0.52000396484375,-0.09624833251953124,0.69941837890625
-0.31697828125,0.0137972265625,0.723503505859375
-0.35223423828125,-0.0533575244140625,0.9287186181640625
-0.42201671875,-0.226391298828125,1.0221099267578124
-0.53605150390625,-0.16462853515625,1.0112961962890625
-0.42566388671875,0.01159141357421875,0.8825144970703125
-0.20197091796875,-0.00409436767578125,0.6834435498046875
-0.058272500000000005,0.0593840283203125,0.8097675830078125
-0.42201671875,0.1015395654296875,1.0594664501953126
-0.621395234375,0.06109966064453125,1.107882470703125
-0.66832212890625,-0.00850599365234375,1.0638902490234374
-0.44730375,0.069677822265625,0.8869382958984375
-0.32305689453124997,0.10521592041015625,0.8402426416015625
-0.42517759765625,0.01159141357421875,0.7340714697265625
-0.57762921875,-0.10972830078125,0.7515208984375
-0.59051587890625,-0.16585398681640626,0.7188339404296875
-0.44754689453125,-0.27614463623046875,0.585874208984375
-0.19078626953125,-0.2376654541015625,0.6205272998046875
-0.11200744140625,-0.06879821533203125,0.6972064794921875
-0.310170234375,0.0760501708984375,0.8456495068359375
-0.582492109375,0.028257556152343752,0.969761640625
-0.6230972460937501,-0.13325697265625,1.022355693359375
-0.57641349609375,-0.06585713134765625,0.985982236328125
-0.45095091796875,0.0809519775390625,0.8903790283203125
-0.33813185546875,0.13217585693359374,0.89504859375
-0.378250703125,-0.04477936279296875,0.7910893212890625
-0.43101306640625,-0.181294677734375,0.67779091796875
-0.3748466796875,-0.12222790771484375,0.5669501806640624
-0.21510072265625,0.0221302978515625,0.6495277587890624
-0.25497642578125,0.028502646484374998,0.89209939453125
-0.35758341796875,-0.08301345458984374,1.1125520361328125
-0.57252318359375,0.08634396484375,1.266156162109375
-0.500795546875,0.15766525146484375,1.1032129052734374
-0.5022544140625,0.13707766357421874,1.0692971142578125
-0.5285140234375,0.16207687744140625,1.124594599609375
-0.53021603515625,0.07237381591796875,1.049881552734375
-0.55258533203125,0.0044837939453125,0.944693447265625
-0.4954463671875,-0.02321141357421875,0.756927763671875
-0.20440236328125,-0.02615249755859375,0.6333071630859375
-0.19856689453125,-0.110708662109375,0.615857734375
-0.33253953125,-0.26487048095703125,0.5590856494140625
-0.09547361328125001,-0.18815720703125,0.5234494921875
-0.051464453125000004,-0.1327667919921875,0.7709364599609375
-0.31868029296875,-0.2567825,1.14573052734375
-0.72667681640625,-0.32271179931640626,1.1617053564453126
-0.68971884765625,-0.23742036376953124,1.0088385302734375
-0.46870046875,-0.0533575244140625,0.8358188427734374
-0.2347954296875,-0.07443529296875,0.890624794921875
-0.14069849609375001,0.0255615625,1.0722463134765625
-0.48401857421875,0.0280124658203125,1.0820769775390624
-0.51659994140625,-0.00605509033203125,0.9016842919921875
-0.3057936328125,-0.04968116943359375,0.7561904638671875
-0.28707150390625,-0.01781942626953125,0.843437607421875
-0.4390368359375,-0.0906112548828125,1.0378389892578126
-0.32013916015625,-0.16070708984375,1.105916337890625
-0.22920310546875,-0.0906112548828125,1.306461884765625
-0.563040546875,0.05913893798828125,1.326123212890625
-0.7103861328125,-0.18987283935546875,1.1223827001953124
-0.66345923828125,-0.21952876953125,0.810996416015625
-0.49860724609375,-0.013407800292968751,0.8223016796875
-0.29242068359375,0.11379408203125,0.8171405810546875
-0.27296912109375,0.197124794921875,0.9395323486328125
-0.23844259765625,0.2025167822265625,0.9267524853515625
-0.15382830078125,-0.05115171142578125,0.9582106103515625
-0.31722142578125,-0.25947849365234377,1.00416896484375
-0.50395642578125,-0.32369216064453127,0.9636174755859375
-0.47234763671875,-0.371484775390625,0.831640810546875
-0.54431841796875,-0.30604565673828127,0.7812586572265625
-0.47186134765625,-0.22320512451171876,0.777572158203125
-0.27880458984375,0.0686974609375,0.9154472216796875
-0.28269490234375,0.16501796142578126,0.9301932177734376
-0.20634751953125,0.16746886474609374,0.94911724609375
-0.506631015625,0.0358553564453125,1.087729609375
-0.526082578125,-0.0710040283203125,1.0348897900390626
-0.49957982421875,-0.06830803466796875,0.979100771484375
-0.43393080078125,-0.03546593017578125,0.9783634716796875
-0.3369161328125,-0.05752406005859375,1.0289913916015625
-0.377278125,-0.20997024658203126,1.034152490234375
-0.23066197265625,-0.3727102270507813,1.03562708984375
-0.2955815625,-0.3624164331054687,1.097068740234375
-0.61653234375,-0.33521140625,1.211104443359375
-0.6457096875,-0.34109357421875,0.890624794921875
-0.524137421875,-0.26487048095703125,0.5492549853515625
-0.40767119140625,-0.15212892822265625,0.3767268310546875
-0.2620276171875,-0.0778665576171875,0.3433025732421875
-0.1788721875,-0.03840701416015625,0.334209208984375
-0.0932853125,-0.0180645166015625,0.4750334716796875
-0.11687033203125,0.10472573974609375,0.7905977880859375
-0.48693630859375,0.0799716162109375,1.1132893359375
-0.82004431640625,-0.098944326171875,1.40919232421875
-1.0050773046875,-0.12860025634765626,1.6021191064453124
-0.91292552734375,0.20619313720703125,1.5396943896484374
-0.331566953125,0.19933060791015625,1.290732822265625
-0.15820490234375,0.09884357177734375,1.335953876953125
-0.38311359375,-0.04379900146484375,1.158018857421875
-0.5761703515625,0.0020328906249999995,0.9120064892578125
-0.4040240234375,0.017718671875,0.7615973291015625
-0.2017277734375,-0.08399381591796876,0.777572158203125
-0.4701593359375,-0.19232374267578126,0.820827080078125
-0.61677548828125,-0.1445311279296875,0.7325968701171874
-0.2221519140625,-0.08252327392578125,0.7173593408203125
-0.10568568359375,-0.17320669677734374,0.689096181640625
-0.33983386718749997,-0.32271179931640626,0.804114951171875
-0.4507077734375,-0.4641289208984375,0.937811982421875
-0.66637697265625,-0.385209833984375,1.1297556982421875
-0.638901640625,-0.08987598388671875,1.1985703466796875
-0.43490337890624997,-0.05017135009765625,1.2354353369140625
-0.15334201171875,0.016738310546875,1.3506998730468749
-0.14750654296875,0.13119549560546875,1.355123671875
-0.33375525390625,0.18952699462890624,1.2430541015625
-0.48012826171875,0.034384814453125,0.9906518017578125
-0.5129527734375,-0.1582561865234375,0.765283828125
-0.389921640625,-0.25702759033203126,0.8065726171875
-0.43004048828125,-0.249919970703125,0.884726396484375
-0.32548833984375003,-0.10115013916015625,0.9360916162109375
-0.43879369140625,-0.18202994873046874,0.9196252539062499
-0.3145468359375,-0.31756490234375,0.88030259765625
-0.588327578125,-0.22908729248046875,0.945676513671875
-0.60315939453125,-0.07958218994140626,0.7817501904296875
-0.34883021484375,-0.14134495361328125,0.6470700927734375
-0.056084199218750005,-0.14722712158203125,0.6952403466796875
-0.031769746093749995,-0.059484782714843754,0.86457353515625
-0.11054857421875,0.0799716162109375,1.230765771484375
-0.65908263671875,-0.048455717773437504,1.1848074169921876
-0.45289607421875,0.19222298828125,1.3258774462890626
-0.46019041015625,0.190262265625,1.505041298828125
-0.6948248828125,-0.14036459228515624,1.420497587890625
-0.67999306640625,0.0505607763671875,1.24600330078125
-0.58273525390625,-0.14281549560546875,1.0624156494140624
-0.5523421875,-0.20359789794921876,0.908319990234375
-0.18543708984375,-0.165608896484375,1.00810123046875
-0.26324333984375,0.042227705078125,1.0589749169921876
-0.37168580078125,-0.02958376220703125,0.7871570556640625
-0.44851947265625003,-0.118551552734375,0.5964421728515625
-0.47404964843749997,-0.13717841796875,0.436448115234375
-0.24573693359375,-0.21781313720703124,0.2651487939453125
-0.11735662109375,-0.22173458251953124,0.2833355224609375
-0.1365650390625,-0.2053135302734375,0.479703037109375
-0.2566784375,-0.02321141357421875,0.7389868017578125
-0.43344451171875,0.1314405859375,1.1958669140625
-0.68242451171875,0.19736988525390625,1.6424248291015624
-0.62358353515625,0.0883046875,1.68445091796875
-0.277102578125,0.059874208984374996,1.620060068359375
-0.14556138671875,0.00865032958984375,1.370361201171875
-0.09547361328125001,0.0407571630859375,1.3111314501953124
-0.486206875,0.06011929931640625,1.4556422119140624
-0.76047390625,-0.0778665576171875,0.973202373046875
-0.594163046875,-0.09134652587890625,0.6927826806640625
-0.436605390625,0.00963069091796875,0.379921796875
-0.31478998046875,0.0446786083984375,0.29881881835937496
-0.25108611328125,0.02580665283203125,0.234919501953125
-0.23941517578125,0.0387964404296875,0.216241240234375
-0.2172890234375,0.07335417724609375,0.358785869140625
-0.20464550781250002,0.10987263671875,0.5767808447265625
-0.44754689453125,0.055952763671875,0.8839890966796875
-0.6812087890625,-0.0886505322265625,1.100017939453125
-0.82101689453125,-0.0798272802734375,1.198324580078125
-0.28950294921874997,0.1182057080078125,1.0471781201171875
-0.1248941015625,0.057913486328125,1.229782705078125
-0.1317021484375,0.0682072802734375,1.05725455078125
-0.38238416015625,0.08609887451171874,0.8510563720703125
-0.27831830078124997,0.0358553564453125,0.6731213525390625
-0.19759431640625,0.08511851318359374,0.9795923046875
-0.52146283203125,-0.0837487255859375,1.2781987255859375
-0.780898046875,-0.0033590966796874996,1.2899955224609374
-0.794514140625,0.00570924560546875,1.098051806640625
-0.60510455078125,0.07090327392578125,0.875387265625
-0.3126016796875,-0.04968116943359375,0.7502920654296875
-0.2882872265625,-0.10115013916015625,0.9257694189453125
-0.34931650390625,0.1378129345703125,0.9886856689453125
-0.368524921875,0.14590091552734374,0.8038691845703125
-0.56984859375,-0.01561361328125,0.8166490478515624
-0.5781155078125,-0.09796396484375,0.7928096875
-0.419098984375,-0.1180613720703125,0.8687515673828125
-0.4040240234375,0.0358553564453125,1.0339067236328126
-0.3291355078125,-0.01487834228515625,1.0629071826171874
-0.32402947265625,-0.04575972412109375,1.13983212890625
-0.689475703125,-0.0964934228515625,1.1420440283203126
-0.467727890625,-0.2239403955078125,0.8466325732421875
-0.337402421875,-0.13595296630859374,0.89209939453125
-0.372415234375,-0.14330567626953125,0.8662939013671875
-0.3028758984375,0.01845394287109375,0.766758427734375
-0.19419029296875,-0.0724745703125,0.7232577392578124
-0.44560173828125,0.061834931640625,0.8962774267578125
-0.5275414453125,-0.08227818359375,0.91372685546875
-0.42031470703125,-0.11830646240234374,0.8658023681640625
-0.4361191015625,-0.14036459228515624,0.9238032861328125
-0.450221484375,-0.22810693115234376,0.7301392041015625
-0.29509527343749997,-0.2136466015625,0.6497735253906249
-0.2824517578125,-0.09428760986328125,0.7149016748046875
-0.4847480078125,-0.155805283203125,0.8481071728515625
-0.57349576171875,0.0780108935546875,0.9351085498046875
-0.3563676953125,0.1897720849609375,0.8694888671875
-0.088422421875,-0.01781942626953125,0.823776279296875
-0.20197091796875,-0.01978014892578125,0.9567360107421875
-0.528027734375,0.04933532470703125,1.0184234277343749
-0.45630009765625,-0.0803174609375,1.089204208984375
-0.3923530859375,-0.07664110595703125,1.05528841796875
-0.50444271484375,0.09051050048828126,0.9763973388671875
-0.380195859375,0.00963069091796875,0.793301220703125
-0.341292734375,-0.09624833251953124,0.6716467529296875
-0.31333111328125,-0.0690433056640625,0.5738316455078125
-0.27783201171875,-0.0371815625,0.551466884765625
-0.21996361328125,-0.1170810107421875,0.560314482421875
-0.22701480468750002,0.04688442138671875,0.7665126611328125
-0.524137421875,-0.0670825830078125,0.9655836083984375
-0.52389427734375,0.03659062744140625,0.938303515625
-0.29193439453125003,0.14737145751953126,0.930930517578125
-0.2766162890625,0.18266446533203126,1.0088385302734375
-0.3359435546875,0.0731090869140625,1.015474228515625
-0.54237326171875,0.05276658935546875,1.0476696533203125
-0.55064017578125,0.1182057080078125,0.991880634765625
-0.317950859375,0.1368325732421875,0.8933282275390625
-0.37314466796875,0.0686974609375,1.1263149658203124
-0.42809533203125,-0.01561361328125,1.231748837890625
-0.53410634765625,0.00717978759765625,1.1739936865234375
-0.63622705078125,0.0044837939453125,0.903404658203125
-0.6666201171875,0.00865032958984375,0.829674677734375
-0.265431640625,0.0574233056640625,0.6913080810546874
-0.039793515625,-0.02125069091796875,0.6564092236328125
-0.15431458984375,0.1231075146484375,0.84884447265625
-0.446331171875,0.1510478125,0.9926179345703126
-0.64692541015625,-0.040122646484374996,1.090187275390625
-0.6705104296875,0.01110123291015625,1.2332234375
-0.705036953125,-0.05115171142578125,1.1258234326171874
-0.11930177734375,0.09541230712890625,1.0621698828125
-0.174009296875,-0.0063001806640625,1.2017653125
-0.36147373046875,-0.1562954638671875,1.2747579931640625
-0.4643238671875,-0.1111988427734375,1.46227791015625
-0.626258125,-0.075415654296875,1.3622509033203125
-0.59635134765625,-0.14820748291015626,1.081339677734375
-0.51927453125,-0.21438187255859376,0.8830060302734375
-0.12610982421875,-0.027868129882812502,0.70138451171875
-0.25011353515625,-0.004829638671875,0.65616345703125
-0.35320681640625,-0.07468038330078125,0.59914560546875
-0.3942982421875,-0.051886982421875,0.65026505859375
-0.5285140234375,-0.1229631787109375,0.767741494140625
-0.57762921875,-0.19207865234375,0.9061080908203125
-0.59319046875,-0.2141367822265625,0.985490703125
-0.36341888671875,-0.12418863037109375,1.13786599609375
-0.1477496875,-0.07320984130859375,1.316292548828125
-0.31819400390625,0.0035034326171875,1.4322943847656249
-0.54577728515625,-0.0915916162109375,1.4433538818359375
-0.5771429296875,-0.17639287109375001,1.1213996337890624
-0.49228548828125,-0.08840544189453126,0.772656826171875
-0.29971501953125,-0.128355166015625,0.569162080078125
-0.26154132812499997,-0.030073942871093752,0.45512637695312497
-0.152612578125,0.019434304199218752,0.37304033203125
-0.22482650390625,0.071638544921875,0.4170325537109375
-0.4779399609375,0.019434304199218752,0.6903250146484375
-0.63282302734375,-0.07124911865234375,0.8422087744140625
-0.70600953125,0.01551285888671875,0.9734481396484375
-0.5314317578125,0.212810576171875,1.0923991748046875
-0.4332013671875,0.2044775048828125,1.2777071923828125
-0.33083751953125,-0.05850442138671875,1.28827515625
-0.4244481640625,-0.23889090576171876,1.0402966552734374
-0.2377131640625,-0.0886505322265625,0.735300302734375
-0.20683380859375,0.0005623486328125002,0.6893419482421875
-0.1939471484375,0.10227483642578125,0.8785822314453124
-0.4079143359375,0.1966346142578125,0.9874568359375
-0.6481411328125,-0.040122646484374996,0.76430076171875
-0.58030380859375,-0.14918784423828124,0.77609755859375
-0.28585578125,0.04198261474609375,0.785436689453125
-0.4049966015625,0.00619942626953125,0.7645465283203124
-0.46699845703125,0.042227705078125,0.61684080078125
-0.49909353515625,-0.0337502978515625,0.7203085400390625
-0.41812640624999997,-0.08791526123046875,0.7729025927734375
-0.50444271484375,-0.0161037939453125,0.890624794921875
-0.32451576171875,0.15129290283203126,0.98254150390625
-0.1958923046875,0.03953171142578125,0.924049052734375
-0.31041337890625,-0.1092381201171875,0.787402822265625
-0.22968939453125,-0.155805283203125,0.896523193359375
-0.54966759765625,-0.03203466552734375,1.099034873046875
-0.63087787109375,-0.06659240234375,1.0540595849609375
-0.279047734375,-0.0298288525390625,1.0053977978515625
-0.07991236328125,0.064776015625,1.134425263671875
-0.3962433984375,-0.03350520751953125,1.22044357421875
-0.71646474609375,-0.15997181884765624,0.9518206787109375
-0.45727267578124997,-0.081297822265625,0.6765620849609375
-0.33375525390625,0.05423713134765625,0.8068183837890625
-0.11687033203125,0.05619785400390625,1.0319405908203125
-0.29169125,0.18707609130859376,1.3696239013671876
-0.4166675390625,0.19197789794921874,1.528143359375
-0.84776279296875,0.13756784423828125,1.5301094921875
-0.8951759765625,0.116735166015625,1.4851342041015625
-0.54650671875,-0.1195319140625,1.13589986328125
-0.18495080078125,-0.140119501953125,0.839996875
-0.08380267578125,0.02972809814453125,0.68762158203125
-0.06921400390625,-0.046249904785156254,0.6313410302734375
-0.17862904296875,-0.00507472900390625,0.837539208984375
-0.660298359375,-0.11242429443359375,0.8751414990234375
-0.71062927734375,-0.1572758251953125,0.9174133544921875
-0.55015388671875,0.16991976806640624,1.0304659912109375
-0.45386865234375,0.23462361572265625,1.02579642578125
-0.18349193359375,0.06502110595703126,0.7950215869140624
-0.24136033203125,0.00521906494140625,0.797233486328125
-0.43295822265625,-0.10065995849609374,0.909303056640625
-0.53799666015625,0.1495772705078125,1.05233921875
-0.80934595703125,-0.08350363525390625,1.178663251953125
-0.708927265625,-0.25065524169921877,0.935845849609375
-0.26616107421875,-0.1866866650390625,0.8731753662109375
-0.09450103515625,-0.09281706787109376,0.6854096826171875
-0.1735230078125,0.0003172583007812497,0.58341654296875
-0.57009173828125,-0.049926259765625,0.8210728466796875
-0.7152490234375,0.028502646484374998,1.0447204541015624
-0.7235159375,0.16256705810546876,1.1975872802734375
-0.34493990234375,0.0652661962890625,1.078390478515625
-0.22434021484375,0.12972495361328126,0.996795966796875
-0.5003092578125,0.09345158447265625,0.9501003125
-0.62431296875,-0.198941181640625,0.68172318359375
-0.44414287109375,-0.2906049658203125,0.62667146484375
-0.40134943359374997,-0.171491064453125,0.7866655224609375
-0.4156949609375,-0.1190417333984375,0.8677685009765626
-0.30798193359375,-0.10801266845703125,0.949608779296875
-0.29971501953125,-0.167569619140625,1.2319946044921875
-0.57495462890625,-0.00605509033203125,1.2000449462890626
-0.576656640625,0.1863408203125,0.943710380859375
-0.35272052734375,0.20398732421875,1.0398051220703124
-0.3515048046875,0.29295511474609376,1.2359268701171875
-0.44949205078125,0.10962754638671875,1.4099296240234376
-0.33959072265625,-0.2474690673828125,1.3020380859375
-0.32791978515625,-0.18791211669921876,1.1061621044921874
-0.36876806640625,-0.04968116943359375,0.738249501953125
-0.35320681640625,-0.181294677734375,0.6060270703125
-0.47137505859375,-0.2082546142578125,0.658621123046875
-0.56863287109375,-0.224430576171875,0.7262069384765625
-0.5523421875,-0.21340151123046874,0.746114033203125
-0.11492517578125,0.05031568603515625,0.8891501953125
-0.12440781249999999,0.12555841796875,0.8594124365234375
-0.112736875,0.02286556884765625,0.7552073974609375
-0.1307295703125,-0.03129939453125,0.7473428662109375
-0.28512634765625,0.03561026611328125,0.75643623046875
-0.54723615234375,-0.02149578125,0.890624794921875
-0.48645001953125,0.2211436474609375,1.2374014697265625
-0.35515197265625,0.0005623486328125002,1.3868275634765626
-0.4847480078125,-0.03938737548828125,1.6183397021484376
-0.41423609375,0.1927131689453125,1.4993886669921874
-0.42809533203125,-0.0808076416015625,1.176697119140625
-0.54577728515625,-0.1259042626953125,1.04742388671875
-0.548451875,-0.21585241455078125,0.770690693359375
-0.28269490234375,0.024581201171875,0.5509753515625
-0.2800203125,-0.0543378857421875,0.406956123046875
-0.22628537109375,-0.13154134033203124,0.252614697265625
-0.259596171875,-0.13350206298828124,0.3319973095703125
-0.38870591796875,-0.05090662109375,0.4789657373046875
-0.51903138671875,-0.0710040283203125,0.619298466796875
-0.697256328125,-0.07370002197265625,0.9837703369140625
-0.81566771484375,-0.08154291259765625,0.9272440185546875
-0.66710640625,0.1495772705078125,0.888658662109375
-0.56425626953125,0.2182025634765625,1.0759328125
-0.56206796875,0.18952699462890624,0.9552614111328125
-0.34032015625,0.09149086181640625,0.9223286865234375
-0.28026345703125,0.03928662109375,0.8633447021484375
-0.220693046875,-0.02958376220703125,0.891116328125
-0.28269490234375,-0.17173615478515625,1.090187275390625
-0.4049966015625,-0.186196484375,1.1272980322265624
-0.38432931640625,-0.063651318359375,0.873912666015625
-0.45921783203125,0.0789912548828125,0.930438984375
-0.46213556640625,0.22874144775390626,0.945676513671875
-0.42055785156250003,0.257907197265625,1.019406494140625
-0.56376998046875,0.24442722900390626,1.2408422021484375
-0.75658359375,0.1809488330078125,1.374293466796875
-0.31235853515625,0.0642858349609375,1.1604765234375
-0.1744955859375,0.07776580322265625,1.0525849853515625
-0.2017277734375,-0.01732924560546875,0.8903790283203125
-0.24914095703125,-0.06732767333984375,0.84097994140625
-0.28950294921874997,-0.19600009765625,0.9041419580078125
-0.28609892578125,-0.25114542236328125,1.0289913916015625
-0.37508982421875,-0.22320512451171876,1.323665546875
-0.595135625,-0.032279755859375,1.2863090234375
-0.5479655859375,0.13560712158203125,1.00023669921875
-0.47186134765625,0.02360083984375,0.79575888671875
-0.333512109375,-0.026397587890625,0.8195982470703125
-0.177899609375,0.03659062744140625,0.8908705615234375
-0.51149390625,-0.0141430712890625,0.98057537109375
-0.5290003125,-0.249919970703125,0.860149736328125
-0.3660934765625,-0.36437715576171875,0.89209939453125
-0.23163455078125,-0.37957275634765625,0.989914501953125
-0.12756869140625,-0.216587685546875,1.1705529541015625
-0.45046462890625,-0.31780999267578125,1.4654728759765625
-0.7701996875,-0.0259074072265625,1.361513603515625
-0.71160185546875,0.15913579345703124,1.284342890625
-0.773117421875,0.01698340087890625,1.0751955126953125
-0.68655796875,-0.036201201171875,0.765775361328125
-0.347128203125,0.08168724853515624,0.5443396533203125
-0.21315556640625,0.02335574951171875,0.3644385009765625
-0.22531279296875,-0.02027032958984375,0.277191357421875
-0.4983641015625,-0.07566074462890625,0.38876939453125
-0.5445615625,-0.05703387939453125,0.457092509765625
-0.4847480078125,-0.09771887451171875,0.68565544921875
-0.4497351953125,-0.0464949951171875,0.93142205078125
-0.58419412109375,-0.00703545166015625,1.10640787109375
-0.506631015625,-0.0631611376953125,1.1263149658203124
-0.3359435546875,-0.04036773681640625,1.3204705810546875
-0.48158712890625,0.0456589697265625,1.390022529296875
-0.37119951171875,-0.0866898095703125,1.2025026123046876
-0.2153438671875,0.00472888427734375,1.111814736328125
-0.36293259765625,0.12972495361328126,0.993846767578125
-0.26470220703125,-0.05556333740234375,0.807064150390625
-0.30506419921875,-0.13154134033203124,0.959439443359375
-0.49593265625,-0.106787216796875,1.0267794921875
-0.4900971875,-0.02517213623046875,0.7817501904296875
-0.34810078125,-0.1151202880859375,0.588823408203125
-0.2114535546875,-0.07566074462890625,0.5502380517578125
-0.3019033203125,-0.06438658935546875,0.6736128857421875
-0.3553951171875,-0.09796396484375,0.8766160986328125
-0.6325798828125,-0.12149263671875,1.037101689453125
-0.25400384765625,-0.02958376220703125,0.94321884765625
-0.15066742187499998,-0.0053198193359375,1.0019570654296874
-0.25886673828125,0.0348749951171875,1.0943653076171875
-0.3855450390625,0.01208159423828125,1.134916796875
-0.578601796875,0.0319339111328125,1.1754682861328125
-0.557205078125,0.1878113623046875,1.1764513525390625
-0.5314317578125,0.23903524169921875,1.0319405908203125
-0.40256515625,0.2289865380859375,0.8741584326171875
-0.43684853515625,0.16403760009765625,0.7001556787109375
-0.31697828125,0.08413815185546875,0.5114069287109375
-0.30530734375,-0.13987441162109376,0.6165950341796875
-0.421044140625,0.0319339111328125,0.931913583984375
-0.522192265625,-0.028358310546875,1.1194335009765626
-0.47672423828125,-0.220509130859375,1.2816394580078125
-0.3719289453125,-0.0455146337890625,1.332021611328125
-0.47234763671875,-0.05090662109375,1.211104443359375
-0.4458448828125,-0.0455146337890625,1.0083469970703125
-0.6763458984375,-0.12516899169921875,0.875387265625
-0.41107521484375,0.0883046875,0.8734211328125
-0.37144265625,0.12947986328125,0.7871570556640625
-0.26178447265625,0.0760501708984375,0.6883588818359375
-0.18227621093750002,-0.0298288525390625,0.6972064794921875
-0.57057802734375,-0.11977700439453125,0.9498545458984375
-0.7157353125,-0.18153976806640626,0.94223578125
-0.631121015625,-0.34182884521484375,0.9213456201171875
-0.39089421875,-0.10262068115234375,0.9896687353515625
-0.2007551953125,0.09394176513671874,1.05725455078125
-0.47088876953125003,0.1240878759765625,1.0688055810546875
-0.5820058203125,0.0613447509765625,1.05135615234375
-0.4244481640625,0.0623251123046875,1.114763935546875
-0.413263515625,0.15913579345703124,1.213562109375
-0.2688356640625,0.17972338134765625,1.2093840771484374
-0.2075632421875,-0.018554697265625,1.1184504345703126
-0.33570041015625,-0.01193725830078125,0.99237216796875
-0.50444271484375,-0.2151171435546875,0.7910893212890625
-0.58127638671875,-0.2278618408203125,0.720554306640625
-0.526082578125,-0.234234189453125,0.7060540771484375
-0.55453048828125,-0.08497417724609375,0.7566819970703125
-0.47575166015625,-0.11977700439453125,0.7203085400390625
-0.3194097265625,-0.0415931884765625,0.5856284423828125
-0.2707808203125,-0.04919098876953125,0.56375521484375
-0.36585033203125,-0.0523771630859375,0.4686435400390625
-0.25546271484375,-0.0533575244140625,0.525907158203125
-0.17717017578125,-0.0180645166015625,0.7537327978515624
-0.30020130859375,0.06355056396484375,1.1565442578125
-0.5897864453125,0.033404453125,1.38166646484375
-0.72084134765625,-0.01634888427734375,1.3627424365234375
-0.47380650390625,0.00472888427734375,1.12213693359375
-0.56182482421875,0.026541923828125,1.0250591259765625
-0.5756840625,0.04124734375,0.9267524853515625
-0.42615017578125003,-0.00948635498046875,0.8948028271484375
-0.37898013671874997,-0.0612004150390625,0.99040603515625
-0.45338236328125,-0.17271651611328126,0.8299204443359375
-0.24379177734375002,-0.04870080810546875,0.6986810791015625
-0.30700935546875,0.07923634521484375,0.7394783349609375
-0.3135742578125,0.05325677001953125,0.789368955078125
-0.29922873046875,0.01257177490234375,0.989914501953125
-0.5139253515625,-0.11928682373046876,1.219952041015625
-0.62261095703125,-0.11561046875,1.1329506640625
-0.5508833203125,0.07580508056640625,0.9822957373046874
-0.50103869140625,0.06060947998046875,0.851302138671875
-0.422989296875,0.0838930615234375,0.8023945849609375
-0.3563676953125,-0.0327699365234375,0.9591936767578125
-0.42566388671875,-0.1116890234375,1.1307387646484375
-0.36682291015625,-0.00752563232421875,1.1838243505859376
-0.4278521875,-0.0646316796875,1.1754682861328125
-0.3553951171875,0.0191892138671875,1.097068740234375
-0.25400384765625,0.00816014892578125,1.0240760595703124
-0.3933256640625,-0.0219859619140625,1.083305810546875
-0.557205078125,-0.05899460205078125,1.000728232421875
-0.32937865234375,-0.02468195556640625,0.9444476806640625
-0.36341888671875,-0.16781470947265625,0.95501564453125
-0.50444271484375,0.055952763671875,1.0673309814453125
-0.4278521875,0.0642858349609375,1.1567900244140625
-0.502740703125,-0.04379900146484375,1.093136474609375
-0.59440619140625,0.02531647216796875,1.01989802734375
-0.25838044921875,0.05423713134765625,0.84294607421875
-0.26032560546875,0.07261890625,0.7812586572265625
-0.27977716796875,-0.0016434643554687498,0.721537373046875
-0.23017568359375,-0.030073942871093752,0.76233462890625
-0.39575710937499997,0.146146005859375,0.9301932177734376
-0.626258125,0.110852998046875,0.9709904736328125
-0.6267444140625,0.023845930175781252,0.9009469921875
-0.590272734375,0.0358553564453125,0.867031201171875
-0.54772244140625,0.10374537841796876,0.7045794775390625
-0.31697828125,0.0897752294921875,0.5546618505859375
-0.300444453125,-0.02958376220703125,0.5826792431640625
-0.27418484375,-0.11095375244140625,0.564246748046875
-0.4127772265625,-0.0719843896484375,0.6455954931640625
-0.2873146484375,-0.0415931884765625,0.6957318798828125
-0.32159802734375,0.00963069091796875,0.9090572900390625
-0.47818310546875,-0.0175743359375,1.11820466796875
-0.5858961328125,-0.013652890625,1.16539185546875
-0.6267444140625,0.09247122314453125,1.0732293798828125
-0.728378828125,0.024581201171875,0.9341254833984375
-0.47623794921875,-0.0097314453125,0.7571735302734375
-0.28853037109375,0.1035002880859375,0.7121982421874999
-0.3359435546875,0.1079119140625,0.677299384765625
-0.203186640625,0.0069346972656249995,0.656654990234375
-0.20586123046875,0.106931552734375,0.9088115234375
-0.34639876953125,0.174576484375,1.215036708984375
-0.6782910546875,-0.09183670654296874,1.39739552734375
-0.57300947265625,0.0211499365234375,1.58024587890625
-0.52827087890625,0.06355056396484375,1.31875021484375
-0.4458448828125,-0.01438816162109375,1.1017383056640626
-0.30117388671875,-0.01953505859375,0.9950756005859375
-0.52924345703125,-0.069533486328125,0.8422087744140625
-0.49593265625,-0.07222947998046875,0.7178508740234375
-0.42323244140625,-0.12026718505859375,0.7323511035156249
-0.263486484375,-0.03546593017578125,0.6910623144531249
-0.29485212890625,0.09492212646484376,0.8441749072265625
-0.44025255859375,0.06649164794921875,0.8795652978515625
-0.4088869140625,-0.04428918212890625,0.8712092333984375
-0.46699845703125,0.09051050048828126,1.0516019189453125
-0.3408064453125,0.12163697265625,1.080356611328125
-0.50055240234375,0.2348687060546875,1.22240970703125
-0.61969322265625,0.01208159423828125,1.1931634814453125
-0.656408046875,-0.2288422021484375,1.05332228515625
-0.446331171875,-0.28153662353515624,0.731368037109375
-0.10908970703125,-0.0366913818359375,0.5944760400390625
-0.11103486328125,-0.0210056005859375,0.5232037255859375
-0.20464550781250002,0.1221271533203125,0.6750874853515625
-0.3694975,0.17506666503906249,0.8697346337890625
-0.6063202734375,0.09884357177734375,0.8987350927734374
-0.6257718359375,0.2142811181640625,1.1685868212890624
-0.6335524609375,0.0711483642578125,0.87047193359375
-0.62017951171875,0.09982393310546875,0.8023945849609375
-0.55647564453125,0.0946770361328125,0.71514744140625
-0.30846822265625,0.0936966748046875,0.5748147119140625
-0.156502890625,-0.01487834228515625,0.7026133447265624
-0.12610982421875,0.08242251953125,0.98942296875
-0.41423609375,0.195164072265625,1.401819326171875
-0.79524357421875,0.0103659619140625,1.5770509130859376
-0.7103861328125,-0.08497417724609375,1.441633515625
-0.5635268359375,0.07825598388671876,1.105916337890625
-0.5392123828125,0.0035034326171875,0.712689775390625
-0.37898013671874997,0.012816865234374999,0.554416083984375
-0.4341739453125,-0.00605509033203125,0.4892879345703125
-0.4147223828125,0.040266982421875,0.37598953125
-0.35563826171875,-0.0332601171875,0.40302385742187496
-0.29631099609375,-0.13007079833984375,0.3464975390625
-0.16695810546875,-0.14502130859375,0.3049629833984375
-0.14629082031250001,-0.1327667919921875,0.29734421875
-0.26227076171875,-0.06879821533203125,0.4369396484375
-0.35612455078125,0.030708459472656248,0.5546618505859375
-0.45873154296875,0.104970830078125,0.802148818359375
-0.64935685546875,0.13340130859375,1.127543798828125
-0.63963107421875,0.13511694091796875,1.2752495263671875
-0.30944080078125,0.03168882080078125,1.1651460888671874
-0.1453182421875,0.08119706787109375,1.1592476904296876
-0.17522501953125,0.14688127685546876,1.0226014599609374
-0.37144265625,0.1417343798828125,0.8102591162109375
-0.4545980859375,0.0338946337890625,0.7279273046875
-0.5178156640625,-0.013162709960937501,0.59717947265625
-0.33278267578125,0.10325519775390625,0.5104238623046875
-0.366579765625,0.093206494140625,0.4588128759765625
-0.50371328125,0.00865032958984375,0.3880320947265625
-0.48815203125,0.04443351806640625,0.5025593310546875
-0.55209904296875,0.04712951171875,0.6652568212890625
-0.6034025390625,0.06845237060546874,0.719571240234375
-0.61969322265625,0.13658748291015624,0.7989538525390625
-0.58516669921875,0.21011458251953125,0.885709462890625
-0.5586639453125,0.2534955712890625,0.9724650732421874
-0.43927998046875,0.2201632861328125,0.912252255859375
-0.37557611328125,-0.0055649096679687505,0.917167587890625
-0.50784673828125,0.02776737548828125,0.84491220703125
-0.49957982421875,-0.0082609033203125,0.7360376025390625
-0.43976626953125,-0.03350520751953125,0.7321053369140624
-0.49714837890625,-0.07173929931640625,0.7384952685546875
-0.4866931640625,0.00816014892578125,0.741198701171875
-0.5100350390625,-0.04330882080078125,0.67484171875
-0.432715078125,-0.060710234375,0.6200357666015625
-0.4108320703125,0.0294830078125,0.7262069384765625
-0.46116298828125,0.02335574951171875,0.7571735302734375
-0.4079143359375,0.07678544189453125,0.89013326171875
-0.45824525390625,0.03119864013671875,0.964354775390625
-0.36925435546875,-0.006790361328125,1.0196522607421874
-0.3291355078125,0.03144373046875,1.0781447119140626
-0.31673513671875,-0.06095532470703125,1.0678225146484375
-0.3680386328125,0.03217900146484375,1.076424345703125
-0.46019041015625,-0.1611972705078125,0.9881941357421875
-0.467727890625,-0.09330724853515625,0.9356000830078125
-0.392839375,0.020659755859375,0.8766160986328125
-0.30360533203125,0.0003172583007812497,0.9365831494140625
-0.2989855859375,-0.05115171142578125,1.0343982568359376
-0.28269490234375,-0.1116890234375,1.151137392578125
-0.42931105468749997,-0.195019736328125,1.0815854443359374
-0.32475890625,-0.155805283203125,0.938795048828125
-0.3203823046875,-0.1494329345703125,0.86850580078125
-0.29169125,-0.1249239013671875,0.901438525390625
-0.38919220703125,-0.06977857666015624,1.0597122167968749
-0.43782111328125,0.15178308349609376,0.9444476806640625
-0.31819400390625,0.06281529296875,0.850319072265625
-0.2192341796875,-0.07811164794921875,0.8520394384765625
-0.51319591796875,-0.081297822265625,0.862115869140625
-0.520247109375,-0.061690595703125004,0.7286646044921875
-0.39308251953125,-0.11879664306640625,0.6898334814453125
-0.25449013671875,-0.0053198193359375,0.8834975634765625
-0.45168035156249997,-0.0847290869140625,1.1218911669921874
-0.6530040234375,-0.128355166015625,1.1268064990234374
-0.43782111328125,-0.0710040283203125,0.9090572900390625
-0.35466568359375,0.09541230712890625,0.853268271484375
-0.27880458984375,0.10423555908203125,0.7153932080078125
-0.240144609375,0.0574233056640625,0.68958771484375
-0.24233291015625,0.0780108935546875,0.6922911474609375
-0.53605150390625,-0.022476142578125,0.6839350830078125
-0.5644994140625,0.0848734228515625,0.678282451171875
-0.52972974609375,0.0966377587890625,0.7473428662109375
-0.53799666015625,0.085363603515625,0.84884447265625
-0.49423064453125,-0.046249904785156254,0.9085657568359375
-0.54091439453125,-0.0960032421875,0.9926179345703126
-0.354908828125,-0.09526797119140624,1.01006736328125
-0.47040248046875,-0.123453359375,1.062661416015625
-0.39089421875,-0.02321141357421875,1.0452119873046875
-0.41812640624999997,0.06894255126953125,0.9311762841796875
-0.25546271484375,0.04198261474609375,0.7817501904296875
-0.18008791015625,-0.01634888427734375,0.6819689501953125
-0.3578265625,0.06404074462890624,0.68762158203125
-0.48499115234375,-0.09012107421875,0.58538267578125
-0.4147223828125,-0.226391298828125,0.7021218115234376
-0.292663828125,-0.12933552734375,1.0019570654296874
-0.5858961328125,-0.09134652587890625,1.3413607421875
-0.67561646484375,-0.1822750390625,1.333004677734375
-0.36196001953125,-0.2013920849609375,1.375276533203125
-0.2989855859375,-0.10016977783203125,1.241579501953125
-0.39989056640625,-0.02321141357421875,1.111323203125
-0.3505322265625,-0.220509130859375,1.0319405908203125
-0.3038484765625,-0.1004148681640625,0.98647376953125
-0.31770771484375,-0.12860025634765626,0.8952943603515625
-0.444386015625,-0.03914228515625,0.9095488232421876
-0.617504921875,-0.142080224609375,0.8200897802734375
-0.46942990234375,-0.08105273193359375,0.8254966455078125
-0.5956219140625,-0.05654369873046875,0.9407611816406249
-0.54188697265625,-0.06928839599609375,0.9115149560546875
-0.48450486328125,-0.057278969726562504,0.9842618701171875
-0.27613,-0.1337471533203125,1.0904330419921875
-0.446331171875,0.0059543359375,1.2280623388671874
-0.3865176171875,0.16795904541015624,1.3244028466796876
-0.46213556640625,0.08021670654296875,1.3484879736328126
-0.54383212890625,-0.01046671630859375,1.3224367138671875
-0.52511,-0.14869766357421876,1.1641630224609374
-0.35612455078125,-0.10801266845703125,0.9449392138671875
-0.21899103515625,-0.046004814453125,0.8210728466796875
-0.60899486328125,-0.0161037939453125,0.9097945898437501
-0.7429675,-0.09379742919921875,0.789368955078125
-0.72716310546875,-0.0435539111328125,0.6514938916015625
-0.4662690234375,0.0152677685546875,0.5571195166015624
-0.25108611328125,-0.02174087158203125,0.5128815283203125
-0.15042427734375,-0.0710040283203125,0.5104238623046875
-0.080641796875,-0.073454931640625,0.7783094580078125
-0.0918264453125,-0.1621776318359375,1.169815654296875
-0.6496,-0.20800952392578126,1.4689136083984375
-0.94404802734375,-0.13717841796875,1.62645
-0.6403605078125,-0.013407800292968751,1.260257763671875
-0.31697828125,0.118695888671875,0.8498275390625
-0.234309140625,0.04443351806640625,0.7498005322265625
-0.37995271484375,0.0456589697265625,0.8461410400390625
-0.56814658203125,-0.0023787353515625003,0.7871570556640625
-0.56668771484375,-0.01634888427734375,0.6495277587890624
-0.39405509765625,-0.19428446533203125,0.63060373046875
-0.2377131640625,-0.257762861328125,0.7109694091796875
-0.25692158203125,-0.2844777075195313,0.8026403515625
-0.42517759765625,-0.19403937500000001,0.8186151806640625
-0.34834392578125,-0.15310928955078124,0.8707177001953125
-0.343237890625,-0.049926259765625,1.12017080078125
-0.57106431640625,0.0142874072265625,1.465718642578125
-0.88861107421875,0.04296297607421875,1.4318028515625
-0.79378470703125,0.04786478271484375,1.080356611328125
-0.4283384765625,0.06649164794921875,0.8048522509765625
-0.32305689453124997,-0.1043363134765625,0.573094345703125
-0.21996361328125,-0.08399381591796876,0.3840998291015625
-0.1608794921875,-0.14477621826171874,0.3270819775390625
-0.11881548828124999,-0.1621776318359375,0.4288293505859375
-0.1774133203125,-0.30163403076171874,0.7741314257812499
-0.6393879296875,-0.196980458984375,0.9198710205078124
-0.69215029296875,-0.036201201171875,1.0629071826171874
-0.44997833984375,0.07482471923828125,1.2723003271484374
-0.58759814453125,-0.11879664306640625,1.252884765625
-0.36536404296875,0.0025230712890624996,1.096085673828125
-0.39454138671875,0.06845237060546874,1.042017021484375
-0.4045103125,-0.01438816162109375,0.83114927734375
-0.3189234375,0.01698340087890625,0.7458682666015625
-0.28707150390625,-0.10899302978515625,0.811979482421875
-0.3339983984375,-0.03889719482421875,0.97860923828125
-0.2960678515625,-0.07222947998046875,0.98057537109375
-0.3067662109375,-0.0719843896484375,1.1120605029296875
-0.70236236328125,-0.14526639892578125,1.0550426513671876
-0.55817765625,-0.03105430419921875,0.8800568310546875
-0.36730919921875,0.053992041015625,0.9011927587890625
-0.3524773828125,0.042227705078125,1.0771616455078126
-0.4779399609375,0.050070595703125,1.2017653125
-0.5586639453125,-0.12860025634765626,1.154086591796875
-0.46359443359375,-0.23202837646484376,0.9559987109375
-0.12610982421875,-0.06928839599609375,1.01006736328125
-0.19662173828125,0.0010525292968750002,1.17129025390625
-0.485234296875,-0.0366913818359375,1.1567900244140625
-0.64352138671875,-0.096983603515625,0.889641728515625
-0.46505330078125,-0.12663953369140624,0.7846993896484376
-0.2513292578125,0.07629526123046874,0.922574453125
-0.392839375,0.07139345458984375,0.9877026025390625
-0.39818855468750003,-0.0778665576171875,1.0869923095703125
-0.646682265625,-0.06659240234375,1.097068740234375
-0.65227458984375,-0.047965537109375,0.903404658203125
-0.48742259765625,-0.17761832275390624,0.8407341748046875
-0.1297569921875,-0.052867343750000004,0.88816712890625
-0.247925234375,0.04835496337890625,1.0039231982421875
-0.224583359375,-0.05752406005859375,0.963371708984375
-0.209022109375,-0.03522083984375,1.087729609375
-0.62455611328125,-0.02370159423828125,1.1562984912109375
-0.7395634765625,0.0270321044921875,0.9621428759765625
-0.34396732421875,-0.014633251953124999,0.8525309716796875
-0.28974609375,-0.00360418701171875,1.02972869140625
-0.40937320312500003,-0.15556019287109374,0.92945591796875
-0.4925286328125,-0.220509130859375,0.871455
-0.41593810546875,-0.23349891845703125,0.8215643798828125
-0.2454937890625,-0.110708662109375,1.0909245751953125
-0.4900971875,-0.0210056005859375,1.2521474658203124
-0.644737109375,-0.0504164404296875,1.1528577587890625
-0.39405509765625,0.0829127001953125,0.7908435546875
-0.2566784375,-0.09085634521484375,0.6283918310546874
-0.18884111328125,0.00963069091796875,0.6800028173828125
-0.38335673828125,0.057913486328125,0.809030283203125
-0.5810332421875,-0.20310771728515625,0.8205813134765625
-0.5683897265625,-0.18644157470703124,0.8102591162109375
-0.39794541015625,-0.01095689697265625,0.9815584374999999
-0.54918130859375,-0.10997339111328125,1.0668394482421875
-0.5314317578125,-0.1161006494140625,0.9749227392578125
-0.40913005859375,0.1000690234375,0.844420673828125
-0.2955815625,0.1392834765625,0.8392595751953125
-0.2878009375,-0.1474722119140625,0.9208540869140625
-0.46481015625,0.02360083984375,1.0196522607421874
-0.551369609375,-0.1729616064453125,0.7463597998046875
-0.2450075,-0.02223105224609375,0.84786140625
-0.46942990234375,-0.0935523388671875,0.8608870361328125
-0.4438997265625,-0.16536380615234375,0.658621123046875
-0.2299325390625,-0.24036144775390625,0.6991726123046875
-0.44900576171875,-0.09477779052734375,0.8984893261718749
-0.6223678125,-0.06879821533203125,1.067576748046875
-0.711845,0.0123266845703125,1.0909245751953125
-0.43782111328125,0.0927163134765625,1.02186416015625
-0.30166017578125,0.06551128662109375,0.8830060302734375
-0.24233291015625,0.12041152099609376,0.85474287109375
-0.16744439453124998,-0.02860340087890625,0.796250419921875
-0.4915560546875,-0.083258544921875,0.813945615234375
-0.6238266796875,-0.0082609033203125,0.8183694140625
-0.60559083984375,0.055952763671875,0.986965302734375
-0.52632572265625,0.00816014892578125,1.167849521484375
-0.4565432421875,0.0652661962890625,1.129509931640625
-0.2678630859375,0.05521749267578125,0.9778719384765625
-0.27588685546875,0.0162481298828125,1.0678225146484375
-0.50371328125,-0.0494360791015625,1.1941465478515625
-0.64157623046875,-0.24183198974609374,1.12017080078125
-0.4555706640625,-0.2528610546875,0.8785822314453124
-0.33764556640625,-0.200901904296875,0.618315400390625
-0.14604767578125,-0.157766005859375,0.49199136718750003
-0.1112780078125,-0.16683434814453124,0.4086764892578125
-0.21412814453125,-0.04772044677734375,0.47601653808593747
-0.41107521484375,7.216796875000007e-05,0.505754296875
-0.54577728515625,0.04100225341796875,0.7109694091796875
-0.61580291015625,0.11943115966796874,0.906845390625
-0.69312287109375,0.1706550390625,1.1840701171874999
-0.60510455078125,0.10717664306640624,1.2037314453125
-0.39697283203125,0.00865032958984375,1.1705529541015625
-0.35223423828125,0.01845394287109375,1.1204165673828126
-0.44049570312499997,0.10913736572265625,0.906845390625
-0.1754681640625,-0.055073156738281254,0.7891231884765625
-0.11492517578125,-0.0768861962890625,0.8989808593749999
-0.50954875,-0.04183827880859375,1.1646545556640624
-0.5975670703125,-0.00997653564453125,0.9088115234375
-0.40913005859375,0.0133070458984375,0.90389619140625
-0.4409819921875,0.06747200927734374,0.91176072265625
-0.5090624609375,0.05105095703125,0.76823302734375
-0.3281629296875,0.028502646484374998,0.8240220458984375
-0.185680234375,0.06257020263671875,1.008592763671875
-0.37922328125,-0.114630107421875,1.23420650390625
-0.63282302734375,-0.1415900439453125,1.4148449560546874
-0.5567187890625,0.01747358154296875,1.40919232421875
-0.64935685546875,-0.055808427734375,1.14966279296875
-0.3378887109375,0.09149086181640625,0.897506259765625
-0.20488865234375,-0.0464949951171875,0.6355190625
-0.13437673828125,-0.09404251953125001,0.4543890771484375
-0.20415921875,-0.07713128662109375,0.37107419921875
-0.41302037109375,-0.0347306591796875,0.3324888427734375
-0.46408072265625,-0.035711020507812496,0.458567109375
-0.397702265625,0.053992041015625,0.7134270751953125
-0.39891798828125,0.00816014892578125,1.11623853515625
-0.56766029296875,0.17237067138671874,1.493244501953125
