ax,ay,az
-0.07359060546875,-0.1043363134765625,0.9088115234375
-0.1205175,0.013552136230468751,1.0653648486328124
-0.1788721875,-0.028113220214843748,1.211104443359375
-0.31819400390625,0.04247279541015625,1.2069264111328124
-0.315033125,0.10423555908203125,1.0621698828125
-0.2450075,0.0505607763671875,0.9311762841796875
-0.1511537109375,0.12678386962890625,0.9606682763671874
-0.2435486328125,0.03953171142578125,0.9665666748046875
-0.2630001953125,0.1054610107421875,0.94715111328125
-0.23698373046875,-0.030319033203124998,0.872929599609375
-0.21607330078125,-0.05409279541015625,0.8741584326171875
-0.10422681640625,0.06158984130859375,0.8707177001953125
-0.13802390625,-0.0543378857421875,0.8274627783203125
-0.174981875,0.16624341308593749,0.8766160986328125
-0.0932853125,0.02752228515625,0.8171405810546875
-0.0704297265625,0.12384278564453124,0.8397511083984375
-0.21266927734375,0.17384121337890626,0.891116328125
-0.16890326171875,0.10619628173828125,0.9749227392578125
-0.15917748046875,0.16869431640625,1.16539185546875
-0.2775888671875,0.095167216796875,1.319241748046875
-0.374360390625,0.15325362548828125,1.24403716796875
-0.218747890625,0.0603643896484375,1.095594140625
-0.343237890625,0.0843832421875,1.037101689453125
-0.25643529296875,-0.06683749267578125,0.90389619140625
-0.01961251953125,-0.071494208984375,0.7080202099609375
-0.0016198242187499996,-0.0494360791015625,0.6583753564453125
-0.09985021484375001,-0.14918784423828124,0.601603271484375
-0.05559791015625,-0.1023755908203125,0.6455954931640625
-0.04878986328125,-0.112669384765625,0.75643623046875
-0.30652306640625,-0.0474753564453125,0.90193005859375
-0.35344996093750003,0.04394333740234375,0.9616513427734374
-0.271267109375,0.09737302978515625,0.9768888720703125
-0.36341888671875,0.0819323388671875,0.9154472216796875
-0.2989855859375,0.05374695068359375,0.747097099609375
-0.19856689453125,7.216796875000007e-05,0.65419732421875
-0.14264365234375,0.0878145068359375,0.7040879443359375
-0.24525064453125,0.13536203125,0.70335064453125
-0.21315556640625,0.04982550537109375,0.755944697265625
-0.228473671875,0.118695888671875,0.7952673535156249
-0.24476435546875,0.12874459228515625,0.7149016748046875
-0.1161408984375,0.1133039013671875,0.731368037109375
-0.3106565234375,0.09026541015625,0.8082929833984375
-0.2338228515625,0.11501953369140624,0.89013326171875
-0.34396732421875,0.09737302978515625,0.89603166015625
-0.339347578125,0.16060633544921876,0.8377849755859375
-0.3126016796875,0.1005592041015625,0.7746229589843749
-0.2620276171875,0.0731090869140625,0.7153932080078125
-0.20342978515625,0.06747200927734374,0.7316138037109375
-0.33424154296874997,0.03806116943359375,0.7355460693359375
-0.15382830078125,0.1172253466796875,0.7684787939453125
-0.096203046875,0.085363603515625,0.834590009765625
-0.18495080078125,0.08658905517578125,1.095102607421875
-0.20391607421875,0.018699033203125,1.2688595947265624
-0.32305689453124997,0.13021513427734374,1.2929447216796874
-0.46553958984375,-0.0151234326171875,1.0289913916015625
-0.34032015625,-0.08595453857421875,0.88423486328125
-0.2177753125,-0.05164189208984375,0.7542243310546874
-0.2416034765625,0.00570924560546875,0.7788009912109375
-0.382141015625,0.04394333740234375,0.75840236328125
-0.30117388671875,-0.01879978759765625,0.759876962890625
-0.29582470703125,0.1299700439453125,0.8830060302734375
-0.323786328125,-0.0009081933593750001,0.895540126953125
-0.20099833984375,0.17531175537109375,1.03759322265625
-0.18738224609375,0.15766525146484375,1.1174673681640626
-0.22920310546875,0.0093856005859375,1.1263149658203124
-0.20926525390625,0.2348687060546875,1.162934189453125
-0.30895451171875,-0.11634573974609375,1.0978060400390626
-0.3972159765625,0.08315779052734375,1.1010010058593749
-0.3242726171875,-0.04821062744140625,1.0031858984375
-0.30214646484375,-0.1386489599609375,0.922574453125
-0.21169669921875,-0.03497574951171875,0.944693447265625
-0.25157240234375,-0.03595611083984375,1.0486527197265625
-0.23163455078125,-0.04134809814453125,1.22240970703125
-0.327676640625,-0.03448556884765625,1.3160467822265625
-0.30360533203125,-0.03301502685546875,1.214053642578125
-0.294608984375,0.02433611083984375,1.047915419921875
-0.26956509765625,-0.07075893798828126,1.0157199951171876
-0.2912049609375,-0.1102184814453125,0.987948369140625
-0.1978374609375,-0.1268846240234375,0.912252255859375
-0.06775513671875,-0.08203309326171875,0.8957858935546875
-0.2027003515625,-0.05997496337890625,1.0437373876953124
-0.27272597656249997,0.0407571630859375,1.1408151953125
-0.17765646484375,0.02433611083984375,1.2487067333984374
-0.34591248046875,0.00399361328125,1.4472861474609375
-0.45046462890625,0.19736988525390625,1.53994015625
-0.32840607421875,0.1074217333984375,1.3371827099609375
-0.46845732421874997,-0.0592396923828125,1.1946380810546875
-0.28561263671875,-0.018554697265625,1.094119541015625
-0.2221519140625,-0.02909358154296875,0.948625712890625
-0.11200744140625,-0.08840544189453126,0.9402696484374999
-0.2668905078125,-0.08154291259765625,0.9913891015625
-0.14069849609375001,-0.04036773681640625,1.0388220556640624
-0.26713365234374997,0.008405239257812499,1.1346710302734375
-0.3694975,0.05080586669921875,1.18898544921875
-0.15358515625,0.062080021972656246,1.1980788134765625
-0.33715927734375,-0.0141430712890625,1.2550966650390625
-0.300444453125,0.0584036669921875,1.295648154296875
-0.3145468359375,-0.0464949951171875,1.120662333984375
-0.2921775390625,-0.0055649096679687505,1.1499085595703125
-0.24427806640625,0.0373258984375,1.1263149658203124
-0.30214646484375,-0.03129939453125,1.1096028369140625
-0.3203823046875,0.0133070458984375,1.1268064990234374
-0.15480087890625,-0.038161923828125,1.0661021484375
-0.27734572265625,-0.06830803466796875,1.0299744580078125
-0.28707150390625,-0.03252484619140625,1.0402966552734374
-0.2309051171875,-0.01561361328125,1.0417712548828124
-0.232363984375,-0.03914228515625,0.9877026025390625
-0.34202216796875,0.0250713818359375,1.047915419921875
-0.35369310546875,0.0231106591796875,1.1056705712890624
-0.44171142578125,0.03315936279296875,0.970253173828125
-0.39308251953125,-0.04379900146484375,0.8638362353515625
-0.2143712890625,-0.07615092529296875,0.8235305126953125
-0.32451576171875,-0.04723026611328125,0.888658662109375
-0.23795630859375,-0.00262382568359375,0.870963466796875
-0.1599069140625,0.04786478271484375,0.9596852099609375
-0.13778076171875,-0.05874951171875,1.0894499755859375
-0.34104958984375,0.09026541015625,1.1754682861328125
-0.23990146484375,-0.0097314453125,1.156052724609375
-0.15431458984375,-0.05801424072265625,1.1803836181640626
-0.3680386328125,-0.01585870361328125,1.07494974609375
-0.32208431640625,-0.02517213623046875,0.91077765625
-0.27588685546875,-0.0582593310546875,0.7493089990234375
-0.2445212109375,-0.011201987304687501,0.72891037109375
-0.21558701171875,0.0515411376953125,0.8368019091796874
-0.28804408203125,0.026296833496093748,0.9341254833984375
-0.27977716796875,0.022620478515625,0.985982236328125
-0.2464663671875,0.056933125,0.9709904736328125
-0.26810623046875,-0.0513968017578125,0.8930824609375
-0.19370400390625,-0.07075893798828126,0.9048792578125
-0.22093619140625,-0.01389798095703125,0.888658662109375
-0.30360533203125,-0.05556333740234375,0.8574463037109374
-0.251815546875,0.00521906494140625,0.861132802734375
-0.28391062499999997,-0.024436865234375,0.871946533203125
-0.21583015625000002,0.0123266845703125,0.915201455078125
-0.18057419921875,0.0012976196289062499,0.93928658203125
-0.335457265625,0.05962911865234375,1.083305810546875
-0.31965287109375,-0.02860340087890625,1.0747039794921875
-0.3344846875,0.02972809814453125,0.938795048828125
-0.237226875,-0.04134809814453125,0.866048134765625
-0.27515742187500003,-0.0327699365234375,0.9282270849609375
-0.19832375,-0.05164189208984375,1.05233921875
-0.31235853515625,-0.03742665283203125,1.0597122167968749
-0.2454937890625,-0.08963089355468751,0.989914501953125
-0.21655958984375,-0.042328459472656246,0.8643277685546875
-0.20537494140625,-0.042328459472656246,0.7989538525390625
-0.20975154296875,-0.04281864013671875,0.7827332568359375
-0.25254498046875,-0.0371815625,0.924049052734375
-0.330594375,-0.1445311279296875,0.851793671875
-0.310170234375,-0.07713128662109375,0.7778179248046875
-0.20586123046875,-0.020515419921875,0.744147900390625
-0.22361078125,-0.0406128271484375,0.7448852001953125
-0.0932853125,-0.0180645166015625,0.8117337158203125
-0.18859796875,0.11796061767578125,1.0860092431640624
-0.358799140625,0.04712951171875,1.2727918603515624
-0.3709563671875,0.06698182861328125,1.2177401416015625
-0.27540056640625,0.11158826904296874,1.041033955078125
-0.28634207031250003,0.11550971435546875,0.9070911572265625
-0.15966376953125,0.049090234375,1.0034316650390624
-0.28366748046875,0.05105095703125,1.0700344140625
-0.28318119140625,0.0701680029296875,1.07691587890625
-0.14604767578125,0.03806116943359375,1.0083469970703125
-0.26518849609375,0.00963069091796875,1.1115689697265625
-0.26129818359375,0.033404453125,1.2408422021484375
-0.40426716796875,0.0451687890625,1.178663251953125
-0.33083751953125,-0.01291761962890625,1.0270252587890625
-0.34032015625,0.05031568603515625,0.9429730810546875
-0.25157240234375,-0.07222947998046875,0.9233117529296875
-0.21072412109375,-0.04723026611328125,1.082322744140625
-0.22823052734375,-0.0249270458984375,1.130492998046875
-0.22288134765625,-0.02664267822265625,1.0516019189453125
-0.2542469921875,-0.08423890625,0.9174133544921875
-0.1793584765625,0.04247279541015625,0.938795048828125
-0.2338228515625,0.020659755859375,1.06315294921875
-0.30992708984375,-0.011201987304687501,1.3027753857421875
-0.38676076171875,-0.05164189208984375,1.17129025390625
-0.3592854296875,-0.03987755615234375,0.8908705615234375
-0.23066197265625,-0.12418863037109375,0.7124440087890624
-0.24719580078125,-0.1116890234375,0.742181767578125
-0.175954453125,0.010611052246093749,0.92159138671875
-0.31819400390625,0.018699033203125,1.0284998583984375
-0.3592854296875,-0.04968116943359375,0.9085657568359375
-0.27199654296875,-0.023456503906250002,0.789368955078125
-0.1900568359375,-0.0210056005859375,0.763809228515625
-0.15577345703125,0.0142874072265625,0.8294289111328125
-0.1530988671875,0.0858537841796875,1.0184234277343749
-0.31333111328125,0.10570610107421875,1.153103525390625
-0.25740787109375,0.1084020947265625,1.101984072265625
-0.22093619140625,0.03168882080078125,1.0398051220703124
-0.20148462890625,0.04933532470703125,1.1248403662109374
-0.1715778515625,-0.00581,1.20274837890625
-0.23844259765625,0.228496357421875,1.3138348828125
-0.46942990234375,0.1260485986328125,1.2472321337890624
-0.3573402734375,0.023845930175781252,1.1322133642578125
-0.2873146484375,-0.0043394580078125,1.1096028369140625
-0.2581373046875,-0.12271808837890624,1.0073639306640625
-0.18081734375,-0.0151234326171875,0.8510563720703125
-0.10957599609375,-0.08619962890625,0.822793212890625
-0.16185207031249998,-0.15261910888671876,0.9390408154296875
-0.24573693359375,-0.01928996826171875,1.178663251953125
-0.37022693359375003,-0.1219828173828125,1.2978600537109375
-0.33229638671875,-0.053847705078125,1.1408151953125
-0.36196001953125,7.216796875000007e-05,0.9262609521484375
-0.3767918359375,-0.04036773681640625,0.8033776513671875
-0.25983931640625,-0.14575657958984375,0.80165728515625
-0.28220861328125,0.02874773681640625,0.874895732421875
-0.18835482421875,-0.02517213623046875,0.8107506494140625
-0.172064140625,-0.01879978759765625,0.80755568359375
-0.22871681640625,-0.051886982421875,0.885709462890625
-0.2503566796875,-0.02149578125,0.88620099609375
-0.312115390625,-0.100905048828125,0.95108337890625
-0.35174794921875,0.014777587890624999,1.0191607275390624
-0.298499296875,-0.06193568603515625,0.930930517578125
-0.2843969140625,-0.037916833496093746,0.8048522509765625
-0.15723232421875,-0.0180645166015625,0.7323511035156249
-0.26859251953125,-0.0219859619140625,0.7404614013671875
-0.1861665234375,0.048109873046875,0.8304119775390625
-0.23917203125,0.0378160791015625,0.930930517578125
-0.26372962890625,0.0451687890625,0.9940925341796875
-0.222638203125,-0.057278969726562504,0.91176072265625
-0.17571130859375,0.1289896826171875,1.002694365234375
-0.3826273046875,0.05521749267578125,1.061678349609375
-0.1166271875,0.04786478271484375,1.120662333984375
-0.17376615234375,0.1485969091796875,1.2452660009765626
-0.4001337109375,-0.0053198193359375,1.29515662109375
-0.42080099609375,0.0348749951171875,1.202256845703125
-0.335457265625,0.02580665283203125,1.0329236572265625
-0.28658521484375,-0.067572763671875,0.7989538525390625
-0.1676875390625,-0.068553125,0.7318595703125
-0.18057419921875,-0.0028689160156250004,0.835573076171875
-0.329621796875,-0.11364974609375,0.962388642578125
-0.33083751953125,-0.02517213623046875,1.0307117578125
-0.26907880859375,-0.0018885546875000003,0.8943112939453125
-0.18543708984375,-0.052867343750000004,0.7581565966796875
-0.24427806640625,-0.03889719482421875,0.7620888623046875
-0.2450075,-0.02076051025390625,0.8549886376953125
-0.2056180859375,-0.09379742919921875,0.953541044921875
-0.38676076171875,0.01159141357421875,1.0987891064453126
-0.28391062499999997,0.00399361328125,1.0791277783203126
-0.3719289453125,-0.00581,1.027271025390625
-0.2007551953125,0.158890703125,1.0560257177734376
-0.2941226953125,0.0829127001953125,0.9965502001953125
-0.31965287109375,0.0878145068359375,1.1125520361328125
-0.25205869140625,0.087324326171875,1.1150097021484375
-0.25473328125,-0.04919098876953125,0.9365831494140625
-0.22628537109375,-0.0710040283203125,0.84687833984375
-0.21607330078125,-0.11536537841796875,0.86457353515625
-0.24427806640625,0.0012976196289062499,1.0117877294921875
-0.33472783203125,-0.00507472900390625,1.1474508935546874
-0.3553951171875,0.02090484619140625,1.185544716796875
-0.30919765625,0.12237224365234375,1.136391396484375
-0.39600025390625,0.1574201611328125,1.0157199951171876
-0.19321771484375,0.10374537841796876,0.9837703369140625
-0.25011353515625,0.1240878759765625,1.0727378466796875
-0.15334201171875,0.06306038330078124,1.16539185546875
-0.20926525390625,0.04394333740234375,1.1582646240234376
-0.1774133203125,-0.02468195556640625,1.0560257177734376
-0.24087404296875,0.01551285888671875,1.0009739990234374
-0.29387955078125,-0.10948321044921874,1.0643817822265624
-0.3544225390625,-0.03644629150390625,1.126560732421875
-0.25983931640625,0.0030132519531249997,1.2605035302734375
-0.24427806640625,-0.06389640869140625,1.2988431201171875
-0.3544225390625,0.0329142724609375,1.3234197802734375
-0.33667298828125003,-0.0016434643554687498,1.1661291552734374
-0.31235853515625,0.011346323242187501,0.9444476806640625
-0.17303671874999998,-0.06683749267578125,0.8264797119140626
-0.18640966796875,-0.092081796875,0.791335087890625
-0.2318776953125,0.02139502685546875,0.929947451171875
-0.19321771484375,0.04443351806640625,1.066593681640625
-0.2800203125,0.0731090869140625,1.1093570703125
-0.23406599609375,0.15668489013671874,1.1565442578125
-0.31333111328125,0.08021670654296875,1.254359365234375
-0.286828359375,-0.00703545166015625,1.2762325927734375
-0.29752671875000003,-0.03595611083984375,1.1302472314453125
-0.35320681640625,-0.01291761962890625,0.9324051171875
-0.37508982421875,-0.0494360791015625,0.806081083984375
-0.24670951171875,-0.11438501708984375,0.6903250146484375
-0.1034973828125,-0.11781628173828125,0.6406801611328125
-0.10179537109375,-0.1013952294921875,0.7856824560546875
-0.26154132812499997,-0.08154291259765625,1.0191607275390624
-0.30749564453125,-0.0386521044921875,1.235681103515625
-0.34591248046875,0.03659062744140625,1.269105361328125
-0.26324333984375,0.10202974609375,1.162934189453125
-0.21972046875,-0.03693647216796875,0.9498545458984375
-0.15091056640625,0.1235976953125,0.89996392578125
-0.20804953125,0.042227705078125,0.89799779296875
-0.2688356640625,0.08119706787109375,0.97369390625
-0.32548833984375003,0.0711483642578125,1.0761785791015626
-0.26907880859375,-0.05801424072265625,1.0520934521484375
-0.22920310546875,0.095167216796875,1.128526865234375
-0.46699845703125,0.096147578125,1.0663479150390625
-0.29290697265625,0.0946770361328125,1.007609697265625
-0.2425760546875,0.0936966748046875,0.8923451611328125
-0.1404553515625,-0.05360261474609375,0.9410069482421874
-0.22920310546875,-0.09869923583984375,0.9724650732421874
-0.34980279296875,-0.1572758251953125,0.9444476806640625
-0.27685943359375,-0.15310928955078124,0.741198701171875
-0.273212265625,-0.02027032958984375,0.6453497265625
-0.21996361328125,0.04786478271484375,0.6453497265625
-0.30141703125,0.0686974609375,0.7635634619140625
-0.2464663671875,0.16893940673828126,1.0152284619140626
-0.3495596484375,0.2436919580078125,1.072492080078125
-0.25157240234375,0.15325362548828125,1.1066536376953124
-0.3301080859375,0.12286242431640625,1.064627548828125
-0.3612305859375,0.080461796875,1.010558896484375
-0.294608984375,0.03266918212890625,0.8717007666015625
-0.24038775390625,-0.0161037939453125,0.7694618603515625
-0.21947732421875,-0.07468038330078125,0.678773984375
-0.16306779296875,-0.13252170166015625,0.7905977880859375
-0.22968939453125,-0.0018885546875000003,0.999745166015625
-0.29193439453125003,0.01208159423828125,1.1248403662109374
-0.33083751953125,0.01159141357421875,1.185544716796875
-0.38870591796875,0.00717978759765625,1.0943653076171875
-0.24962724609375,-0.0004180126953125,0.904387724609375
-0.21801845703125,0.0035034326171875,0.8567090039062499
-0.2800203125,0.00668960693359375,0.93338818359375
-0.214857578125,0.0456589697265625,1.009084296875
-0.16452666015625,0.0201695751953125,1.1022298388671874
-0.339347578125,0.07482471923828125,1.082322744140625
-0.2318776953125,0.05423713134765625,0.86064126953125
-0.0762651953125,-0.0935523388671875,0.8154202148437499
-0.11468203125,-0.004829638671875,0.977626171875
-0.3019033203125,0.026541923828125,1.0437373876953124
-0.2124261328125,-0.06144550537109375,1.064627548828125
-0.32548833984375003,0.136342392578125,1.0683140478515625
-0.185680234375,0.067717099609375,1.0806023779296874
-0.2099946875,0.0005623486328125002,1.2646815625
-0.35393625,0.03610044677734375,1.31186875
-0.35369310546875,0.02752228515625,1.0923991748046875
-0.3028758984375,0.036345537109375,0.871455
-0.21412814453125,-0.0180645166015625,0.746114033203125
-0.02107138671875,-0.0308092138671875,0.8250051123046875
-0.1783858984375,0.01796376220703125,1.03562708984375
-0.2357680078125,0.0927163134765625,1.1054248046875
-0.22871681640625,0.1074217333984375,1.0184234277343749
-0.2464663671875,0.02678701416015625,0.8891501953125
-0.255705859375,0.158890703125,0.8839890966796875
-0.294608984375,-0.014633251953124999,0.95796484375
-0.31041337890625,0.0037485229492187503,1.121645400390625
-0.3369161328125,-0.0055649096679687505,0.88816712890625
-0.20683380859375,-0.12958061767578125,0.73775796875
-0.170118984375,-0.179333955078125,0.759876962890625
-0.20148462890625,-0.14281549560546875,0.804114951171875
-0.30530734375,-0.06659240234375,0.928964384765625
-0.2800203125,-0.02517213623046875,0.9481341796875
-0.1560166015625,0.06600146728515625,0.890624794921875
-0.1647698046875,0.06404074462890624,0.812471015625
-0.13194529296875,0.1378129345703125,0.9464138134765625
-0.18835482421875,0.0966377587890625,1.1474508935546874
-0.252788125,0.10276501708984374,1.3160467822265625
-0.47040248046875,0.03462990478515625,1.2349438037109375
-0.34688505859375,0.01894412353515625,1.0739666796875
-0.3252451953125,-0.06144550537109375,0.875387265625
-0.3223274609375,-0.16070708984375,0.688113115234375
-0.25400384765625,-0.1249239013671875,0.6038151708984375
-0.18835482421875,-0.09918941650390625,0.6077474365234374
-0.158448046875,0.067717099609375,0.7758517919921875
-0.22677166015625,-0.0033590966796874996,0.9439561474609375
-0.21023783203125002,0.04100225341796875,1.0904330419921875
-0.21169669921875,0.11354899169921875,1.111814736328125
-0.2659179296875,0.079481435546875,1.0771616455078126
-0.37460353515625,-0.025662316894531252,1.0216183935546874
-0.3408064453125,0.0466393310546875,0.99040603515625
-0.33472783203125,-0.0847290869140625,0.8984893261718749
-0.30117388671875,-0.19526482666015624,0.77806369140625
-0.34785763671875003,-0.1778634130859375,0.6981895458984375
-0.30457791015625,-0.1768830517578125,0.6323240966796875
-0.23844259765625,-0.159726728515625,0.6121712353515625
-0.19419029296875,0.01110123291015625,0.655180390625
-0.1910294140625,0.03855135009765625,0.678282451171875
-0.11978806640625,-0.0415931884765625,0.7144101416015625
-0.16258150390625,0.03364954345703125,0.9009469921875
-0.17473873046875,-0.03056412353515625,1.0520934521484375
-0.15820490234375,-0.05164189208984375,1.2226554736328126
-0.34810078125,0.0133070458984375,1.3374284765625
-0.49617580078125,0.057913486328125,1.306461884765625
-0.51149390625,0.053992041015625,1.117713134765625
-0.42225986328125,0.05423713134765625,0.9537868115234375
-0.23747001953125,0.0451687890625,0.96877857421875
-0.26421591796875,0.0417375244140625,0.9188879541015624
-0.1141957421875,-0.04772044677734375,0.8879213623046875
-0.058272500000000005,0.06796218994140625,0.8761245654296875
-0.24184662109375,0.02874773681640625,0.889641728515625
-0.19905318359375002,-0.089140712890625,1.05528841796875
-0.27442798828125,-0.18815720703125,1.213562109375
-0.3291355078125,-0.0847290869140625,1.2585373974609375
-0.38627447265625,-0.1798241357421875,1.11427240234375
-0.36390517578125,-0.14085477294921875,1.02579642578125
-0.44122513671875,0.0035034326171875,0.9636174755859375
-0.40523974609375,0.10276501708984374,1.0073639306640625
-0.24768208984375,0.02237538818359375,0.9046334912109375
-0.1005796484375,-0.0562986083984375,0.828691611328125
-0.03711892578125,-0.11364974609375,0.9009469921875
-0.181789921875,-0.21144078857421875,0.9990078662109375
-0.2007551953125,-0.28888933349609375,1.0358728564453126
-0.181789921875,-0.2190385888671875,1.0968229736328126
-0.28585578125,-0.11732610107421874,1.197833046875
-0.45386865234375,0.00423870361328125,1.1813666845703126
-0.37411724609375,0.022620478515625,0.9783634716796875
-0.35563826171875,-0.10972830078125,0.762826162109375
-0.32840607421875,-0.1268846240234375,0.59521333984375
-0.12124693359375,-0.1043363134765625,0.4939575
-0.14896541015625,-0.134237333984375,0.4290751171875
-0.11735662109375,0.01404231689453125,0.4317785498046875
-0.0976619140625,-0.0866898095703125,0.476753837890625
-0.21996361328125,0.0003172583007812497,0.7527497314453125
-0.1696326953125,-0.01438816162109375,1.1164843017578125
-0.21972046875,0.06943273193359376,1.5175753955078126
-0.491069765625,0.101049384765625,1.743926435546875
-0.1667149609375,0.0030132519531249997,1.4413877490234375
-0.35758341796875,-0.02737794921875,1.050864619140625
-0.42201671875,-0.0121823486328125,0.8220559130859375
-0.366579765625,0.0299731884765625,0.7335799365234374
-0.12951384765625001,0.00717978759765625,0.727435771484375
-0.28634207031250003,0.04737460205078125,0.916184521484375
-0.25692158203125,-0.1170810107421875,0.9793465380859375
-0.15188314453125001,-0.12173772705078124,1.0275167919921875
-0.20975154296875,-0.18815720703125,1.1676037548828124
-0.228473671875,0.010611052246093749,1.2816394580078125
-0.34591248046875,0.019679394531249998,1.364462802734375
-0.35466568359375,0.09810830078125,1.3295639453125
-0.52583943359375,0.0642858349609375,1.154578125
-0.46262185546875,0.0780108935546875,0.9282270849609375
-0.26470220703125,-0.07173929931640625,0.7375122021484375
-0.11638404296875,0.03413972412109375,0.7942842871093749
-0.25059982421875,0.024581201171875,0.9213456201171875
-0.3330258203125,-0.12712971435546874,0.9631259423828125
-0.1482359765625,-0.149923115234375,1.204222978515625
-0.48888146484375,-0.0455146337890625,1.4160737890625
-0.452166640625,-0.08448399658203125,1.3568440380859375
-0.4156949609375,0.07874616455078125,1.152120458984375
-0.3855450390625,0.063795654296875,0.8230389794921875
-0.24330548828125,-0.00458454833984375,0.5885776416015625
-0.154557734375,-0.09428760986328125,0.545076953125
-0.2892598046875,-0.02762303955078125,0.682214716796875
-0.24184662109375,-0.02762303955078125,0.9356000830078125
-0.41642439453125,-0.0016434643554687498,1.1066536376953124
-0.3602580078125,-0.022476142578125,1.024321826171875
-0.28658521484375,0.0123266845703125,0.936828916015625
-0.257651015625,0.1280093212890625,0.8992266259765624
-0.1628246484375,0.1064413720703125,0.95304951171875
-0.15674603515625,-0.01732924560546875,1.1926719482421875
-0.25059982421875,-0.0592396923828125,1.31875021484375
-0.3252451953125,-0.118551552734375,1.323174013671875
-0.33570041015625,-0.21144078857421875,1.11623853515625
-0.31576255859375,-0.13742350830078126,0.871455
-0.230418828125,-0.0376717431640625,0.8466325732421875
-0.2416034765625,0.0191892138671875,1.0088385302734375
-0.36341888671875,0.055462583007812497,1.15556119140625
-0.2007551953125,0.0530116796875,1.2349438037109375
-0.16549923828125,-0.06879821533203125,1.33841154296875
-0.1744955859375,0.013552136230468751,1.2718087939453124
-0.247925234375,0.052031318359375,1.171781787109375
-0.2843969140625,-0.0327699365234375,1.1155012353515625
-0.392839375,0.09982393310546875,1.1607222900390626
-0.35855599609375,0.03462990478515625,1.144255927734375
-0.27588685546875,-0.12909043701171874,1.1604765234375
-0.16647181640625,0.0182088525390625,1.2285538720703124
-0.2610550390625,-0.1102184814453125,1.1368829296875
-0.27272597656249997,-0.154824921875,1.1388490625
-0.36439146484375,-0.1651187158203125,1.07101748046875
-0.25254498046875,-0.16070708984375,1.0122792626953125
-0.35758341796875,-0.128355166015625,0.9501003125
-0.34348103515625,-0.16781470947265625,0.8854636962890625
-0.0232596875,-0.15408965087890625,0.8672769677734375
-0.22750109375,-0.01879978759765625,1.0747039794921875
-0.222638203125,-0.04134809814453125,1.0953483740234375
-0.18689595703125,-0.12271808837890624,1.16932412109375
-0.42979734375,0.021885207519531248,1.10640787109375
-0.3048210546875,-0.03693647216796875,0.90193005859375
-0.22750109375,-0.1317864306640625,0.8230389794921875
-0.29971501953125,-0.00409436767578125,0.8874298291015625
-0.30895451171875,-0.02321141357421875,0.8407341748046875
-0.187625390625,-0.10972830078125,0.7869112890625
-0.18859796875,-0.2033528076171875,0.74267330078125
-0.3019033203125,-0.20506843994140625,0.7021218115234376
-0.20877896484375,-0.12909043701171874,0.5866115087890625
-0.1793584765625,-0.0915916162109375,0.63453599609375
-0.21364185546875,-0.0327699365234375,0.78789435546875
-0.22288134765625,0.0603643896484375,1.0314490576171875
-0.27248283203125,0.10962754638671875,1.1408151953125
-0.38724705078125,0.16158669677734375,1.1499085595703125
-0.335457265625,0.1378129345703125,0.96681244140625
-0.2192341796875,-0.00458454833984375,0.8065726171875
-0.216802734375,0.07457962890625,0.7375122021484375
-0.2007551953125,-0.134237333984375,0.7945300537109374
-0.2022140625,-0.12860025634765626,0.9896687353515625
-0.27102396484375,-0.03546593017578125,0.9881941357421875
-0.26640421875,-0.14085477294921875,0.912252255859375
-0.35101851562499997,-0.0337502978515625,0.82918314453125
-0.20537494140625,-0.130315888671875,0.703842177734375
-0.22336763671875,-0.09796396484375,0.678282451171875
-0.30700935546875,-0.046004814453125,0.6952403466796875
-0.20148462890625,-0.16340308349609375,0.6785282177734375
-0.20197091796875,-0.1161006494140625,0.7778179248046875
-0.33813185546875,-0.09575815185546875,0.813945615234375
-0.21558701171875,-0.08595453857421875,0.8078014501953125
-0.23917203125,0.1211467919921875,0.8992266259765624
-0.240144609375,0.16624341308593749,0.90193005859375
-0.25740787109375,-0.0543378857421875,0.8653108349609375
-0.21583015625000002,0.07923634521484375,0.901438525390625
-0.18859796875,-0.0092412646484375,0.8092760498046875
-0.15431458984375,-0.077376376953125,0.8117337158203125
-0.20294349609375,-0.06389640869140625,0.859166669921875
-0.3476144921875,-0.0259074072265625,0.9105318896484375
-0.30944080078125,-0.0366913818359375,0.924049052734375
-0.26032560546875,0.0054641552734375,0.93142205078125
-0.32159802734375,0.091245771484375,0.87440419921875
-0.15820490234375,-0.0719843896484375,0.775606025390625
-0.1813036328125,-0.07173929931640625,0.8161575146484374
-0.2221519140625,-0.03938737548828125,0.9370746826171875
-0.2736985546875,0.03266918212890625,1.0186691943359376
-0.19346085937500002,0.0005623486328125002,0.9547698779296875
-0.2182616015625,0.1191860693359375,1.0707717138671875
-0.36001486328125,0.13756784423828125,1.2015195458984376
-0.34542619140624997,-0.0582593310546875,1.172764853515625
-0.3694975,0.0451687890625,1.13000146484375
-0.40475345703125,0.06306038330078124,0.985490703125
-0.2878009375,-0.07566074462890625,0.725469638671875
-0.15771861328125,-0.12173772705078124,0.53229708984375
-0.11930177734375,-0.0337502978515625,0.4976439990234375
-0.07577890625,-0.065612041015625,0.5964421728515625
-0.17327986328125,-0.0004180126953125,0.8259881787109375
-0.408400625,0.10399046875,1.0707717138671875
-0.37922328125,-0.0018885546875000003,1.202256845703125
-0.428824765625,0.03561026611328125,1.3224367138671875
-0.4234755859375,0.15129290283203126,1.1997991796875
-0.30409162109375,-0.03448556884765625,1.0255506591796875
-0.2503566796875,0.06453092529296875,0.9196252539062499
-0.26956509765625,0.15913579345703124,0.814928681640625
-0.1297569921875,0.04394333740234375,0.76430076171875
-0.12659611328125,0.11354899169921875,0.833606943359375
-0.21121041015625,0.08070688720703124,1.009575830078125
-0.2736985546875,0.03217900146484375,1.2619781298828125
-0.32281375,0.032424091796875,1.3622509033203125
-0.34591248046875,0.067717099609375,1.3396403759765625
-0.42031470703125,-0.05556333740234375,1.2639442626953126
-0.3942982421875,-0.06585713134765625,1.0530765185546875
-0.2775888671875,0.05374695068359375,0.831640810546875
-0.23649744140625,-0.01928996826171875,0.831640810546875
-0.2513292578125,0.12923477294921876,0.916184521484375
-0.23066197265625,0.0672269189453125,0.96877857421875
-0.2941226953125,-0.1435507666015625,1.05528841796875
-0.2022140625,-0.18742193603515625,1.1710444873046875
-0.09498732421875,-0.2092349755859375,1.223884306640625
-0.02204396484375,-0.0371815625,1.43770125
-0.5343494921875,0.00668960693359375,1.4907868359375
-0.43441708984375,-0.0474753564453125,1.22240970703125
-0.3281629296875,0.030463369140625002,1.079865078125
-0.46116298828125,-0.07517056396484376,1.087238076171875
-0.34250845703125,-0.1210024560546875,0.97467697265625
-0.24136033203125,-0.044044091796875,0.8500733056640625
-0.361716875,-0.067572763671875,0.782487490234375
-0.18057419921875,-0.09869923583984375,0.8200897802734375
-0.09790505859375,-0.00605509033203125,1.004660498046875
-0.3476144921875,-0.16144236083984376,1.08674654296875
-0.040766093749999996,-0.0219859619140625,1.126560732421875
-0.23917203125,0.10080429443359375,1.208155244140625
-0.4156949609375,0.16158669677734375,1.3224367138671875
-0.2523018359375,0.0574233056640625,1.3295639453125
-0.34007701171875,0.1407540185546875,1.1096028369140625
-0.40523974609375,0.06600146728515625,0.9577190771484375
-0.25059982421875,0.02286556884765625,0.8984893261718749
-0.27151025390625,-0.0798272802734375,0.9783634716796875
-0.2523018359375,-0.08840544189453126,1.0368559228515626
-0.26859251953125,-0.10286577148437501,1.0201437939453124
-0.36341888671875,-0.14134495361328125,0.95501564453125
-0.15431458984375,-0.16830489013671876,0.8810398974609375
-0.17230728515625,-0.1808044970703125,0.934862783203125
-0.28391062499999997,-0.0827683642578125,0.9955671337890625
-0.36730919921875,-0.23545964111328124,0.9144641552734375
-0.267376796875,-0.20702916259765625,0.8537598046875
-0.32500205078125,0.0030132519531249997,0.8105048828125
-0.201241484375,0.05668803466796875,0.727435771484375
-0.22677166015625,0.019679394531249998,0.822793212890625
-0.187625390625,-0.014633251953124999,0.7802755908203125
-0.21266927734375,0.0897752294921875,1.048406953125
-0.3106565234375,0.2731027978515625,1.532075625
-0.37849384765625,0.05129604736328125,1.1548238916015625
-0.33424154296874997,-0.0425735498046875,0.8869382958984375
-0.2357680078125,0.08560869384765625,0.8397511083984375
-0.2523018359375,-0.052867343750000004,0.8058353173828126
-0.2659179296875,-0.06732767333984375,0.7473428662109375
-0.255705859375,-0.07051384765625,0.73677490234375
-0.11443888671875,-0.07811164794921875,0.8107506494140625
-0.2464663671875,-0.048455717773437504,0.8903790283203125
-0.2912049609375,-0.01879978759765625,0.8741584326171875
-0.18859796875,0.069677822265625,0.9906518017578125
-0.4263933203125,0.1446754638671875,1.1179589013671876
-0.510521328125,0.13560712158203125,1.0174403613281249
-0.16987583984375,-0.013652890625,0.93535431640625
-0.0986344921875,-0.022476142578125,0.9277355517578125
-0.133161015625,-0.14771730224609375,0.914709921875
-0.10665826171875001,-0.171491064453125,0.956490244140625
-0.35344996093750003,-0.00311400634765625,0.9815584374999999
-0.3189234375,-0.05017135009765625,0.8923451611328125
-0.185680234375,-0.01978014892578125,0.837539208984375
-0.1725504296875,-0.13007079833984375,0.8923451611328125
-0.22920310546875,-0.0788469189453125,0.9818042041015624
-0.40864376953125,-0.02615249755859375,0.8471241064453126
-0.21315556640625,0.0927163134765625,0.8004284521484375
-0.2955815625,0.10962754638671875,0.7689703271484375
-0.19662173828125,-0.0043394580078125,0.7586481298828125
-0.119544921875,0.02139502685546875,0.840488408203125
-0.13948277343749999,0.0025230712890624996,0.8898874951171875
-0.273212265625,0.0701680029296875,0.851302138671875
-0.1015522265625,0.08707923583984375,0.8063268505859374
-0.09109701171875,0.19393862060546874,1.0211268603515624
-0.21193984375,0.08953013916015624,1.2560797314453125
-0.27345541015625,0.1554594384765625,1.4718628076171876
-0.34348103515625,0.23143744140625,1.3052330517578126
-0.4302836328125,-0.02615249755859375,1.06806828125
-0.32281375,0.02923791748046875,0.87931953125
-0.308225078125,-0.03644629150390625,0.77019916015625
-0.22288134765625,-0.16781470947265625,0.767741494140625
-0.29387955078125,-0.0612004150390625,0.698926845703125
-0.156502890625,-0.09379742919921875,0.6750874853515625
-0.1530988671875,-0.0602200537109375,0.7869112890625
-0.3524773828125,0.00619942626953125,0.92159138671875
-0.22579908203125,0.0495804150390625,0.821810146484375
-0.0996070703125,0.07531489990234375,0.8694888671875
-0.38335673828125,0.0005623486328125002,1.0058893310546875
-0.2211793359375,-0.10507158447265624,1.0346440234375
-0.25740787109375,-0.00850599365234375,0.84097994140625
-0.28026345703125,-0.03546593017578125,0.6905707812499999
-0.23844259765625,-0.1739419677734375,0.62273919921875
-0.16549923828125,-0.08105273193359375,0.694011513671875
-0.1861665234375,0.06502110595703126,0.8171405810546875
-0.33424154296874997,0.06158984130859375,1.0063808642578125
-0.2921775390625,-0.01953505859375,1.0889584423828125
-0.2688356640625,0.052031318359375,1.0570087841796876
-0.2099946875,0.046149150390625,0.9867195361328125
-0.28998923828125,-0.02468195556640625,0.9599309765625
-0.22677166015625,0.13952856689453125,0.9798380712890625
-0.38700390625000003,0.13462676025390624,0.8928366943359375
-0.41302037109375,-0.048945898437499996,0.766758427734375
-0.221665625,-0.00581,0.7004014453125
-0.2454937890625,0.05227640869140625,0.7325968701171874
-0.26275705078125,-0.06144550537109375,0.7969877197265625
-0.228473671875,0.04737460205078125,1.0481611865234375
-0.29096181640625,0.1427147412109375,1.2560797314453125
-0.38627447265625,0.0966377587890625,1.2432998681640626
-0.22920310546875,-0.05360261474609375,1.21651130859375
-0.329621796875,-0.03546593017578125,1.1813666845703126
-0.3048210546875,-0.09796396484375,1.2044687451171874
-0.36244630859375,-0.10409122314453124,1.0688055810546875
-0.3709563671875,-0.06487677001953125,0.9994993994140625
-0.3291355078125,-0.14428603759765624,0.95698177734375
-0.2805066015625,-0.09918941650390625,0.9336339501953125
-0.23503857421875,0.0037485229492187503,1.076424345703125
-0.25303126953125,-0.06193568603515625,1.16932412109375
-0.40913005859375,-0.0097314453125,1.136391396484375
-0.2805066015625,0.01159141357421875,0.9714820068359376
-0.33983386718749997,-0.0268877685546875,0.7797840576171875
-0.1501811328125,-0.0886505322265625,0.6775451513671875
-0.1997826171875,-0.09330724853515625,0.6888504150390625
-0.19078626953125,0.00717978759765625,0.8653108349609375
-0.314060546875,7.216796875000007e-05,0.9857364697265625
-0.347128203125,0.021640117187500002,1.079373544921875
-0.31041337890625,0.07433453857421875,1.147205126953125
-0.370470078125,0.04320806640625,1.07298361328125
-0.11103486328125,0.17040994873046875,1.0184234277343749
-0.21412814453125,0.0103659619140625,1.1617053564453126
-0.30749564453125,0.0848734228515625,1.3126060498046874
-0.2649453515625,0.0427178857421875,1.3047415185546876
-0.32086859375,-0.0376717431640625,1.2211808740234376
-0.3388612890625,0.13168567626953126,1.19291771484375
-0.2746711328125,-0.06585713134765625,1.1415524951171876
-0.20780638671875,-0.00605509033203125,1.160968056640625
-0.32354318359375,-0.1273748046875,1.1405694287109376
-0.28123603515625,-0.146001669921875,0.9813126708984374
-0.19905318359375002,-0.11438501708984375,0.881777197265625
-0.1939471484375,-0.10752248779296875,0.944693447265625
-0.25886673828125,-0.0366913818359375,1.0869923095703125
-0.279047734375,0.0093856005859375,1.1388490625
-0.24087404296875,-0.051886982421875,1.019406494140625
-0.1988100390625,-0.077376376953125,0.9198710205078124
-0.22482650390625,-0.1121792041015625,0.8613785693359375
-0.07310431640625001,-0.07222947998046875,0.9700074072265625
-0.2678630859375,0.01992448486328125,1.146222060546875
-0.234309140625,0.10619628173828125,1.317275615234375
-0.2717533984375,-0.047965537109375,1.32858087890625
-0.38043900390625,0.08511851318359374,1.1931634814453125
-0.31235853515625,-0.01634888427734375,0.9134810888671875
-0.29144810546875,-0.04281864013671875,0.827708544921875
-0.2571647265625,0.0069346972656249995,0.8908705615234375
-0.23941517578125,-0.1896277490234375,0.8382765087890625
-0.1443456640625,-0.0200252392578125,0.6962234130859375
-0.14750654296875,-0.04698517578125,0.67484171875
-0.15334201171875,-0.024436865234375,0.6682060205078125
-0.12902755859375,0.146146005859375,0.7684787939453125
-0.25692158203125,0.0005623486328125002,0.92748978515625
-0.28707150390625,-0.05556333740234375,1.1435186279296874
-0.32864921874999997,0.11599989501953126,1.296631220703125
-0.428824765625,-0.0567887890625,1.2157740087890625
-0.245980078125,0.05864875732421875,1.105916337890625
-0.36439146484375,0.019679394531249998,0.9331424169921875
-0.33035123046875,-0.0827683642578125,0.9002096923828125
-0.207076953125,-0.17369687744140624,0.71907970703125
-0.11541146484375,-0.15801109619140624,0.548517685546875
-0.12367837890625,-0.0945327001953125,0.519025693359375
-0.18203306640625,-0.16879507080078124,0.5128815283203125
-0.10714455078125,-0.12222790771484375,0.5384412548828125
-0.20026890625,-0.0082609033203125,0.7613515625
-0.34688505859375,-0.083258544921875,0.9105318896484375
-0.38287044921875,0.04835496337890625,1.0196522607421874
-0.43441708984375,0.1005592041015625,0.89996392578125
-0.39356880859375,0.050070595703125,0.73677490234375
-0.22628537109375,-0.04526954345703125,0.67779091796875
-0.33278267578125,-0.051886982421875,0.6075016699218749
-0.2834243359375,-0.03399538818359375,0.6092220361328125
-0.17960162109375,-0.00458454833984375,0.601603271484375
-0.07188859375000001,0.062080021972656246,0.7149016748046875
-0.23917203125,0.08021670654296875,0.8446664404296875
-0.21558701171875,-0.08105273193359375,0.99040603515625
-0.19175884765625,-0.0612004150390625,1.1484339599609374
-0.3709563671875,-0.01732924560546875,1.1907058154296875
-0.39454138671875,-0.025662316894531252,1.169815654296875
-0.43174250000000003,0.118695888671875,1.0171945947265626
-0.36390517578125,0.08560869384765625,0.792318154296875
-0.2970404296875,0.011346323242187501,0.8348357763671875
-0.37654869140625,-0.0229663232421875,0.88620099609375
-0.3592854296875,-0.02125069091796875,0.798216552734375
-0.0859909765625,0.1270289599609375,0.8245135791015625
-0.0801555078125,0.09247122314453125,0.9636174755859375
-0.19127255859375,-0.1161006494140625,1.1172216015625
-0.0363894921875,-0.1219828173828125,1.35119140625
-0.36974064453125,0.114774443359375,1.5858985107421875
-0.5596365234375,0.06453092529296875,1.4286078857421876
-0.54285955078125,0.05619785400390625,1.1405694287109376
-0.3427516015625,0.0495804150390625,0.84687833984375
-0.34445361328125,0.0035034326171875,0.6013575048828125
-0.13437673828125,-0.03840701416015625,0.5974252392578125
-0.218747890625,0.0044837939453125,0.9088115234375
-0.4254207421875,0.18315464599609374,1.197833046875
-0.37168580078125,0.19736988525390625,1.3298097119140624
-0.25497642578125,0.18658591064453126,1.3253859130859376
-0.230418828125,0.07531489990234375,1.21847744140625
-0.20537494140625,-0.0097314453125,1.1341794970703125
-0.199296328125,-0.1719812451171875,1.03661015625
-0.327676640625,-0.069533486328125,1.18308705078125
-0.325731484375,-0.09085634521484375,1.2084010107421874
-0.42590703125,-0.1602169091796875,1.052830751953125
-0.26372962890625,-0.0396324658203125,0.945676513671875
-0.3694975,-0.0082609033203125,0.99827056640625
-0.378250703125,-0.07370002197265625,1.2005364794921876
-0.3189234375,-0.0190448779296875,1.30498728515625
-0.39162365234375,-0.06291604736328126,1.1902142822265624
-0.1608794921875,-0.11585555908203125,1.072000546875
-0.1633109375,-0.12663953369140624,1.0280083251953125
-0.2698082421875,-0.1587463671875,0.9773804052734375
-0.1920019921875,0.0059543359375,1.11820466796875
-0.2834243359375,0.0765403515625,1.1798920849609376
-0.37217208984375,0.019434304199218752,1.042017021484375
-0.2114535546875,-0.050661530761718754,1.0299744580078125
-0.292663828125,-0.12811007568359375,1.0963314404296876
-0.23990146484375,0.10619628173828125,1.27942755859375
-0.3009307421875,-0.02125069091796875,1.3563525048828124
-0.28585578125,0.15227326416015624,1.4020650927734375
-0.45435494140625,0.1260485986328125,1.3283351123046876
-0.40426716796875,-0.13717841796875,1.1054248046875
-0.15236943359375,0.03168882080078125,1.1120605029296875
-0.28318119140625,0.024091020507812498,1.1150097021484375
-0.32354318359375,-0.11046357177734376,1.0122792626953125
-0.23795630859375,-0.015368522949218751,0.964354775390625
-0.22288134765625,-0.06659240234375,0.9754142724609375
-0.28391062499999997,-0.12320826904296875,0.7920723876953125
-0.2240970703125,-0.069533486328125,0.788385888671875
-0.17960162109375,-0.04379900146484375,0.8736668994140625
-0.23357970703125,-0.06340622802734375,0.948625712890625
-0.3359435546875,-0.0366913818359375,1.0506188525390625
-0.3437241796875,0.15815543212890626,1.1164843017578125
-0.36779548828124997,0.03021827880859375,0.9795923046875
-0.218747890625,0.03708080810546875,0.9513291455078126
-0.16452666015625,0.00276816162109375,1.064627548828125
-0.103983671875,-0.03203466552734375,1.2546051318359375
-0.337402421875,0.03413972412109375,1.3666747021484376
-0.4186126953125,-0.00311400634765625,1.1695698876953124
-0.45411179687500003,-0.0798272802734375,0.8658023681640625
-0.29242068359375,-0.18987283935546875,0.66009572265625
-0.14653396484375,-0.11732610107421874,0.46495704101562496
-0.070916015625,0.0069346972656249995,0.4647112744140625
-0.0743200390625,-0.09183670654296874,0.6414174609375
-0.2668905078125,0.024581201171875,0.8726838330078125
-0.30530734375,0.05325677001953125,1.100017939453125
-0.48766574218750003,0.04884514404296875,1.323665546875
-0.51854509765625,0.1701648583984375,1.305478818359375
-0.228473671875,0.0995788427734375,0.998762099609375
-0.24379177734375002,0.07580508056640625,0.9292101513671875
-0.27053767578125,-0.01193725830078125,0.929947451171875
-0.1399690625,-0.02909358154296875,0.926015185546875
-0.23990146484375,0.10570610107421875,0.8436833740234375
-0.13778076171875,0.00423870361328125,0.8065726171875
-0.2177753125,-0.0006631030273437505,0.8205813134765625
-0.316005703125,0.02139502685546875,0.874895732421875
-0.234309140625,0.1201664306640625,1.09657720703125
-0.450221484375,0.06600146728515625,1.154578125
-0.3466419140625,-0.0011532836914062497,1.154086591796875
-0.22750109375,0.022620478515625,0.8712092333984375
-0.2678630859375,-0.024436865234375,0.8053437841796875
-0.230418828125,0.06698182861328125,0.8397511083984375
-0.2659179296875,0.10962754638671875,0.83901380859375
-0.32500205078125,0.16305723876953124,0.9095488232421876
-0.2474389453125,0.143204921875,0.864082001953125
-0.1297569921875,0.104970830078125,0.80165728515625
-0.11784291015625001,0.14443037353515625,0.7512751318359375
0.004458789062499999,0.11501953369140624,0.9940925341796875
-0.14799283203125,0.1319307666015625,1.2784444921875
-0.52316484375,0.1471263671875,1.3607763037109375
-0.487179453125,0.0133070458984375,1.2324861376953125
-0.38238416015625,0.04198261474609375,0.953541044921875
-0.29096181640625,-0.03056412353515625,0.7144101416015625
-0.17230728515625,0.018699033203125,0.6362563623046875
-0.17084841796875,0.09810830078125,0.7325968701171874
-0.27151025390625,0.12335260498046875,0.89799779296875
-0.36755234375,0.18560554931640624,1.0840431103515624
-0.15334201171875,0.0574233056640625,1.18898544921875
-0.19905318359375002,0.0378160791015625,1.17915478515625
-0.1151683203125,0.0201695751953125,1.1368829296875
-0.11200744140625,0.04149243408203125,1.173747919921875
-0.35101851562499997,0.06673673828125,1.108865537109375
-0.3972159765625,0.13658748291015624,1.1336879638671875
-0.32305689453124997,0.08953013916015624,1.0909245751953125
-0.37265837890625,0.0466393310546875,0.9277355517578125
-0.201241484375,0.10668646240234375,0.8653108349609375
-0.21364185546875,0.02776737548828125,0.8812856640625
-0.25473328125,0.09982393310546875,1.0511103857421875
-0.257651015625,0.06796218994140625,1.1504000927734375
-0.23260712890625002,0.0843832421875,1.124594599609375
-0.35223423828125,0.0809519775390625,1.0422627880859374
-0.16136578125,0.10864718505859375,1.0240760595703124
-0.2878009375,-0.03350520751953125,0.9351085498046875
-0.1744955859375,0.00619942626953125,0.9552614111328125
-0.232363984375,0.019679394531249998,0.8778449316406249
-0.257651015625,-0.02272123291015625,0.845403740234375
-0.19078626953125,0.08805959716796875,0.863098935546875
-0.30506419921875,0.01747358154296875,0.8672769677734375
-0.3427516015625,0.08119706787109375,0.9363373828125
-0.22093619140625,0.06306038330078124,1.022355693359375
-0.31746457031249997,0.1280093212890625,1.128526865234375
-0.27248283203125,0.01551285888671875,1.1046875048828124
-0.2707808203125,0.00963069091796875,0.9483799462890625
-0.22774423828125,0.04051207275390625,0.9051250244140625
-0.27102396484375,-0.0023787353515625003,0.899472392578125
-0.20877896484375,-0.0337502978515625,0.8898874951171875
-0.232363984375,-0.05213207275390625,0.9218371533203125
-0.2357680078125,0.0162481298828125,0.949608779296875
-0.22725794921875,-0.00360418701171875,0.9134810888671875
-0.2542469921875,0.0010525292968750002,0.8267254785156251
-0.32791978515625,0.061834931640625,0.797233486328125
-0.2999581640625,0.05668803466796875,0.8417172412109375
-0.2581373046875,0.0358553564453125,0.8613785693359375
-0.29728357421875,-0.0170841552734375,0.911269189453125
-0.3057936328125,0.010611052246093749,0.8812856640625
-0.2581373046875,-0.030073942871093752,0.812471015625
-0.22531279296875,0.0358553564453125,0.833606943359375
-0.18154677734375,-0.01879978759765625,0.87243806640625
-0.30311904296875003,0.0329142724609375,0.8977520263671875
-0.25862359375,-0.0661022216796875,0.9056165576171875
-0.23163455078125,0.03119864013671875,0.8485987060546875
-0.2133987109375,-0.00458454833984375,0.8825144970703125
-0.3194097265625,0.07923634521484375,0.9609140429687499
-0.27783201171875,0.0740894482421875,1.0004824658203124
-0.2970404296875,0.04124734375,0.94518498046875
-0.302389609375,-0.0200252392578125,0.894557060546875
-0.2644590625,-0.01144707763671875,0.8643277685546875
-0.26810623046875,0.01012087158203125,0.8289373779296875
-0.24330548828125,0.0505607763671875,0.801165751953125
-0.21169669921875,-0.036201201171875,0.8510563720703125
-0.20148462890625,-0.0254172265625,0.9739396728515625
-0.27540056640625,0.017718671875,1.0461950537109375
-0.2688356640625,0.04835496337890625,0.9847534033203125
-0.22774423828125,0.08413815185546875,0.903404658203125
-0.337402421875,-0.03105430419921875,0.8458952734375
-0.2639727734375,0.0809519775390625,0.94715111328125
-0.34542619140624997,-0.055808427734375,0.9940925341796875
-0.18640966796875,0.08462833251953125,0.984016103515625
-0.3466419140625,-0.053847705078125,0.9159387548828125
-0.308225078125,0.080461796875,0.9670582080078125
-0.230418828125,-0.02762303955078125,0.914218388671875
-0.36487775390625,-0.01781942626953125,0.987948369140625
-0.335457265625,0.04149243408203125,1.064136015625
-0.27783201171875,0.059874208984374996,1.0383305224609374
-0.31989601562500003,0.0765403515625,1.0149826953125
-0.35709712890625,0.0152677685546875,0.99237216796875
-0.18543708984375,0.05227640869140625,1.0068723974609375
-0.3408064453125,-0.00507472900390625,0.9975332666015625
-0.337402421875,-0.0190448779296875,1.1130435693359375
-0.25205869140625,0.042227705078125,1.0776531787109376
-0.35855599609375,-0.09526797119140624,1.0019570654296874
-0.3320532421875,0.06011929931640625,1.0137538623046876
-0.23357970703125,-0.015368522949218751,1.06118681640625
-0.43149935546875,-0.0043394580078125,1.093136474609375
-0.22579908203125,0.0338946337890625,1.1258234326171874
-0.34226531250000003,-0.0259074072265625,0.9547698779296875
-0.2620276171875,0.0010525292968750002,0.9547698779296875
-0.20148462890625,0.02923791748046875,0.994829833984375
-0.3242726171875,-0.059484782714843754,1.0810939111328124
-0.22361078125,-0.07271966064453125,1.0661021484375
-0.2649453515625,-0.012672529296875,0.95501564453125
-0.14167107421875,0.03904153076171875,0.9481341796875
-0.29047552734375,-0.083258544921875,0.985490703125
-0.20732009765625,0.11011772705078125,1.2049602783203124
-0.37654869140625,0.19148771728515626,1.2784444921875
-0.32864921874999997,0.1044806494140625,1.3460303076171876
-0.3573402734375,0.15276344482421875,1.27942755859375
-0.30530734375,0.13413657958984376,1.2590289306640625
-0.2843969140625,0.11894097900390625,1.1754682861328125
-0.25643529296875,-0.023456503906250002,1.0543053515625
-0.1949197265625,0.01404231689453125,0.9881941357421875
-0.18859796875,0.008895419921875,0.9532952783203125
-0.222638203125,-0.09845414550781251,1.029237158203125
-0.331566953125,0.07335417724609375,1.152120458984375
-0.22944625,-0.0602200537109375,1.1526119921875
-0.32159802734375,-0.10580685546875,1.0909245751953125
-0.30992708984375,0.06698182861328125,1.008592763671875
-0.24233291015625,-0.08227818359375,0.8262339453125
-0.273212265625,0.04835496337890625,0.9523122119140625
-0.2523018359375,0.11060790771484375,1.0661021484375
-0.29485212890625,-0.036201201171875,1.0982975732421876
-0.26154132812499997,-0.0474753564453125,1.070525947265625
-0.27418484375,-0.01978014892578125,1.0112961962890625
-0.25011353515625,0.008895419921875,1.0142453955078126
-0.21753216796875,0.02531647216796875,1.051847685546875
-0.2357680078125,-0.02321141357421875,1.019406494140625
-0.26421591796875,0.00178780029296875,0.8987350927734374
-0.2211793359375,-0.0043394580078125,0.913235322265625
-0.263486484375,-0.0308092138671875,0.897506259765625
-0.23819945312500002,0.05227640869140625,0.859166669921875
-0.34396732421875,0.0789912548828125,0.7262069384765625
-0.29485212890625,0.03561026611328125,0.71514744140625
-0.1628246484375,0.0299731884765625,0.775606025390625
-0.2980130078125,0.05864875732421875,0.872929599609375
-0.30846822265625,0.1005592041015625,0.994829833984375
-0.2386857421875,0.1378129345703125,1.056763017578125
-0.22385392578125,-0.02076051025390625,0.8938197607421875
-0.17571130859375,0.0995788427734375,0.8839890966796875
-0.21315556640625,-0.132276611328125,0.8761245654296875
-0.23795630859375,0.0133070458984375,0.89209939453125
-0.21947732421875,-0.07443529296875,0.8628531689453125
-0.3009307421875,-0.081297822265625,0.807064150390625
-0.22288134765625,-0.042083369140625,0.7635634619140625
-0.16015005859375,-0.1033559521484375,0.718096640625
-0.20804953125,-0.0053198193359375,0.7515208984375
-0.25205869140625,0.10962754638671875,0.7832247900390625
-0.28998923828125,0.01747358154296875,0.8923451611328125
-0.2800203125,0.0633054736328125,0.93928658203125
-0.20415921875,0.130460224609375,1.0230929931640624
-0.35272052734375,0.055952763671875,1.1066536376953124
-0.26616107421875,0.13315621826171875,1.0402966552734374
-0.16744439453124998,0.171635400390625,0.93338818359375
-0.30555048828125,0.112813720703125,0.9292101513671875
-0.16452666015625,0.11305881103515625,0.9166760546875
-0.17522501953125,0.120656611328125,1.1046875048828124
-0.3826273046875,0.021640117187500002,1.1744852197265625
-0.28172232421875,0.009140510253906251,1.157035791015625
-0.3456693359375,-0.028113220214843748,0.8780906982421874
-0.2668905078125,-0.09771887451171875,0.6981895458984375
-0.222638203125,-0.09134652587890625,0.6814774169921874
-0.2153438671875,-0.0808076416015625,0.7252238720703125
-0.1871391015625,-0.06585713134765625,0.846386806640625
-0.19248828125,-0.03987755615234375,0.8574463037109374
-0.2659179296875,-0.0141430712890625,0.818860947265625
-0.25303126953125,-0.03448556884765625,0.828200078125
-0.31770771484375,0.0544822216796875,0.88423486328125
-0.18470765625,-0.0175743359375,0.780521357421875
-0.168173828125,-0.01046671630859375,0.811979482421875
-0.25254498046875,-0.055808427734375,0.843437607421875
-0.3242726171875,0.05105095703125,0.8952943603515625
-0.299471875,0.03119864013671875,0.7891231884765625
-0.19248828125,-0.04698517578125,0.7512751318359375
-0.34007701171875,0.01159141357421875,0.754961630859375
-0.1667149609375,-0.02713285888671875,0.7286646044921875
-0.2143712890625,0.01747358154296875,0.807064150390625
-0.25449013671875,-0.02860340087890625,0.9542783447265625
-0.24622322265625,0.1397736572265625,1.0702801806640625
-0.30360533203125,0.12286242431640625,1.1671122216796874
-0.361716875,0.0936966748046875,1.2241300732421876
-0.33667298828125003,0.16746886474609374,1.1346710302734375
-0.2999581640625,-0.023456503906250002,0.9434646142578125
-0.23917203125,-0.0857094482421875,0.8677685009765626
-0.187625390625,-0.03914228515625,0.83213234375
-0.2941226953125,-0.02321141357421875,0.8387680419921875
-0.24768208984375,-0.07222947998046875,0.824759345703125
-0.28512634765625,0.05080586669921875,0.9247863525390625
-0.30068759765624997,-0.0651218603515625,0.922082919921875
-0.335457265625,-0.08056255126953125,0.8264797119140626
-0.28901666015625,0.00521906494140625,0.7483259326171875
-0.26907880859375,-0.10752248779296875,0.6711552197265624
-0.267376796875,-0.08056255126953125,0.679265517578125
-0.3106565234375,0.026541923828125,0.7016302783203126
-0.32402947265625,-0.10262068115234375,0.643875126953125
-0.2644590625,0.00717978759765625,0.5868572753906249
-0.22336763671875,-0.02125069091796875,0.6028321044921875
-0.15820490234375,-0.00360418701171875,0.781504423828125
-0.35320681640625,0.03266918212890625,1.0560257177734376
-0.25449013671875,0.08242251953125,1.154086591796875
-0.29436583984375,0.00987578125,1.1366371630859375
-0.23892888671875,0.01796376220703125,1.11427240234375
-0.2698082421875,0.099088662109375,1.11525546875
-0.39016478515624997,0.009140510253906251,1.0692971142578125
-0.33083751953125,0.06502110595703126,1.0543053515625
-0.2814791796875,-0.010221625976562499,0.9228202197265625
-0.2902323828125,-0.01169216796875,1.0250591259765625
-0.23455228515625,0.1240878759765625,1.1223827001953124
-0.3019033203125,0.00963069091796875,1.076424345703125
-0.25497642578125,0.09639266845703125,1.1277895654296874
-0.28391062499999997,0.05105095703125,1.05528841796875
-0.237226875,0.0907555908203125,1.0294829248046875
-0.2756437109375,0.069677822265625,1.0157199951171876
-0.2649453515625,0.06257020263671875,1.1258234326171874
-0.35369310546875,0.0505607763671875,1.1966042138671875
-0.36633662109375,0.05668803466796875,1.174730986328125
-0.30895451171875,0.03119864013671875,1.0228472265625
-0.35199109375,0.00963069091796875,0.9341254833984375
-0.21169669921875,0.03659062744140625,0.93338818359375
-0.3184371484375,0.01649322021484375,1.02579642578125
-0.26810623046875,-0.053847705078125,1.092153408203125
-0.32694720703125,0.0731090869140625,1.1356540966796875
-0.29752671875000003,0.09982393310546875,1.0879753759765625
-0.286828359375,-0.0016434643554687498,1.007609697265625
-0.265431640625,0.12678386962890625,1.161951123046875
-0.28585578125,0.02139502685546875,1.1209081005859376
-0.257651015625,0.02580665283203125,1.066593681640625
-0.35952857421875,0.05570767333984375,0.9768888720703125
-0.24670951171875,0.013552136230468751,0.9400238818359374
-0.2620276171875,0.09541230712890625,0.894557060546875
-0.27442798828125,0.03708080810546875,0.9749227392578125
-0.3009307421875,0.03217900146484375,1.0226014599609374
-0.26640421875,-0.00605509033203125,1.0329236572265625
-0.201241484375,0.0294830078125,1.0648733154296874
-0.2484115234375,0.018699033203125,1.069542880859375
-0.27734572265625,0.0682072802734375,1.0329236572265625
-0.244034921875,0.04884514404296875,0.9547698779296875
-0.2085358203125,0.0436982470703125,1.0088385302734375
-0.31381740234375,0.03144373046875,1.044966220703125
-0.3057936328125,0.1000690234375,1.0250591259765625
-0.23260712890625002,0.02874773681640625,0.96288017578125
-0.3262177734375,0.13511694091796875,0.9793465380859375
-0.27807515625,0.03144373046875,0.985982236328125
-0.228473671875,0.02776737548828125,1.0466865869140625
-0.37265837890625,0.08242251953125,1.11525546875
-0.2396583203125,-0.0121823486328125,1.111323203125
-0.27807515625,0.0397768017578125,1.0700344140625
-0.27613,-0.0072805419921875,1.0181776611328126
-0.2153438671875,0.02335574951171875,0.98647376953125
-0.29387955078125,0.00276816162109375,0.9822957373046874
-0.263486484375,-0.023456503906250002,0.983033037109375
-0.330594375,-0.0317895751953125,0.95108337890625
-0.331566953125,-0.01953505859375,1.0299744580078125
-0.19419029296875,0.0008074389648437498,1.075441279296875
-0.3602580078125,0.032424091796875,1.0722463134765625
-0.2600824609375,0.024581201171875,1.0923991748046875
-0.17327986328125,0.0137972265625,1.07494974609375
-0.4030514453125,-0.00213364501953125,1.039067822265625
-0.24379177734375002,-0.024436865234375,0.9346170166015625
-0.25862359375,-0.01978014892578125,0.876861865234375
-0.26056875,0.023845930175781252,0.950591845703125
-0.245980078125,-0.0097314453125,0.9520664453125
-0.26324333984375,-0.036201201171875,0.8933282275390625
-0.335457265625,0.05619785400390625,0.9614055761718749
-0.25886673828125,0.09541230712890625,0.9464138134765625
-0.3408064453125,0.0927163134765625,0.9070911572265625
-0.2805066015625,0.03168882080078125,0.8682600341796876
-0.27637314453125,0.10227483642578125,0.89799779296875
-0.31041337890625,0.1133039013671875,0.9591936767578125
-0.34591248046875,0.16109651611328124,0.9508376123046876
-0.25351755859375,0.07923634521484375,1.0063808642578125
-0.4108320703125,0.1044806494140625,1.0112961962890625
-0.24330548828125,0.069677822265625,0.9193794873046874
-0.2454937890625,0.055952763671875,0.8603955029296875
-0.27588685546875,0.104970830078125,0.950591845703125
-0.284883203125,0.04320806640625,0.9267524853515625
-0.32986494140625,0.05129604736328125,0.9985163330078125
-0.25449013671875,0.08217742919921875,0.969761640625
-0.29242068359375,0.0505607763671875,0.971236240234375
-0.29047552734375,0.048109873046875,1.019406494140625
-0.2552195703125,0.06502110595703126,0.9965502001953125
-0.21412814453125,0.0152677685546875,0.9596852099609375
-0.26129818359375,0.02678701416015625,0.9815584374999999
-0.20804953125,-0.04183827880859375,1.0329236572265625
-0.24719580078125,0.02752228515625,1.0319405908203125
-0.16452666015625,-0.0190448779296875,1.0425085546875
-0.25692158203125,0.06060947998046875,1.0899415087890625
-0.15236943359375,0.021640117187500002,1.11623853515625
-0.33472783203125,0.048109873046875,1.08478041015625
-0.2036729296875,0.0417375244140625,1.137374462890625
-0.19832375,0.08707923583984375,1.14966279296875
-0.35661083984374997,0.0927163134765625,1.185544716796875
-0.25789416015625,0.07923634521484375,1.1445016943359374
-0.33253953125,0.04051207275390625,0.9955671337890625
-0.21461443359375,0.0103659619140625,1.0280083251953125
-0.1910294140625,0.03757098876953125,0.9808211376953125
-0.22336763671875,0.03021827880859375,0.9306847509765624
-0.23819945312500002,0.0025230712890624996,0.902913125
-0.251815546875,-0.0151234326171875,0.9405154150390624
-0.28220861328125,0.0338946337890625,0.9614055761718749
-0.244034921875,-0.0011532836914062497,0.9992536328125
-0.31673513671875,0.09296140380859375,0.979100771484375
-0.296554140625,0.067717099609375,0.8589209033203125
-0.26616107421875,0.024091020507812498,0.8520394384765625
-0.255705859375,0.1054610107421875,0.871455
-0.29436583984375,0.0319339111328125,0.86850580078125
-0.28318119140625,0.07041309326171875,0.9110234228515625
-0.27977716796875,0.0770305322265625,0.9675497412109375
-0.25205869140625,0.0123266845703125,0.9424815478515625
-0.2688356640625,-0.03914228515625,0.811979482421875
-0.25449013671875,0.00521906494140625,0.778555224609375
-0.21655958984375,-0.00777072265625,0.7512751318359375
-0.228473671875,0.02531647216796875,0.839505341796875
-0.27394169921875,0.0780108935546875,0.9528037451171875
-0.3252451953125,-0.00507472900390625,0.95796484375
-0.24136033203125,0.0780108935546875,0.969270107421875
-0.2488978125,0.0686974609375,0.9326508837890625
-0.2484115234375,-0.00311400634765625,0.8576920703124999
-0.21266927734375,0.0270321044921875,0.8387680419921875
-0.2561921484375,0.03928662109375,0.86064126953125
-0.257651015625,-0.03938737548828125,0.90389619140625
-0.2766162890625,0.05080586669921875,0.9488714794921875
-0.25084296875,0.00325834228515625,0.955507177734375
-0.2221519140625,0.06943273193359376,1.016948828125
-0.32062544921875,0.04443351806640625,0.9469053466796875
-0.18081734375,0.03536517578125,0.872929599609375
-0.24622322265625,0.0652661962890625,0.8569547705078124
-0.245980078125,0.02580665283203125,0.8756330322265625
-0.221665625,0.10864718505859375,0.9203625537109374
-0.21947732421875,0.05962911865234375,0.9218371533203125
-0.2532744140625,0.08854977783203125,1.032186357421875
-0.27929087890625,0.09492212646484376,1.083305810546875
-0.32305689453124997,0.02286556884765625,1.06708521484375
-0.2454937890625,0.1054610107421875,1.077407412109375
-0.28366748046875,0.06060947998046875,1.008592763671875
-0.26154132812499997,0.04737460205078125,1.0599579833984376
-0.2367405859375,0.08413815185546875,0.9827872705078124
-0.2474389453125,0.012816865234374999,0.9601767431640625
-0.26275705078125,0.05815857666015625,0.9100403564453124
-0.2668905078125,-0.01169216796875,0.8397511083984375
-0.2017277734375,0.00865032958984375,0.853268271484375
-0.280992890625,-0.016593974609375,0.8382765087890625
-0.2099946875,-0.044044091796875,0.828691611328125
-0.33253953125,0.02482629150390625,0.8616243359375
-0.27515742187500003,0.10129447509765625,0.923065986328125
-0.22968939453125,0.069677822265625,0.996795966796875
-0.27345541015625,0.04835496337890625,1.01203349609375
-0.2454937890625,0.04688442138671875,0.9719735400390626
-0.25935302734375,0.04247279541015625,0.986965302734375
-0.26372962890625,0.038306259765625,0.9513291455078126
-0.22336763671875,0.0593840283203125,0.9926179345703126
-0.33472783203125,0.040266982421875,0.984999169921875
-0.2746711328125,0.07727562255859374,1.068559814453125
-0.27637314453125,0.06502110595703126,1.0978060400390626
-0.36974064453125,0.05105095703125,1.0668394482421875
-0.2668905078125,-0.00654527099609375,0.9700074072265625
-0.28804408203125,0.05374695068359375,0.847369873046875
-0.2853694921875,0.0373258984375,0.7896147216796875
-0.34202216796875,0.036345537109375,0.9154472216796875
-0.2620276171875,0.0682072802734375,1.0570087841796876
-0.28391062499999997,0.0338946337890625,1.0130165625
-0.2639727734375,0.0466393310546875,1.010558896484375
-0.28464005859375,0.00619942626953125,1.0127707958984375
-0.31284482421875,0.0162481298828125,1.0343982568359376
-0.31308796875,0.012816865234374999,1.028254091796875
-0.30919765625,0.0025230712890624996,0.9523122119140625
-0.228473671875,-0.010221625976562499,0.8736668994140625
-0.28366748046875,0.07972652587890625,0.9407611816406249
-0.31430369140625003,0.011346323242187501,1.02972869140625
-0.27151025390625,0.06845237060546874,1.1329506640625
-0.30652306640625,0.03757098876953125,1.1356540966796875
-0.30944080078125,-0.0055649096679687505,1.0747039794921875
-0.268349375,0.0329142724609375,1.0304659912109375
-0.30749564453125,0.05325677001953125,0.9992536328125
-0.22701480468750002,0.11501953369140624,1.0599579833984376
-0.3631757421875,0.061834931640625,1.0643817822265624
-0.206104375,0.038306259765625,1.1268064990234374
-0.31235853515625,0.13021513427734374,1.1762055859375
-0.2630001953125,0.0309535498046875,1.1572815576171875
-0.31041337890625,0.057668395996093746,1.1651460888671874
-0.3189234375,0.00963069091796875,1.1715360205078125
-0.2416034765625,0.07384435791015626,1.1617053564453126
-0.34056330078125,-0.0055649096679687505,1.1017383056640626
-0.34250845703125,-0.05115171142578125,1.109848603515625
-0.25254498046875,-0.01095689697265625,1.0914161083984375
-0.30020130859375,-0.07419020263671874,1.01006736328125
-0.2688356640625,-0.09624833251953124,0.97467697265625
-0.2630001953125,-0.01561361328125,0.923065986328125
-0.26518849609375,-0.02737794921875,0.873912666015625
-0.21899103515625,-0.04821062744140625,0.8830060302734375
-0.29169125,0.06551128662109375,0.964354775390625
-0.21412814453125,0.06551128662109375,0.991880634765625
-0.201241484375,0.04737460205078125,1.0393135888671874
-0.26032560546875,0.06894255126953125,1.045949287109375
-0.268349375,0.15521434814453125,1.0621698828125
-0.29922873046875,0.03536517578125,0.9188879541015624
-0.214857578125,0.07580508056640625,0.8682600341796876
-0.16136578125,0.04590406005859375,0.924049052734375
-0.3057936328125,0.02286556884765625,1.1150097021484375
-0.29728357421875,0.09541230712890625,1.2683680615234374
-0.31673513671875,0.116735166015625,1.21061291015625
-0.28415376953125,0.07678544189453125,1.07298361328125
-0.2630001953125,0.0603643896484375,0.9282270849609375
-0.17911533203125,0.0201695751953125,0.9498545458984375
-0.22701480468750002,0.04002189208984375,0.9498545458984375
-0.26227076171875,0.0201695751953125,0.9945840673828125
-0.22579908203125,0.044188427734375,1.045949287109375
-0.21315556640625,-0.010221625976562499,1.040050888671875
-0.3656071875,-0.01928996826171875,1.094119541015625
-0.26664736328125,-0.01144707763671875,1.0869923095703125
-0.28950294921874997,-0.008751083984375,1.117713134765625
-0.25303126953125,0.00276816162109375,1.113780869140625
-0.304334765625,0.0182088525390625,1.028745625
-0.21072412109375,-0.0151234326171875,1.0031858984375
-0.339347578125,0.010611052246093749,0.9129895556640625
-0.23917203125,-0.0175743359375,0.908319990234375
-0.31235853515625,-0.07835673828125,0.7925639208984375
-0.25059982421875,-0.00311400634765625,0.7158847412109375
-0.221665625,-0.022476142578125,0.615857734375
-0.1968648828125,0.017718671875,0.647807392578125
-0.25692158203125,0.0613447509765625,0.6406801611328125
-0.31916658203125,0.1054610107421875,0.703842177734375
-0.3184371484375,0.07457962890625,0.719571240234375
-0.3126016796875,0.16550814208984374,0.765775361328125
-0.2843969140625,0.0417375244140625,0.6279002978515625
-0.15747546875,0.104970830078125,0.59717947265625
-0.09498732421875,0.0005623486328125002,0.7026133447265624
-0.33181009765625,0.0584036669921875,0.8869382958984375
-0.32864921874999997,0.11256863037109376,1.1086197705078125
-0.36439146484375,0.09026541015625,1.224867373046875
-0.35806970703125,0.03462990478515625,1.192426181640625
-0.23601115234375,0.10031411376953125,1.1508916259765625
-0.18227621093750002,0.13217585693359374,1.114763935546875
-0.28585578125,0.056933125,1.0727378466796875
-0.34007701171875,0.0819323388671875,1.0589749169921876
-0.27637314453125,0.126538779296875,1.042017021484375
-0.3028758984375,0.01698340087890625,0.9815584374999999
-0.29363640625,-0.01732924560546875,0.9985163330078125
-0.23357970703125,-0.00458454833984375,1.006626630859375
-0.25011353515625,0.05227640869140625,1.0053977978515625
-0.28950294921874997,-0.0592396923828125,0.9518206787109375
-0.31746457031249997,0.00963069091796875,1.0122792626953125
-0.35344996093750003,0.0819323388671875,1.052830751953125
-0.26056875,0.02776737548828125,1.03366095703125
-0.273212265625,0.0966377587890625,0.983033037109375
-0.2552195703125,-0.00777072265625,0.8982435595703124
-0.23503857421875,0.0020328906249999995,0.8844806298828125
-0.2182616015625,-0.00997653564453125,0.872929599609375
-0.232363984375,0.00570924560546875,0.8795652978515625
-0.28318119140625,0.05129604736328125,0.9520664453125
-0.29047552734375,0.05276658935546875,0.9488714794921875
-0.304334765625,0.03659062744140625,0.98843990234375
-0.3164919921875,0.0466393310546875,1.000728232421875
-0.29363640625,0.03413972412109375,0.8864467626953125
-0.22750109375,0.026541923828125,0.7842078564453125
-0.2104809765625,0.08805959716796875,0.8127167822265625
-0.1637972265625,0.04590406005859375,0.800182685546875
-0.27005138671875,0.10399046875,0.9134810888671875
-0.2450075,0.021885207519531248,1.0132623291015626
-0.30020130859375,-0.0249270458984375,1.125577666015625
-0.2688356640625,0.1270289599609375,1.2064348779296874
-0.37508982421875,0.023845930175781252,1.178663251953125
-0.3631757421875,-0.05017135009765625,1.0855177099609374
-0.1569891796875,0.021885207519531248,0.94223578125
-0.28391062499999997,0.1035002880859375,0.840488408203125
-0.1949197265625,-0.01978014892578125,0.8505648388671875
-0.195406015625,0.15276344482421875,1.1356540966796875
-0.2989855859375,0.030708459472656248,1.3502083398437499
-0.30992708984375,0.0358553564453125,1.3627424365234375
-0.3203823046875,0.15300853515625001,1.251410166015625
-0.316005703125,0.0064445166015625,1.140323662109375
-0.3320532421875,0.0191892138671875,1.1486797265625
-0.29752671875000003,-0.01046671630859375,1.00023669921875
-0.17522501953125,-0.028113220214843748,0.8815314306640625
-0.26154132812499997,-0.037916833496093746,0.7947758203124999
-0.17279357421875,-0.124433720703125,0.79575888671875
-0.24622322265625,-0.022476142578125,0.8033776513671875
-0.29485212890625,0.07237381591796875,0.8284458447265625
-0.212912421875,-0.01144707763671875,0.9252778857421875
-0.3485870703125,0.0780108935546875,1.1307387646484375
-0.35563826171875,0.064776015625,1.1327048974609375
-0.21072412109375,0.07286399658203124,1.0427543212890624
-0.32937865234375,0.1525183544921875,0.9665666748046875
-0.29874244140625,0.111833359375,0.87047193359375
-0.2532744140625,0.0319339111328125,0.8254966455078125
-0.294608984375,-0.01389798095703125,0.8707177001953125
-0.203186640625,0.0765403515625,0.8490902392578125
-0.18640966796875,0.0956573974609375,0.8264797119140626
-0.27102396484375,-0.0371815625,0.9695158740234375
-0.20342978515625,0.08168724853515624,1.1341794970703125
-0.29825615234375,0.06600146728515625,1.1730106201171875
-0.37800755859375,0.053992041015625,1.1329506640625
-0.26907880859375,0.08511851318359374,1.0034316650390624
-0.30117388671875,-0.008996174316406251,0.86457353515625
-0.286828359375,0.0378160791015625,0.83311541015625
-0.1754681640625,0.016738310546875,0.8476156396484374
-0.23212083984375,0.06796218994140625,0.95698177734375
-0.21193984375,0.03953171142578125,1.0240760595703124
-0.34250845703125,-0.013162709960937501,0.969270107421875
-0.2221519140625,-0.025662316894531252,0.930930517578125
-0.213885,-0.01683906494140625,0.777080625
-0.2902323828125,-0.06585713134765625,0.74660556640625
-0.197351171875,-0.13644314697265625,0.7153932080078125
-0.23260712890625002,0.01698340087890625,0.7529954980468749
-0.3816547265625,-0.03056412353515625,0.84097994140625
-0.21583015625000002,-0.01585870361328125,0.9616513427734374
-0.2853694921875,0.1280093212890625,0.974185439453125
-0.36585033203125,0.11943115966796874,0.994829833984375
-0.212912421875,0.1941837109375,1.1430270947265626
-0.32062544921875,0.25030939697265625,1.24108796875
-0.349073359375,0.167713955078125,1.17129025390625
-0.21218298828125,0.085363603515625,1.1651460888671874
-0.33229638671875,0.09247122314453125,1.1494170263671875
-0.339347578125,0.03512008544921875,1.048406953125
-0.20415921875,-0.01928996826171875,0.965337841796875
-0.35369310546875,-0.0504164404296875,1.0255506591796875
-0.397702265625,-0.0347306591796875,1.0737209130859375
-0.27880458984375,-0.096983603515625,0.9965502001953125
-0.279047734375,-0.093062158203125,0.91372685546875
-0.38287044921875,-0.0092412646484375,0.8274627783203125
-0.2172890234375,-0.01193725830078125,0.7011387451171875
-0.109819140625,-0.0464949951171875,0.6878673486328125
-0.26129818359375,0.053992041015625,0.867522734375
-0.25546271484375,0.03806116943359375,0.9439561474609375
-0.2688356640625,0.14148928955078124,1.0039231982421875
-0.2620276171875,0.08609887451171874,1.0835515771484374
-0.3378887109375,0.0059543359375,1.047915419921875
-0.36487775390625,0.0907555908203125,0.94321884765625
-0.27442798828125,-0.02517213623046875,0.7846993896484376
-0.249870390625,0.03806116943359375,0.7606142626953125
-0.22288134765625,0.055462583007812497,0.6859012158203125
-0.22336763671875,0.03144373046875,0.7149016748046875
-0.19516287109375,0.06698182861328125,0.87440419921875
-0.205131796875,0.13217585693359374,1.2595204638671875
-0.40378087890625003,0.10276501708984374,1.3568440380859375
-0.28172232421875,0.16305723876953124,1.2929447216796874
-0.226528515625,0.1652630517578125,1.175714052734375
-0.28366748046875,0.08315779052734375,1.154086591796875
-0.14629082031250001,0.09835339111328124,1.2855717236328126
-0.378250703125,0.06747200927734374,1.3661831689453126
-0.38457246093749997,0.05105095703125,1.3288266455078124
-0.32257060546875,0.04492369873046875,1.0658563818359374
-0.24038775390625,-0.0724745703125,0.9105318896484375
-0.3048210546875,-0.030319033203124998,0.8879213623046875
-0.1813036328125,-0.03105430419921875,1.0395593554687501
-0.2843969140625,-0.075415654296875,1.084288876953125
-0.3524773828125,-0.11095375244140625,1.0385762890625
-0.28974609375,0.01012087158203125,0.920116787109375
-0.28123603515625,0.03413972412109375,0.8431918408203125
-0.3573402734375,0.03855135009765625,0.7055625439453125
-0.1900568359375,0.057668395996093746,0.6996641455078125
-0.07699462890625,0.09296140380859375,0.80755568359375
-0.3242726171875,0.09492212646484376,0.96288017578125
-0.3096839453125,0.0691876416015625,1.1715360205078125
-0.34104958984375,0.028502646484374998,1.163917255859375
-0.28391062499999997,0.09835339111328124,1.14179826171875
-0.27345541015625,0.07041309326171875,0.9572275439453125
-0.1210037890625,0.0373258984375,0.9166760546875
-0.2192341796875,0.01600303955078125,0.93928658203125
-0.34445361328125,0.03021827880859375,0.9813126708984374
-0.26518849609375,0.02776737548828125,0.967303974609375
-0.26251390625,-0.0190448779296875,0.9940925341796875
-0.2099946875,0.08854977783203125,0.985982236328125
-0.2454937890625,0.13462676025390624,0.9896687353515625
-0.2756437109375,-0.00948635498046875,0.9120064892578125
-0.24427806640625,0.04051207275390625,0.9238032861328125
-0.27491427734375,0.0397768017578125,0.95796484375
-0.3111428125,-0.03056412353515625,0.884726396484375
-0.17960162109375,0.04394333740234375,0.874895732421875
-0.3301080859375,-0.0935523388671875,0.854251337890625
-0.26275705078125,0.0025230712890624996,0.9065996240234375
-0.22336763671875,0.05031568603515625,0.944693447265625
-0.2873146484375,0.053992041015625,0.9872110693359375
-0.35612455078125,0.0329142724609375,1.01399962890625
-0.3233000390625,0.05080586669921875,1.1005094726562499
-0.3339983984375,0.101049384765625,1.0437373876953124
-0.27929087890625,-0.02027032958984375,0.9306847509765624
-0.2017277734375,0.0584036669921875,0.8977520263671875
-0.2566784375,0.0427178857421875,0.9110234228515625
-0.34032015625,0.00766996826171875,0.974185439453125
-0.244034921875,0.04786478271484375,1.0029401318359374
-0.32791978515625,-0.03595611083984375,0.949608779296875
-0.28026345703125,0.07850107421875,0.9397781152343749
-0.22628537109375,-0.03448556884765625,0.850319072265625
-0.22701480468750002,0.04100225341796875,0.943710380859375
-0.3656071875,-0.05090662109375,0.92159138671875
-0.25983931640625,-0.03203466552734375,0.8377849755859375
-0.19370400390625,0.0760501708984375,0.7866655224609375
-0.23503857421875,-0.00997653564453125,0.7232577392578124
-0.249870390625,-0.1121792041015625,0.7984623193359375
-0.317950859375,0.07065818359375,0.9960586669921875
-0.31624884765625,0.13315621826171875,1.089204208984375
-0.27831830078124997,-0.0033590966796874996,1.061678349609375
-0.302389609375,0.02776737548828125,1.0358728564453126
-0.2698082421875,0.10521592041015625,1.003677431640625
-0.2814791796875,0.1378129345703125,1.0122792626953125
-0.27783201171875,0.163792509765625,1.085271943359375
-0.3505322265625,0.1035002880859375,1.134425263671875
-0.33959072265625,0.03462990478515625,1.0857634765625
-0.28853037109375,-0.020515419921875,0.9562444775390625
-0.2561921484375,0.0142874072265625,0.9835245703125
-0.3111428125,-0.048945898437499996,0.961897109375
-0.22701480468750002,0.06551128662109375,0.897506259765625
-0.2318776953125,-0.0055649096679687505,0.8323781103515625
-0.36050115234375,-0.020515419921875,0.9316678173828125
-0.2610550390625,0.10962754638671875,1.06315294921875
-0.24233291015625,-0.030319033203124998,1.1617053564453126
-0.34810078125,-0.038161923828125,1.2673849951171876
-0.35563826171875,0.057913486328125,1.1703071875
-0.27418484375,0.1093824560546875,0.9913891015625
-0.294608984375,0.05913893798828125,0.956490244140625
-0.39356880859375,0.0231106591796875,1.0597122167968749
-0.214857578125,-0.0955130615234375,0.94321884765625
-0.16501294921875,0.0378160791015625,0.86457353515625
-0.2707808203125,0.08242251953125,0.81738634765625
-0.2581373046875,-0.08350363525390625,0.9196252539062499
-0.10957599609375,0.14197947021484375,1.0923991748046875
-0.38627447265625,0.112813720703125,1.2369099365234375
-0.3437241796875,0.01992448486328125,1.354632138671875
-0.35126166015625,0.14639109619140625,1.3155552490234375
-0.42517759765625,0.244182138671875,1.196358447265625
-0.31965287109375,0.1235976953125,1.10640787109375
-0.07553576171875,0.09688284912109375,1.187510849609375
-0.2542469921875,0.08634396484375,1.3932174951171874
-0.5421301171875,-0.0415931884765625,1.2752495263671875
-0.16695810546875,-0.013652890625,0.98942296875
-0.2513292578125,-0.132276611328125,0.789368955078125
-0.2722396875,-0.016593974609375,0.764792294921875
-0.05316646484375,-0.00752563232421875,0.950591845703125
-0.35126166015625,-0.07762146728515625,1.3165383154296875
-0.59100216796875,-0.02517213623046875,1.275986826171875
-0.35855599609375,-0.081297822265625,0.9272440185546875
-0.24816837890625,-0.09967959716796874,0.7316138037109375
-0.2566784375,-0.05899460205078125,0.7468513330078125
-0.2240970703125,-0.0141430712890625,0.7397241015625
-0.22239505859375,0.009140510253906251,0.89406552734375
-0.2260422265625,0.05325677001953125,1.0653648486328124
-0.34226531250000003,0.01208159423828125,1.20864677734375
-0.3388612890625,-0.07419020263671874,1.1880023828125
-0.16404037109375,0.181439013671875,1.1818582177734376
-0.35709712890625,0.12727405029296876,1.1120605029296875
-0.31381740234375,-0.08350363525390625,1.0516019189453125
-0.16841697265625,0.07923634521484375,0.8599039697265625
-0.3408064453125,-0.0612004150390625,0.7316138037109375
-0.2795340234375,-0.11561046875,0.7475886328125
-0.221665625,-0.06683749267578125,0.8972604931640625
-0.2318776953125,0.155949619140625,0.9572275439453125
-0.42712275390625,-0.03938737548828125,0.9655836083984375
-0.257651015625,-0.18399067138671876,1.0697886474609375
-0.222638203125,0.10987263671875,1.0152284619140626
-0.3719289453125,0.16109651611328124,0.788385888671875
-0.185680234375,-0.08154291259765625,0.6047982373046875
0.03144783203125,-0.0376717431640625,0.64043439453125
-0.1477496875,-0.028358310546875,0.7021218115234376
-0.1793584765625,-0.1317864306640625,0.8466325732421875
-0.28464005859375,0.02727719482421875,1.1228742333984374
-0.4701593359375,-0.0994345068359375,0.99630443359375
-0.448276328125,-0.1543347412109375,0.7856824560546875
-0.15723232421875,0.03364954345703125,0.94125271484375
-0.337402421875,0.02874773681640625,1.10640787109375
-0.1706052734375,0.20472259521484376,1.1744852197265625
-0.16938955078125,0.25079957763671873,1.1975872802734375
-0.38967849609375,-0.036201201171875,1.2270792724609374
-0.29193439453125003,0.0887948681640625,1.1759598193359375
-0.333512109375,-0.011201987304687501,0.902421591796875
-0.10763083984374999,-0.07958218994140626,0.6357648291015625
-0.0538958984375,-0.071494208984375,0.637976728515625
-0.23163455078125,-0.16070708984375,0.7478343994140625
-0.37946642578125,0.05962911865234375,1.0250591259765625
-0.3952708203125,0.1510478125,1.079865078125
-0.38287044921875,0.2142811181640625,1.068559814453125
-0.314060546875,0.22531018310546874,0.9297016845703125
-0.25254498046875,0.106931552734375,0.8242678125
-0.16258150390625,0.06698182861328125,0.9609140429687499
