ax,ay,az
-0.3077387890625,-0.04281864013671875,0.909303056640625
-0.49812095703125,-0.02223105224609375,1.048406953125
-0.53799666015625,-0.07443529296875,1.0171945947265626
-0.48888146484375,0.0294830078125,0.9341254833984375
-0.44049570312499997,0.08266760986328126,0.873912666015625
-0.29193439453125003,0.03021827880859375,0.863098935546875
-0.27685943359375,-0.091101435546875,0.9402696484374999
-0.29728357421875,-0.042328459472656246,0.9601767431640625
-0.26810623046875,-0.10556176513671875,0.9233117529296875
-0.31916658203125,-0.15556019287109374,0.965337841796875
-0.42055785156250003,-0.11781628173828125,1.0289913916015625
-0.32694720703125,-0.07713128662109375,1.06315294921875
-0.428824765625,-0.04919098876953125,1.14769666015625
-0.50833302734375,-0.12909043701171874,0.95501564453125
-0.34493990234375,-0.01928996826171875,0.8572005371093749
-0.269321953125,-0.10507158447265624,0.7330884033203124
-0.18349193359375,-0.07026875732421875,0.6991726123046875
-0.27540056640625,-0.00948635498046875,0.787402822265625
-0.39016478515624997,-0.09673851318359375,0.846386806640625
-0.3651208984375,-0.1587463671875,0.7851909228515626
-0.230418828125,-0.06144550537109375,0.803131884765625
-0.2513292578125,0.08707923583984375,0.8183694140625
-0.26227076171875,0.11207844970703125,0.8328696435546875
-0.27977716796875,0.1240878759765625,0.9048792578125
-0.38578818359375,0.161831787109375,1.08084814453125
-0.45484123046875,0.15913579345703124,1.1174673681640626
-0.3874901953125,0.142224560546875,1.040542421875
-0.31089966796875,0.152028173828125,0.9454307470703125
-0.3033621875,0.10202974609375,0.8992266259765624
-0.39210994140625,0.04590406005859375,0.899472392578125
-0.35806970703125,0.0608545703125,0.8353273095703125
-0.37849384765625,0.06109966064453125,0.7748687255859374
-0.35417939453125,-0.025662316894531252,0.713672841796875
-0.2177753125,-0.1621776318359375,0.61290853515625
-0.1326747265625,-0.049926259765625,0.63453599609375
-0.27515742187500003,-0.01193725830078125,0.665502587890625
-0.2980130078125,-0.1935491943359375,0.6072559033203125
-0.3748466796875,-0.1430605859375,0.682214716796875
-0.41399294921875,-0.059729873046875,0.77806369140625
-0.36293259765625,-0.010711806640625,0.7321053369140624
-0.2941226953125,0.0005623486328125002,0.7296476708984375
-0.19516287109375,0.0819323388671875,0.8048522509765625
-0.230418828125,-0.09428760986328125,0.91176072265625
-0.26154132812499997,-0.1013952294921875,1.114763935546875
-0.3038484765625,-0.1013952294921875,1.263206962890625
-0.34299474609375,-0.07026875732421875,1.1848074169921876
-0.343237890625,-0.0151234326171875,1.009575830078125
-0.43830740234375,-0.0063001806640625,0.83704767578125
-0.37581925781250003,0.06453092529296875,0.8726838330078125
-0.3028758984375,0.08070688720703124,0.9439561474609375
-0.3874901953125,0.1103628173828125,1.0442289208984374
-0.4254207421875,0.1456558251953125,0.935845849609375
-0.34688505859375,0.1113431787109375,0.8451579736328125
-0.32281375,0.0843832421875,0.8869382958984375
-0.24379177734375002,0.15570452880859376,0.978117705078125
-0.27394169921875,0.1392834765625,1.0766701123046876
-0.331566953125,0.2201632861328125,1.277952958984375
-0.5003092578125,0.09884357177734375,1.3819122314453125
-0.5168430859375,-0.04379900146484375,1.2354353369140625
-0.3466419140625,0.05619785400390625,1.0643817822265624
-0.3680386328125,-0.0082609033203125,0.8992266259765624
-0.273212265625,-0.132276611328125,0.8741584326171875
-0.3262177734375,-0.05017135009765625,0.9144641552734375
-0.26421591796875,-0.12418863037109375,1.0117877294921875
-0.32500205078125,-0.14477621826171874,1.147205126953125
-0.30798193359375,-0.19722554931640626,1.1051790380859374
-0.33229638671875,-0.2435476220703125,0.969761640625
-0.2581373046875,-0.17639287109375001,0.7881401220703125
-0.23260712890625002,-0.11928682373046876,0.6480531591796875
-0.1336473046875,-0.1278649853515625,0.56375521484375
-0.11443888671875,-0.18423576171875,0.590789541015625
-0.08744984375,-0.147962392578125,0.800182685546875
-0.1754681640625,-0.0886505322265625,1.0560257177734376
-0.33570041015625,-0.14281549560546875,1.3175213818359375
-0.33278267578125,-0.104826494140625,1.3504541064453126
-0.28804408203125,-0.00752563232421875,1.24403716796875
-0.312115390625,0.089285048828125,1.217494375
-0.40256515625,0.1314405859375,1.16932412109375
-0.24184662109375,0.0373258984375,1.111814736328125
-0.2523018359375,0.021885207519531248,1.01399962890625
-0.16890326171875,0.05374695068359375,0.94911724609375
-0.11735662109375,-0.0016434643554687498,0.9080742236328125
-0.23747001953125,0.05227640869140625,1.0751955126953125
-0.35806970703125,0.042227705078125,1.2020110791015626
-0.486206875,0.01551285888671875,1.241579501953125
-0.50979189453125,0.057668395996093746,1.12213693359375
-0.34931650390625,0.0446786083984375,0.808047216796875
-0.14969484375,0.1025199267578125,0.6632906884765625
-0.11103486328125,0.04884514404296875,0.552941484375
-0.11589775390625,0.019679394531249998,0.58931494140625
-0.1910294140625,-0.055808427734375,0.676316318359375
-0.25400384765625,-0.0562986083984375,0.7802755908203125
-0.35028908203125,-0.13203152099609375,0.8655566015625
-0.26275705078125,-0.05458297607421875,0.9267524853515625
-0.27296912109375,-0.0582593310546875,0.9953213671875
-0.38481560546875,-0.12026718505859375,0.9321593505859375
-0.2182616015625,-0.0710040283203125,0.9262609521484375
-0.2085358203125,-0.012672529296875,0.9980247998046875
-0.13632189453125,0.12947986328125,1.012525029296875
-0.2338228515625,0.1064413720703125,0.9960586669921875
-0.32694720703125,0.02237538818359375,1.014491162109375
-0.33715927734375,0.05717821533203125,1.0737209130859375
-0.331566953125,0.13952856689453125,1.1056705712890624
-0.4011062890625,0.112813720703125,1.0516019189453125
-0.2824517578125,0.05227640869140625,1.0727378466796875
-0.32451576171875,-0.02321141357421875,1.0245675927734375
-0.1813036328125,-0.0038492773437499997,0.8569547705078124
-0.23309341796875,-0.00777072265625,0.7522581982421875
-0.212912421875,-0.15703073486328126,0.651248125
-0.17376615234375,-0.0161037939453125,0.6922911474609375
-0.2318776953125,0.0012976196289062499,0.811979482421875
-0.23819945312500002,-0.0249270458984375,0.897506259765625
-0.0976619140625,-0.00213364501953125,0.970253173828125
-0.22725794921875,0.026051743164062502,0.9921264013671875
-0.358799140625,0.0368357177734375,0.878827998046875
-0.37946642578125,0.008405239257812499,0.7478343994140625
-0.11638404296875,0.04247279541015625,0.731368037109375
-0.0645942578125,0.104970830078125,0.859658203125
-0.09693248046875,0.19222298828125,0.9965502001953125
-0.31187224609374997,0.12580350830078124,1.023338759765625
-0.1278118359375,-0.0028689160156250004,0.9144641552734375
-0.15917748046875,-0.027868129882812502,0.8254966455078125
-0.16744439453124998,-0.0151234326171875,0.7733941259765625
-0.1287844140625,-0.06683749267578125,0.7276815380859375
-0.25740787109375,-0.048455717773437504,0.797233486328125
-0.3033621875,0.07531489990234375,0.8628531689453125
-0.30263275390625,0.02335574951171875,0.785436689453125
-0.1842213671875,0.1887917236328125,0.8328696435546875
-0.31722142578125,0.20080114990234374,0.875878798828125
-0.31041337890625,0.21256548583984375,0.933879716796875
-0.29631099609375,0.25668174560546875,1.0179318945312499
-0.27102396484375,0.25962282958984373,1.06315294921875
-0.24476435546875,0.2659951782226562,1.08478041015625
-0.18300564453125,0.1319307666015625,1.1115689697265625
-0.21655958984375,0.04982550537109375,1.1833328173828126
-0.3826273046875,0.0486000537109375,1.1789090185546875
-0.33667298828125003,0.159871064453125,1.0579918505859376
-0.33326896484375,0.18756627197265624,1.075441279296875
-0.36682291015625,-0.02615249755859375,1.138357529296875
-0.292663828125,0.10570610107421875,1.168832587890625
-0.430769921875,0.11992134033203125,1.04349162109375
-0.24865466796875,-0.0866898095703125,0.8734211328125
-0.13923962890625,-0.13056097900390626,0.8340984765625
-0.06191966796875,-0.06438658935546875,0.965337841796875
-0.1205175,-0.20261753662109375,1.16145958984375
-0.300444453125,-0.319525625,1.315801015625
-0.446331171875,-0.186196484375,1.29319048828125
-0.1744955859375,-0.087179990234375,1.1218911669921874
-0.2766162890625,-0.1979608203125,1.1105859033203125
-0.32548833984375003,-0.012672529296875,1.21454517578125
-0.2435486328125,0.062080021972656246,1.0579918505859376
-0.4448723046875,-0.014633251953124999,0.9483799462890625
-0.4507077734375,-0.04919098876953125,0.7987080859375
-0.207076953125,-0.22271494384765625,0.6795112841796875
-0.02715,-0.12565917236328125,0.710232109375
-0.04271125,-0.09085634521484375,0.91569298828125
-0.04052294921875,-0.1445311279296875,1.111814736328125
-0.1774133203125,-0.161687451171875,1.41115845703125
-0.40426716796875,-0.13448242431640625,1.5234737939453125
-0.37654869140625,-0.010221625976562499,1.3396403759765625
-0.37363095703125,0.05325677001953125,1.0688055810546875
-0.30530734375,0.0995788427734375,0.922082919921875
-0.1881116796875,0.00423870361328125,0.8301662109375
-0.206104375,-0.022476142578125,0.847369873046875
-0.2211793359375,-0.02615249755859375,0.8412257080078125
-0.1141957421875,-0.0567887890625,0.818860947265625
-0.14799283203125,-0.1430605859375,0.902913125
-0.23455228515625,-0.13154134033203124,1.0633987158203124
-0.3126016796875,-0.069533486328125,1.1022298388671874
-0.2902323828125,-0.057769150390625,0.96288017578125
-0.20245720703125,-0.01487834228515625,0.8918536279296875
-0.1978374609375,-0.046249904785156254,0.838522275390625
-0.09912078125,-0.01291761962890625,0.9120064892578125
-0.26227076171875,-0.08301345458984374,0.9960586669921875
-0.29169125,-0.03350520751953125,1.0240760595703124
-0.34980279296875,-0.020515419921875,0.910286123046875
-0.29728357421875,-0.07664110595703125,0.7650380615234375
-0.2552195703125,-0.05654369873046875,0.72497810546875
-0.1890842578125,0.012816865234374999,0.6849181494140625
-0.127325546875,0.009140510253906251,0.673367119140625
-0.11395259765625,0.0799716162109375,0.7178508740234375
-0.16112263671875,0.05913893798828125,0.76823302734375
-0.1871391015625,0.04933532470703125,0.8864467626953125
-0.2172890234375,0.127519140625,1.027271025390625
-0.28998923828125,0.1574201611328125,1.08084814453125
-0.28609892578125,0.0142874072265625,0.9483799462890625
-0.26251390625,0.02433611083984375,0.8122252490234375
-0.1813036328125,0.01894412353515625,0.6490362255859374
-0.12173322265625,-0.0288484912109375,0.614383134765625
-0.16160892578125,-0.04330882080078125,0.73677490234375
-0.24525064453125,0.0515411376953125,0.8967689599609375
-0.30020130859375,0.14246965087890626,0.9813126708984374
-0.25303126953125,0.1731059423828125,0.9680412744140625
-0.21607330078125,0.128499501953125,0.9203625537109374
-0.05365275390625,0.089285048828125,0.845403740234375
0.05089939453125,0.04712951171875,0.926015185546875
-0.1453182421875,-0.0371815625,0.9862280029296875
-0.20099833984375,-0.15703073486328126,1.076424345703125
-0.315033125,-0.12761989501953125,1.0496357861328125
-0.23309341796875,-0.0406128271484375,0.946168046875
-0.18227621093750002,-0.03399538818359375,0.923065986328125
-0.224583359375,-0.00703545166015625,0.9835245703125
-0.22093619140625,-0.00507472900390625,0.9363373828125
-0.1336473046875,-0.048455717773437504,0.89406552734375
-0.08769298828125,-0.08227818359375,0.903404658203125
-0.007698437500000002,-0.0680629443359375,1.0250591259765625
-0.1205175,-0.08497417724609375,1.1290183984375
-0.15188314453125001,0.08168724853515624,1.200290712890625
-0.33108066406250003,-0.01046671630859375,1.1990618798828125
-0.3865176171875,0.0162481298828125,1.188493916015625
-0.2610550390625,0.12188206298828125,1.1091113037109375
-0.12173322265625,0.02286556884765625,1.0240760595703124
-0.1633109375,0.077520712890625,0.95698177734375
-0.3019033203125,0.10080429443359375,1.0678225146484375
-0.426879609375,0.03561026611328125,1.035135556640625
-0.339347578125,0.033404453125,1.0506188525390625
-0.26567478515625,0.1593808837890625,1.179646318359375
-0.29363640625,0.10374537841796876,1.2256046728515626
-0.24330548828125,-0.0298288525390625,1.1612138232421876
-0.18203306640625,0.0809519775390625,1.1395863623046876
-0.1929745703125,-0.060710234375,1.053813818359375
-0.34202216796875,-0.0582593310546875,1.019406494140625
-0.2698082421875,-0.07835673828125,0.9609140429687499
-0.20975154296875,-0.19428446533203125,0.828691611328125
-0.2357680078125,-0.1886473876953125,0.824759345703125
-0.25838044921875,-0.13350206298828124,0.719571240234375
-0.21218298828125,-0.04919098876953125,0.7158847412109375
-0.24087404296875,-0.11193411376953125,0.7237492724609375
-0.27272597656249997,-0.01732924560546875,0.8535140380859375
-0.170118984375,-0.01193725830078125,0.9749227392578125
-0.115654609375,0.009140510253906251,1.133442197265625
-0.25838044921875,-0.07419020263671874,1.2705799609375
-0.28318119140625,-0.063651318359375,1.2491982666015624
-0.33618669921875,-0.028113220214843748,1.0727378466796875
-0.31868029296875,-0.05703387939453125,0.8589209033203125
-0.201241484375,-0.08791526123046875,0.744147900390625
-0.0480604296875,0.0025230712890624996,0.8498275390625
-0.19808060546875,0.15619470947265626,1.1184504345703126
-0.28269490234375,-0.10727739746093751,1.1155012353515625
-0.27345541015625,-0.196980458984375,0.9985163330078125
-0.205131796875,-0.02517213623046875,0.8864467626953125
-0.17327986328125,-0.03889719482421875,0.69941837890625
-0.059245078125,-0.0915916162109375,0.656654990234375
-0.061676523437500005,-0.046249904785156254,0.749063232421875
-0.127325546875,-0.01291761962890625,0.97369390625
-0.2231244921875,0.008405239257812499,1.1469593603515624
-0.3203823046875,-0.0004180126953125,1.2580458642578125
-0.29193439453125003,0.0133070458984375,1.1405694287109376
-0.3485870703125,-0.03203466552734375,0.9245405859375
-0.26372962890625,-0.123453359375,0.7561904638671875
-0.03566005859375,-0.04281864013671875,0.6691890869140625
-0.1346198828125,-0.12516899169921875,0.7502920654296875
-0.17303671874999998,-0.15212892822265625,0.7869112890625
-0.07650833984375,-0.13546278564453124,0.7350545361328125
-0.20415921875,-0.08301345458984374,0.8240220458984375
-0.2347954296875,-0.03497574951171875,0.926015185546875
-0.24914095703125,-0.00409436767578125,0.930930517578125
-0.25789416015625,0.07139345458984375,0.946659580078125
-0.17425244140625,0.026296833496093748,1.00416896484375
-0.1317021484375,-0.05164189208984375,0.899472392578125
-0.20926525390625,0.0137972265625,0.957473310546875
-0.26640421875,0.04100225341796875,1.0535680517578125
-0.33108066406250003,0.0172284912109375,1.0987891064453126
-0.3038484765625,0.0956573974609375,1.161951123046875
-0.3164919921875,0.023845930175781252,1.022355693359375
-0.11322316406249999,0.021885207519531248,0.9759058056640625
-0.13729447265625,0.0731090869140625,1.02088109375
-0.2153438671875,-0.028113220214843748,1.0191607275390624
-0.07067287109375,-0.06487677001953125,1.0919076416015625
-0.25789416015625,-0.1043363134765625,1.1071451708984374
-0.2022140625,-0.10458140380859375,0.9419900146484375
-0.10568568359375,-0.03399538818359375,0.721537373046875
-0.21266927734375,-0.155805283203125,0.6539515576171875
-0.12659611328125,-0.09796396484375,0.6217561328125
-0.03128345703125,-0.01879978759765625,0.7424275341796875
-0.1521262890625,-0.0006631030273437505,1.0267794921875
-0.31916658203125,-0.05115171142578125,1.1801378515625
-0.41253408203124997,-0.01683906494140625,1.1329506640625
-0.27029453125,0.0848734228515625,0.81935248046875
-0.24184662109375,0.0025230712890624996,0.6492819921874999
-0.05073501953125,0.0731090869140625,0.655671923828125
0.0258555078125,0.0652661962890625,0.76036849609375
-0.033714902343750006,0.0623251123046875,0.921099853515625
-0.17911533203125,0.055952763671875,1.1489254931640625
-0.21169669921875,0.01551285888671875,1.2939277880859374
-0.24233291015625,-0.006790361328125,1.28827515625
-0.33764556640625,0.015022678222656249,1.10640787109375
-0.30141703125,0.07580508056640625,0.984016103515625
-0.28512634765625,-0.0190448779296875,0.9341254833984375
-0.253760703125,-0.00409436767578125,1.0329236572265625
-0.25303126953125,0.10325519775390625,1.130492998046875
-0.206104375,0.04835496337890625,0.938795048828125
-0.20099833984375,0.0922261328125,0.864082001953125
-0.10106593750000001,0.01306195556640625,0.8726838330078125
-0.22944625,-0.06928839599609375,1.002694365234375
-0.146777109375,-0.10262068115234375,1.127543798828125
-0.1637972265625,-0.1239435400390625,1.294665087890625
-0.28585578125,-0.16438344482421874,1.2784444921875
-0.3281629296875,-0.00850599365234375,1.1489254931640625
-0.31746457031249997,-0.0190448779296875,0.9793465380859375
-0.24525064453125,-0.03546593017578125,0.906353857421875
-0.156502890625,0.0123266845703125,1.016948828125
-0.230418828125,-0.03105430419921875,1.03759322265625
-0.2659179296875,-0.09477779052734375,0.872929599609375
-0.20537494140625,-0.14232531494140624,0.73087650390625
-0.09595990234375,-0.13595296630859374,0.6750874853515625
-0.16841697265625,-0.13644314697265625,0.7979707861328125
-0.21266927734375,-0.07468038330078125,0.95796484375
-0.32451576171875,-0.02860340087890625,1.0923991748046875
-0.22093619140625,0.040266982421875,1.0189149609375
-0.31333111328125,0.02531647216796875,0.8023945849609375
-0.1788721875,0.04982550537109375,0.7114609423828124
-0.13778076171875,0.1280093212890625,0.7987080859375
-0.25351755859375,0.03536517578125,1.007609697265625
-0.22774423828125,0.0182088525390625,1.1641630224609374
-0.2566784375,-0.06242586669921875,1.17522251953125
-0.11541146484375,-0.1513936572265625,1.0648733154296874
-0.2756437109375,-0.16487362548828124,0.931913583984375
-0.2649453515625,-0.13448242431640625,0.777572158203125
-0.09595990234375,-0.042328459472656246,0.7650380615234375
-0.168173828125,0.04198261474609375,0.924049052734375
-0.3339983984375,0.05668803466796875,1.0383305224609374
-0.18300564453125,0.05423713134765625,1.03562708984375
-0.1321884375,0.08242251953125,1.0444746875
-0.16209521484375,0.044188427734375,1.11427240234375
-0.187625390625,-0.0680629443359375,1.0722463134765625
-0.3378887109375,-0.05311243408203125,1.003677431640625
-0.22725794921875,0.0309535498046875,0.9636174755859375
-0.13291787109375,-0.04526954345703125,0.9360916162109375
-0.23698373046875,-0.03154448486328125,1.0530765185546875
-0.2610550390625,-0.130315888671875,1.1422897949218749
-0.29436583984375,-0.1259042626953125,1.06315294921875
-0.292663828125,-0.08791526123046875,0.829674677734375
-0.1161408984375,-0.14771730224609375,0.6146289013671875
0.0005684765624999998,-0.07835673828125,0.6269172314453125
-0.23455228515625,0.0010525292968750002,0.7571735302734375
-0.25983931640625,0.087324326171875,0.9095488232421876
-0.19175884765625,-0.00777072265625,1.0049062646484375
-0.23819945312500002,0.00865032958984375,1.090187275390625
-0.15528716796875,-0.0661022216796875,1.12017080078125
-0.2027003515625,-0.0229663232421875,1.06315294921875
-0.27515742187500003,0.06011929931640625,1.041033955078125
-0.20732009765625,-0.02860340087890625,0.9704989404296875
-0.25108611328125,-0.03938737548828125,1.00023669921875
-0.23503857421875,-0.10654212646484375,0.9193794873046874
-0.20026890625,-0.13497260498046876,0.847369873046875
-0.04100923828125,-0.16487362548828124,0.842454541015625
-0.16695810546875,-0.0729647509765625,0.98647376953125
-0.2445212109375,-0.13742350830078126,0.983033037109375
-0.2328502734375,0.009140510253906251,0.9965502001953125
-0.23819945312500002,-0.037916833496093746,0.9321593505859375
-0.2377131640625,0.07041309326171875,0.858183603515625
-0.14069849609375001,0.1231075146484375,0.87047193359375
-0.1278118359375,0.01747358154296875,0.992863701171875
-0.11346630859375,-0.00507472900390625,1.1612138232421876
-0.185680234375,-0.00311400634765625,1.2418252685546876
-0.3417790234375,-0.1278649853515625,1.1469593603515624
-0.174009296875,-0.12075736572265625,0.9493630126953125
-0.2299325390625,0.06698182861328125,1.0078554638671875
-0.2124261328125,-0.07320984130859375,1.1322133642578125
-0.22434021484375,-0.140119501953125,1.2870463232421876
-0.2513292578125,-0.00703545166015625,1.30498728515625
-0.242089765625,-0.18595139404296876,1.0535680517578125
-0.22531279296875,-0.16928525146484374,0.851793671875
-0.10228166015625,-0.2136466015625,0.72694423828125
-0.11492517578125,-0.11046357177734376,0.84884447265625
-0.2231244921875,-0.16070708984375,0.85081060546875
-0.18349193359375,-0.18399067138671876,0.7468513330078125
-0.09547361328125001,-0.1749223291015625,0.6279002978515625
-0.00842787109375,-0.186196484375,0.646824326171875
-0.01815365234375,-0.16879507080078124,0.716622041015625
-0.195406015625,-0.01389798095703125,0.8751414990234375
-0.25692158203125,0.06257020263671875,1.0796193115234376
-0.27637314453125,-0.038161923828125,1.2614865966796875
-0.31041337890625,0.06060947998046875,1.22437583984375
-0.28220861328125,-0.0121823486328125,0.9208540869140625
-0.1696326953125,0.020659755859375,0.724486572265625
-0.12513724609375,-0.09624833251953124,0.6052897705078125
0.047981660156249994,-0.075415654296875,0.59914560546875
-0.067025703125,-0.03595611083984375,0.764792294921875
-0.27783201171875,-0.05409279541015625,0.864082001953125
-0.17911533203125,-0.035711020507812496,0.8972604931640625
-0.22823052734375,-0.0004180126953125,1.118696201171875
-0.43782111328125,-0.02958376220703125,1.270088427734375
-0.41788326171875,0.0868341455078125,1.1897227490234374
-0.16914640625,0.12090170166015625,1.032186357421875
-0.12902755859375,0.01747358154296875,1.0049062646484375
-0.2892598046875,-0.112669384765625,0.8658023681640625
-0.1832487890625,-0.123453359375,0.914218388671875
-0.13972591796875,-0.0553182470703125,1.026287958984375
-0.234309140625,-0.196980458984375,1.0191607275390624
-0.2785614453125,-0.01978014892578125,0.9857364697265625
-0.13875333984375,-0.049926259765625,0.7846993896484376
-0.16890326171875,0.120656611328125,0.76823302734375
-0.01620849609375,0.10202974609375,0.95894791015625
-0.105928828125,0.06943273193359376,1.21061291015625
-0.34299474609375,0.04933532470703125,1.4792358056640624
-0.5119801953125,-0.00581,1.4357351171875
-0.4030514453125,-0.10850284912109374,1.0975602734375
-0.18738224609375,-0.187176845703125,0.7611057958984375
-0.1093328515625,-0.19526482666015624,0.5944760400390625
0.01758859375,-0.1739419677734375,0.584399609375
-0.15674603515625,-0.1866866650390625,0.749063232421875
-0.2902323828125,-0.045024453125,0.9488714794921875
-0.2785614453125,-0.01978014892578125,1.1125520361328125
-0.0879361328125,-0.01487834228515625,1.0756870458984376
-0.0840458203125,0.05031568603515625,0.8903790283203125
-0.070916015625,-0.083258544921875,0.8082929833984375
0.0550328515625,-0.02223105224609375,0.8289373779296875
-0.056084199218750005,-0.08619962890625,1.0923991748046875
-0.1706052734375,-0.2528610546875,1.251410166015625
-0.26421591796875,-0.20849970458984374,1.2671392285156249
-0.2746711328125,0.009140510253906251,1.16735798828125
-0.22725794921875,0.16893940673828126,0.973202373046875
-0.31916658203125,0.13266603759765624,0.985982236328125
-0.290718671875,0.0584036669921875,1.0796193115234376
-0.2878009375,0.08707923583984375,1.1607222900390626
-0.33618669921875,-0.11977700439453125,1.12606919921875
-0.19248828125,-0.01683906494140625,0.8441749072265625
-0.13972591796875,-0.05017135009765625,0.625196865234375
0.0744844140625,-0.0386521044921875,0.7298934375
-0.06872771484375,-0.0170841552734375,1.3089195507812499
-0.3816547265625,-0.06438658935546875,1.5062701318359375
-0.47526537109375,-0.2700173779296875,1.3342335107421874
-0.40280830078125,-0.25261596435546874,0.9729566064453125
0.012482558593749998,-0.200901904296875,0.655180390625
-0.0466015625,-0.13301188232421876,0.618315400390625
-0.16258150390625,-0.04698517578125,0.740215634765625
-0.23917203125,-0.23006765380859376,0.7601227294921875
-0.3301080859375,-0.120512275390625,0.6809858837890626
-0.304334765625,-0.10115013916015625,0.5925099072265625
-0.0879361328125,-0.18153976806640626,0.4605332421875
-0.040279804687500004,-0.17271651611328126,0.4563552099609375
0.05649171875,-0.151883837890625,0.5448311865234375
0.01369828125,-0.23496946044921874,0.70728291015625
-0.18251935546875,-0.0366913818359375,0.9596852099609375
-0.2488978125,0.0299731884765625,0.9272440185546875
-0.1278118359375,-0.0612004150390625,0.9798380712890625
-0.21461443359375,0.03904153076171875,1.0781447119140626
-0.23114826171875,0.1348718505859375,1.028745625
-0.34056330078125,0.069677822265625,0.89504859375
-0.3515048046875,0.0593840283203125,0.7746229589843749
-0.13291787109375,0.06796218994140625,0.667468720703125
-0.06532369140625,-0.1455114892578125,0.5234494921875
0.09272025390625,-0.11561046875,0.6008659716796875
0.1085246484375,-0.01291761962890625,0.8289373779296875
0.1279762109375,0.11452935302734375,1.2152824755859375
-0.24306234375,-0.0239466845703125,1.5478046875
-0.52146283203125,-0.2643803002929688,1.5342875244140626
-0.125380390625,0.05497240234375,1.19488384765625
-0.2163164453125,0.16942958740234376,1.0137538623046876
-0.24525064453125,-0.01585870361328125,0.9916348681640625
-0.35344996093750003,-0.23055783447265624,0.9473968798828125
-0.2698082421875,-0.1259042626953125,0.755944697265625
-0.09061072265625,-0.02713285888671875,0.55982294921875
0.07861787109375,-0.096983603515625,0.47577077148437497
0.0657312109375,-0.1308060693359375,0.5241867919921875
-0.16549923828125,-0.038161923828125,0.6490362255859374
-0.28269490234375,-0.0151234326171875,0.8313950439453125
-0.13607875,-0.1494329345703125,0.9346170166015625
-0.03955037109375,-0.222469853515625,1.08871267578125
-0.1555303125,-0.146001669921875,1.1671122216796874
-0.1866528125,-0.1308060693359375,1.0791277783203126
-0.26907880859375,-0.06683749267578125,1.0471781201171875
-0.34883021484375,0.00791505859375,1.0560257177734376
-0.26324333984375,0.0191892138671875,1.0525849853515625
-0.35344996093750003,0.03462990478515625,1.0280083251953125
-0.3301080859375,-0.10164031982421876,0.76921609375
0.0628134765625,-0.138158779296875,0.6505108251953124
0.090531953125,-0.179333955078125,0.687130048828125
0.055519140625,-0.2406065380859375,0.7193254736328125
0.05722115234375,-0.19673536865234376,0.8073099169921875
0.09490855468750001,-0.11095375244140625,1.1061621044921874
0.0618408984375,-0.1111988427734375,1.3076907177734376
-0.2736985546875,-0.1317864306640625,1.4541676123046874
-0.407428046875,-0.06536695068359374,1.4207433544921875
-0.46164927734375,0.06011929931640625,1.095102607421875
-0.44049570312499997,0.10080429443359375,0.986965302734375
-0.3962433984375,0.11943115966796874,0.9297016845703125
-0.2240970703125,-0.08497417724609375,0.8569547705078124
-0.19905318359375002,-0.0857094482421875,0.7596311962890625
-0.08988128906250001,-0.15997181884765624,0.632078330078125
0.049197382812499996,-0.13056097900390626,0.66796025390625
0.014184570312499999,-0.18595139404296876,0.9065996240234375
-0.04465640625,-0.12149263671875,1.1916888818359375
-0.3126016796875,0.0270321044921875,1.43081978515625
-0.3811684375,0.093206494140625,1.544363955078125
-0.044170117187499996,-0.06267095703125,1.39936166015625
-0.26470220703125,-0.0332601171875,1.504058232421875
-0.41691068359375,0.024581201171875,1.418039921875
-0.5343494921875,-0.08840544189453126,1.0189149609375
-0.419098984375,-0.0690433056640625,0.6868842822265625
-0.36098744140625,-0.0999246875,0.6239680322265625
-0.11103486328125,-0.03987755615234375,0.8382765087890625
-0.02398912109375,-0.1543347412109375,0.974185439453125
-0.1044699609375,-0.02321141357421875,1.058729150390625
-0.12854126953125,0.13340130859375,1.06020375
0.0025136328124999996,0.05521749267578125,1.02186416015625
-0.35126166015625,-0.05262225341796875,1.11427240234375
-0.5362946484375,0.0008074389648437498,0.9955671337890625
-0.428824765625,-0.02713285888671875,0.71514744140625
-0.17765646484375,-0.09281706787109376,0.6755790185546875
-0.19953947265625,-0.14967802490234375,0.7812586572265625
-0.26640421875,-0.1043363134765625,0.8151744482421874
-0.32086859375,-0.15065838623046876,0.923065986328125
-0.21412814453125,-0.20604880126953126,0.93928658203125
-0.05122130859375,-0.08154291259765625,1.05528841796875
-0.1492085546875,-0.2013920849609375,1.1346710302734375
-0.226528515625,-0.06095532470703125,1.2683680615234374
-0.23844259765625,-0.3082514697265625,1.119679267578125
-0.253760703125,-0.24305744140625,0.7212916064453125
-0.0966893359375,-0.106787216796875,0.569162080078125
0.0229377734375,-0.1651187158203125,0.4209648193359375
0.03728330078125,-0.1837455810546875,0.443329580078125
-0.0052669921875,-0.25898831298828123,0.672384052734375
-0.1511537109375,-0.32026089599609375,0.936828916015625
-0.41107521484375,-0.251880693359375,1.0437373876953124
-0.4341739453125,-0.049926259765625,0.997779033203125
-0.2464663671875,0.04100225341796875,0.936828916015625
-0.049519296875,-0.05605351806640625,0.8584293701171875
-0.1219763671875,0.0280124658203125,0.7571735302734375
-0.0179105078125,-0.1327667919921875,0.600128671875
0.117764140625,-0.085219267578125,0.6967149462890625
0.016616015625,0.0397768017578125,0.913235322265625
-0.325731484375,0.026296833496093748,0.92552365234375
-0.13097271484375,-0.077376376953125,0.6632906884765625
0.04263248046875,-0.07075893798828126,0.62077306640625
0.0078628125,-0.144040947265625,0.6578838232421875
-0.22385392578125,-0.140119501953125,0.7736398925781249
-0.26907880859375,0.0348749951171875,0.9070911572265625
-0.37411724609375,0.089285048828125,0.9813126708984374
-0.3033621875,0.17874302001953124,0.8284458447265625
-0.10763083984374999,0.19001717529296874,0.8377849755859375
-0.24670951171875,0.2309472607421875,1.1253318994140624
-0.23357970703125,0.193203349609375,1.12213693359375
-0.03128345703125,0.1079119140625,1.0840431103515624
-0.1200312109375,-0.065612041015625,1.137374462890625
-0.20294349609375,-0.147962392578125,1.0501273193359375
-0.16987583984375,-0.159726728515625,0.8495817724609375
0.02998896484375,-0.07835673828125,0.9311762841796875
-0.15674603515625,-0.053847705078125,1.311377216796875
-0.26470220703125,-0.10727739746093751,1.464735576171875
-0.38092529296875,-0.171491064453125,1.3710985009765624
-0.3446967578125,-0.05311243408203125,1.154086591796875
-0.14069849609375001,-0.0219859619140625,1.021372626953125
0.012239414062499999,-0.0006631030273437505,0.97467697265625
-0.038577792968749997,-0.02125069091796875,1.2899955224609374
-0.037848359375,-0.081297822265625,1.5694321484375
-0.382141015625,-0.02027032958984375,1.6178481689453126
-0.50736044921875,0.08658905517578125,1.347750673828125
-0.43733482421875003,-0.035711020507812496,1.0476696533203125
-0.10957599609375,0.080461796875,1.0464408203125
-0.1851939453125,-0.17908886474609376,1.041033955078125
-0.181789921875,-0.13301188232421876,0.967303974609375
-0.12635296875,-0.10016977783203125,0.7741314257812499
-0.03031087890625,-0.13129625,0.807064150390625
-0.16185207031249998,-0.09134652587890625,1.1209081005859376
-0.39843169921875,-0.1484525732421875,1.4236925537109375
-0.455084375,-0.1611972705078125,1.5062701318359375
-0.30627992187499997,-0.15114856689453124,1.2784444921875
-0.12367837890625,-0.31364345703125,1.278936025390625
-0.08185751953125,-0.295016591796875,1.3288266455078124
-0.300444453125,-0.25506686767578124,1.1641630224609374
-0.41836955078125,-0.17761832275390624,0.8490902392578125
-0.10860341796875,-0.17320669677734374,0.60504400390625
0.0793473046875,0.05423713134765625,0.72104583984375
0.10341861328125,0.11403917236328125,0.956490244140625
-0.1920019921875,0.1270289599609375,1.263206962890625
-0.51027818359375,-0.16340308349609375,1.2762325927734375
-0.1968648828125,-0.33888776123046876,1.12803533203125
-0.05219388671875,-0.10115013916015625,1.0722463134765625
-0.21218298828125,-0.30972201171875,0.864082001953125
-0.3446967578125,-0.2876638818359375,0.8928366943359375
-0.33764556640625,-0.269527197265625,0.8078014501953125
-0.29582470703125,-0.31928053466796874,0.617332333984375
-0.30555048828125,-0.19967645263671874,0.5620348486328125
-0.097175625,-0.0023787353515625003,0.3595231689453125
0.0190474609375,0.0044837939453125,0.30520875000000003
0.05527599609375,0.02286556884765625,0.377464130859375
0.04409134765625,0.0829127001953125,0.6067643701171875
0.023910351562499998,0.18805645263671875,0.8928366943359375
-0.205131796875,0.25496611328125,1.1543323583984375
-0.49568951171875,0.0074248779296875,1.1823497509765626
-0.45435494140625,-0.013407800292968751,0.9397781152343749
-0.15164,0.08903995849609375,0.6399428613281251
-0.02155767578125,0.2191829248046875,0.9120064892578125
-0.17327986328125,0.3037390893554687,1.171781787109375
-0.33083751953125,0.18045865234375,1.3219451806640625
-0.44608802734374997,-0.015368522949218751,1.510939697265625
-0.37119951171875,-0.17075579345703126,1.3037584521484376
-0.23139140625,-0.12418863037109375,0.7389868017578125
-0.09352845703125,-0.15899145751953125,0.513127294921875
0.0676763671875,-0.1308060693359375,0.478719970703125
0.08153560546875,-0.14330567626953125,0.5993913720703125
0.10682263671875,-0.1651187158203125,0.7679872607421875
0.08104931640625,-0.20751934326171875,0.9609140429687499
-0.25497642578125,-0.16095218017578125,1.0149826953125
-0.403537734375,-0.17320669677734374,0.9380577490234375
-0.33861814453125,-0.13350206298828124,0.8844806298828125
-0.105928828125,0.00276816162109375,0.89013326171875
-0.14969484375,-0.10850284912109374,0.609467802734375
-0.131215859375,-0.0175743359375,0.553433017578125
-0.045628984375,-0.02909358154296875,0.525907158203125
-0.09644619140624999,-0.10409122314453124,0.8033776513671875
-0.3709563671875,0.01110123291015625,1.004660498046875
-0.3806821484375,-0.01095689697265625,1.2064348779296874
-0.159420625,-0.08056255126953125,1.4040312255859375
-0.40280830078125,0.010611052246093749,1.2944193212890625
-0.263486484375,-0.139139140625,1.0732293798828125
-0.037362070312499995,-0.130315888671875,0.88030259765625
0.05187197265625,0.0201695751953125,0.890624794921875
-0.0011335351562500005,0.09688284912109375,0.912252255859375
-0.288773515625,0.05913893798828125,0.8441749072265625
-0.28755779296875,-0.0866898095703125,0.658621123046875
-0.01863994140625,-0.14722712158203125,0.6283918310546874
0.16712248046875,-0.15457983154296875,1.0943653076171875
0.14985921875,-0.1680597998046875,1.646602861328125
-0.1827625,-0.29795767578125,1.7412230029296876
-0.34980279296875,0.026051743164062502,1.4654728759765625
-0.38432931640625,-0.10801266845703125,0.8078014501953125
-0.25594900390624997,-0.20776443359375,0.57358587890625
-0.19953947265625,-0.30310457275390623,0.72301197265625
-0.0543821875,-0.015368522949218751,1.0034316650390624
-0.1083602734375,0.1887917236328125,1.2870463232421876
-0.24330548828125,0.2044775048828125,1.2413337353515626
-0.30409162109375,-0.07811164794921875,1.06118681640625
-0.2873146484375,-0.04281864013671875,1.029237158203125
-0.0927990234375,-0.12467881103515625,0.930438984375
-0.0762651953125,-0.0651218603515625,1.0385762890625
-0.11832919921875,0.02482629150390625,1.1840701171874999
-0.23017568359375,0.02972809814453125,1.377242666015625
-0.36487775390625,-0.19403937500000001,1.2609950634765625
-0.3690112109375,-0.100905048828125,1.06511908203125
-0.37654869140625,-0.08595453857421875,0.91765912109375
-0.19832375,-0.15163874755859374,0.873912666015625
0.006647089843749999,-0.17614778076171875,1.080356611328125
-0.05948822265625,-0.20997024658203126,1.3573355712890625
-0.21801845703125,-0.10703230712890625,1.485379970703125
-0.32451576171875,-0.059484782714843754,1.4212348876953125
-0.2386857421875,-0.079337099609375,1.22437583984375
-0.2416034765625,-0.23521455078125,1.0506188525390625
-0.189570546875,-0.02027032958984375,1.0555341845703126
-0.30555048828125,-0.0602200537109375,0.927981318359375
-0.290718671875,-0.22737166015625,0.6804943505859375
-0.06289224609374999,0.04051207275390625,0.757419296875
-0.04295439453125,0.10987263671875,1.062661416015625
-0.29533841796875,-0.05654369873046875,1.2676307617187499
-0.4302836328125,-0.1062970361328125,1.3905140625
-0.46067669921875,-0.052867343750000004,1.11820466796875
-0.26251390625,-0.05017135009765625,0.8026403515625
-0.03955037109375,-0.16438344482421874,0.6942572802734375
-0.14629082031250001,-0.2151171435546875,0.663044921875
-0.10617197265625,-0.2366850927734375,0.6431378271484375
-0.17425244140625,-0.21389169189453125,0.5782554443359375
-0.14264365234375,-0.053847705078125,0.597671005859375
-0.125380390625,0.0466393310546875,0.6962234130859375
-0.17303671874999998,-0.01438816162109375,0.7311222705078125
-0.27491427734375,0.00766996826171875,0.7193254736328125
-0.20002576171875,0.0838930615234375,0.7217831396484375
-0.0344443359375,0.05325677001953125,0.7434106005859376
0.0151571484375,-0.0298288525390625,0.924049052734375
-0.23917203125,0.01208159423828125,1.1248403662109374
-0.44511544921875,-0.16242272216796874,1.1243488330078124
-0.32354318359375,-0.12761989501953125,0.9419900146484375
-0.263486484375,-0.0523771630859375,0.7635634619140625
-0.2211793359375,0.00570924560546875,0.595704873046875
-0.1827625,0.01992448486328125,0.4715927392578125
0.020020039062499998,-0.028358310546875,0.4204732861328125
0.094422265625,-0.08987598388671875,0.45168564453125
0.01685916015625,0.03144373046875,0.5256613916015624
0.006647089843749999,0.07335417724609375,0.53819548828125
-0.15723232421875,0.03536517578125,0.6495277587890624
-0.2503566796875,0.08070688720703124,0.8805483642578125
-0.2931501171875,0.10595119140625,1.205697578125
-0.32500205078125,0.1358522119140625,1.3760138330078124
-0.14604767578125,0.15766525146484375,1.2823767578125
-0.242089765625,0.15423398681640624,1.234698037109375
-0.27272597656249997,0.03757098876953125,1.116730068359375
-0.18081734375,-0.20604880126953126,0.8952943603515625
-0.23017568359375,-0.1798241357421875,0.8240220458984375
-0.2133987109375,-0.23644000244140626,0.735300302734375
0.0579505859375,-0.1180613720703125,0.5708824462890625
0.086641640625,-0.02762303955078125,0.606518603515625
0.10439119140625,-0.008751083984375,0.6981895458984375
-0.00016095703124999888,-0.050661530761718754,0.7773263916015625
-0.034930625,0.15815543212890626,1.2064348779296874
-0.22361078125,0.0922261328125,1.5529657861328126
-0.38919220703125,-0.06193568603515625,1.6635607568359374
-0.4108320703125,0.1799684716796875,1.4748120068359376
-0.3203823046875,0.15864561279296874,1.2049602783203124
-0.206104375,-0.0651218603515625,1.0589749169921876
-0.22093619140625,-0.30114385009765626,1.029237158203125
-0.24427806640625,-0.1611972705078125,0.986965302734375
-0.2007551953125,-0.12222790771484375,0.9252778857421875
0.0093216796875,-0.249919970703125,0.7969877197265625
0.0501699609375,0.03512008544921875,0.9501003125
0.01783173828125,0.13658748291015624,0.9783634716796875
-0.013533906250000002,0.14148928955078124,1.07101748046875
-0.05243703125,-0.073454931640625,1.25386783203125
0.0910182421875,-0.0759058349609375,1.4114042236328124
0.005674511718750001,-0.0925719775390625,1.7544943994140625
-0.23819945312500002,-0.065612041015625,1.7441722021484374
-0.3680386328125,-0.212666240234375,1.3617593701171875
-0.42906791015625,-0.17075579345703126,1.1499085595703125
-0.50590158203125,-0.20849970458984374,1.023338759765625
-0.46942990234375,-0.18938265869140625,0.825742412109375
-0.4643238671875,-0.0337502978515625,0.664519521484375
-0.14264365234375,0.06158984130859375,0.4362023486328125
0.0560054296875,-0.006790361328125,0.42342248535156246
0.11460326171875,0.0162481298828125,0.45512637695312497
0.1532632421875,0.015022678222656249,0.6790197509765625
0.17806398437499998,-0.0332601171875,1.0707717138671875
0.09928515625,-0.283252255859375,1.42492138671875
-0.092312734375,-0.3651124267578125,1.7540028662109375
-0.3194097265625,-0.06267095703125,1.7542486328125
-0.54918130859375,0.1378129345703125,1.58712734375
-0.5644994140625,0.103010107421875,1.175714052734375
-0.4040240234375,0.04149243408203125,0.780521357421875
-0.3660934765625,0.02360083984375,0.5143561279296875
-0.2411171875,-0.04526954345703125,0.23786870117187497
0.12481533203125,-0.0332601171875,0.23123300292968751
0.0667037890625,-0.0386521044921875,0.2420467333984375
0.0774021484375,-0.015368522949218751,0.3128275146484375
0.0774021484375,-0.01046671630859375,0.5920183740234375
-0.07577890625,-0.08227818359375,1.0943653076171875
-0.07213173828125,-0.2337440087890625,1.383141064453125
0.078861015625,-0.2141367822265625,1.6080175048828125
0.0861553515625,-0.03889719482421875,2.0764486474609374
-0.29582470703125,-0.12811007568359375,1.6940358154296875
-0.5148979296875,0.09198104248046875,1.1941465478515625
-0.4045103125,0.0255615625,0.68172318359375
-0.26640421875,-0.0425735498046875,0.478719970703125
-0.03614634765625,-0.076396015625,0.4937117333984375
0.13259595703125,-0.02076051025390625,0.56375521484375
0.0774021484375,0.15913579345703124,0.7822417236328125
-0.035903203125000005,0.24932903564453124,1.0727378466796875
-0.16744439453124998,0.3446691748046875,1.394937861328125
-0.14118478515625,0.06060947998046875,1.565991416015625
-0.24695265625,-0.1749223291015625,1.58221201171875
-0.2736985546875,0.118695888671875,1.0444746875
-0.345183046875,-0.071494208984375,0.6357648291015625
-0.17133470703125,-0.076396015625,0.480686103515625
-0.004780703125000001,0.00570924560546875,0.5123899951171875
0.0774021484375,0.10276501708984374,0.9080742236328125
-0.17619759765625,0.0505607763671875,1.2123332763671875
-0.5353220703125,0.187321181640625,1.43475205078125
-0.657380625,0.1044806494140625,1.287783623046875
-0.37922328125,0.26060319091796874,0.82525087890625
0.13065080078125,0.08119706787109375,0.977134638671875
0.2281517578125,0.02090484619140625,1.19095158203125
0.24201099609374999,-0.053847705078125,1.19291771484375
0.10876779296875,-0.18644157470703124,1.17522251953125
-0.15431458984375,-0.27442900390625,0.9397781152343749
-0.14604767578125,-0.2170778662109375,0.9537868115234375
-0.36925435546875,-0.04036773681640625,1.0307117578125
-0.4536255078125,0.0005623486328125002,1.0778989453125
-0.372415234375,0.03757098876953125,0.868997333984375
-0.008671015625,0.116735166015625,0.8082929833984375
0.16469103515625,0.0319339111328125,0.656654990234375
0.16080072265625,-0.02468195556640625,0.6293748974609374
0.11022666015625,0.03536517578125,0.8879213623046875
0.01005111328125,-0.02713285888671875,1.2587831640625
-0.060947089843749996,-0.23349891845703125,1.590568076171875
-0.0159653515625,-0.3160943603515625,1.8063511523437499
-0.2085358203125,-0.17222633544921875,1.428362119140625
-0.36730919921875,-0.1533543798828125,0.9120064892578125
-0.2552195703125,0.01159141357421875,0.522957958984375
-0.049762441406249996,0.00717978759765625,0.39270166015624997
0.078861015625,-0.1415900439453125,0.343056806640625
0.10974037109375,-0.14085477294921875,0.2449959326171875
0.08493962890625,-0.09624833251953124,0.36124353515624996
-0.008184726562500001,0.1035002880859375,0.64633279296875
-0.179844765625,0.2074185888671875,1.1617053564453126
-0.46942990234375,0.285357314453125,1.8837676318359375
-0.27880458984375,0.05815857666015625,1.998540634765625
0.09806943359375,-0.0161037939453125,1.962167177734375
-0.0363894921875,0.16697868408203126,1.5677117822265625
-0.41593810546875,-0.1038461328125,1.0004824658203124
-0.30895451171875,-0.167569619140625,0.56375521484375
-0.16987583984375,-0.19183356201171875,0.42415978515624997
0.041903046875,-0.139139140625,0.415803720703125
0.1299213671875,-0.03522083984375,0.5438481201171875
0.18122486328125,0.019434304199218752,0.9795923046875
0.14280802734375,0.05325677001953125,1.5131515966796876
-0.382141015625,-0.17173615478515625,1.7436806689453124
-0.6807225,0.04712951171875,1.51929576171875
-0.268349375,0.0044837939453125,0.620281533203125
0.0861553515625,0.01257177490234375,0.3678792333984375
0.13891771484374998,-0.0435539111328125,0.434973515625
0.15374953125,-0.0038492773437499997,0.5698993798828125
0.07035095703125,0.221633828125,1.0481611865234375
0.0034862109374999978,0.11403917236328125,1.4168110888671874
-0.1569891796875,0.1191860693359375,2.1103644384765623
-0.561095390625,-0.216587685546875,2.129718558349609
-0.49714837890625,-0.07958218994140626,1.3838783642578125
-0.347128203125,0.0682072802734375,0.8392595751953125
0.0764295703125,-0.11144393310546875,0.5042796972656249
0.1853583203125,-0.10507158447265624,0.4937117333984375
0.17514625,-0.15212892822265625,0.6770536181640625
-0.04271125,-0.2298225634765625,0.92159138671875
-0.1715778515625,-0.2611941259765625,1.010558896484375
-0.0947441796875,-0.12173772705078124,1.1346710302734375
-0.07407689453124999,0.038306259765625,1.2821309912109375
0.0287732421875,0.042227705078125,1.215036708984375
-0.2746711328125,0.12874459228515625,1.2369099365234375
-0.17182099609375,0.1956542529296875,1.019406494140625
-0.230418828125,0.0103659619140625,0.7817501904296875
-0.034930625,-0.02370159423828125,0.5330343896484375
-0.02009880859375,-0.1288453466796875,0.4937117333984375
-0.005510136718749999,-0.149923115234375,0.6451039599609375
0.006890234374999998,-0.13546278564453124,0.8628531689453125
-0.13778076171875,-0.1945295556640625,1.245020234375
-0.08307324218750001,-0.16683434814453124,1.4418792822265625
-0.011588750000000002,-0.24918469970703125,1.4104211572265626
0.18073857421875,-0.16487362548828124,1.2546051318359375
0.1853583203125,-0.10262068115234375,1.2823767578125
-0.27272597656249997,-0.1013952294921875,1.3538948388671874
-0.29290697265625,0.01649322021484375,1.1302472314453125
-0.30263275390625,0.12433296630859375,0.9124980224609375
-0.03711892578125,0.04100225341796875,0.735300302734375
0.19775869140625,-0.11585555908203125,0.870963466796875
-0.004294414062500002,-0.0759058349609375,1.2113502099609375
-0.44049570312499997,-0.14134495361328125,1.0393135888671874
-0.3670660546875,-0.155805283203125,0.66796025390625
-0.16501294921875,-0.16683434814453124,0.43988884765625
0.0039725,0.00865032958984375,0.501330498046875
-0.019369375,-0.046249904785156254,0.6573922900390625
0.04895423828125,-0.20849970458984374,0.7397241015625
0.13332539062499998,-0.11242429443359375,0.946168046875
0.117764140625,-0.00752563232421875,1.282868291015625
-0.109819140625,-0.0778665576171875,1.6753575537109375
-0.24306234375,0.14516564453125,1.6819932519531249
-0.18470765625,0.1133039013671875,1.2777071923828125
-0.1866528125,0.11305881103515625,0.9523122119140625
-0.31746457031249997,-0.068553125,0.8608870361328125
-0.12708240234375,-0.120512275390625,0.6957318798828125
0.1712559375,-0.03154448486328125,0.8854636962890625
0.11119923828125,-0.0680629443359375,1.181612451171875
-0.26032560546875,0.05374695068359375,1.3327589111328124
-0.26470220703125,-0.07811164794921875,1.054796884765625
-0.1744955859375,-0.09624833251953124,0.6878673486328125
-0.03225603515625,0.03536517578125,0.699909912109375
-0.033714902343750006,0.152028173828125,0.8023945849609375
0.148886640625,-0.037916833496093746,0.8569547705078124
0.1766051171875,-0.17075579345703126,0.9464138134765625
0.02220833984375,-0.23644000244140626,1.0759328125
-0.11832919921875,-0.30751619873046876,1.0815854443359374
-0.037848359375,-0.1641383544921875,1.102967138671875
-0.358799140625,-0.01169216796875,1.2457575341796876
-0.33667298828125003,0.0584036669921875,1.3293181787109374
-0.1754681640625,0.0760501708984375,1.221918173828125
-0.08428896484375001,0.126538779296875,1.0975602734375
0.090531953125,0.1172253466796875,1.05725455078125
-0.02009880859375,0.0530116796875,0.9390408154296875
-0.20926525390625,-0.02076051025390625,0.911269189453125
-0.253760703125,-0.022476142578125,0.8412257080078125
0.11290125,0.028502646484374998,0.77019916015625
0.018561171875,0.052031318359375,0.9945840673828125
-0.1501811328125,0.11698025634765626,1.2555881982421875
-0.14945169921875,-0.19673536865234376,1.205206044921875
-0.17717017578125,-0.3386426708984375,1.1631799560546874
-0.13729447265625,-0.03644629150390625,1.2059433447265624
-0.119544921875,-0.16585398681640626,0.814928681640625
-0.004780703125000001,-0.170510703125,0.698926845703125
0.0394716015625,-0.1195319140625,0.7522581982421875
0.016372871093749998,-0.09428760986328125,1.0009739990234374
-0.32281375,-0.0808076416015625,1.2939277880859374
-0.23844259765625,-0.202862626953125,1.407717724609375
-0.09523046875,-0.1023755908203125,1.3089195507812499
0.01491400390625,0.0927163134765625,1.1543323583984375
0.05527599609375,-0.1430605859375,0.876861865234375
0.08104931640625,-0.29771258544921875,0.782487490234375
-0.19613544921875,-0.24085162841796875,0.80558955078125
-0.20051205078125,-0.06438658935546875,0.7085117431640625
0.08737107421875,-0.11977700439453125,0.849336005859375
0.17976599609375,0.02090484619140625,1.1376202294921876
0.0851827734375,0.02041466552734375,1.41902298828125
-0.12805498046875,-0.1509034765625,1.581720478515625
-0.426879609375,-0.07026875732421875,1.453921845703125
-0.4589746875,-0.098944326171875,1.056271484375
-0.2644590625,-0.177373232421875,0.6092220361328125
-0.12027435546875,-0.1587463671875,0.430549716796875
0.109983515625,-0.00409436767578125,0.4145748876953125
0.1396471484375,0.02923791748046875,0.49641516601562496
0.16858134765625,0.12335260498046875,0.852285205078125
0.193625234375,0.16697868408203126,1.2506728662109374
0.14961607421875,-0.13252170166015625,1.3617593701171875
-0.2912049609375,-0.4415806103515625,1.5274060595703125
-0.44171142578125,-0.0033590966796874996,1.2155282421875
-0.33642984375,0.07825598388671876,0.833606943359375
-0.1511537109375,-0.25114542236328125,0.679265517578125
0.08372390625000001,-0.10016977783203125,0.5595771826171875
-0.10471310546875,0.08511851318359374,1.2705799609375
0.080806171875,0.089285048828125,1.3794545654296875
0.0637860546875,-0.061690595703125004,1.3460303076171876
0.014670859375000001,-0.08987598388671875,1.0378389892578126
-0.14556138671875,-0.1239435400390625,0.938303515625
-0.3344846875,-0.055808427734375,0.808047216796875
-0.34202216796875,0.0231106591796875,0.8048522509765625
-0.308225078125,0.1329111279296875,0.8267254785156251
0.029502675781249998,-0.05090662109375,0.9820499707031249
0.1522906640625,0.0515411376953125,1.2745122265625
-0.0006472460937500014,-0.17271651611328126,1.41115845703125
-0.12367837890625,-0.11193411376953125,1.31875021484375
0.0715666796875,-0.05482806640625,0.9670582080078125
0.045793359374999995,-0.198941181640625,0.758893896484375
-0.2571647265625,-0.06267095703125,0.85474287109375
-0.3690112109375,0.00399361328125,0.893573994140625
-0.18981369140625,0.0309535498046875,0.805098017578125
0.0003253320312500002,0.0838930615234375,0.7940385205078125
0.00956482421875,0.19810515625,0.910286123046875
0.15010236328124998,0.05178622802734375,1.0034316650390624
0.04846794921875,0.12678386962890625,1.1784174853515625
-0.38189787109375,-0.0670825830078125,1.2796733251953125
-0.4108320703125,-0.2957518627929687,1.0869923095703125
-0.28391062499999997,-0.0876701708984375,0.8871840625
-0.07577890625,0.04835496337890625,0.9065996240234375
-0.04392697265625,0.152028173828125,0.9665666748046875
0.02415349609375,-0.047965537109375,1.2231470068359376
0.11095609375,-0.050661530761718754,1.4158280224609374
0.0987988671875,-0.05605351806640625,1.6048225390625
-0.28220861328125,-0.03889719482421875,1.6306280322265625
-0.55064017578125,-0.1572758251953125,1.1644087890625
-0.16695810546875,-0.14232531494140624,0.792318154296875
-0.05632734375,-0.10311086181640625,0.6079932031249999
0.0453070703125,-0.17565760009765624,0.5802215771484375
-0.028122578125000002,-0.18448085205078124,0.7987080859375
-0.074806328125,-0.060710234375,1.1705529541015625
-0.2785614453125,0.040266982421875,1.2619781298828125
-0.1151683203125,0.07825598388671876,0.9808211376953125
-0.13486302734375,0.12482314697265626,1.014491162109375
-0.34785763671875003,0.10962754638671875,0.96288017578125
-0.3889490625,-0.055808427734375,0.807064150390625
-0.067025703125,-0.11046357177734376,0.7065456103515625
0.21818283203125,-0.0866898095703125,1.0683140478515625
0.1323528125,-0.19624518798828125,1.32464861328125
-0.2445212109375,-0.3374172192382813,1.4320486181640626
-0.26275705078125,-0.4239341064453125,1.1828412841796876
-0.098148203125,-0.3219765283203125,0.8338527099609375
-0.199296328125,0.1250682373046875,0.9277355517578125
-0.10714455078125,0.21697711181640625,0.946659580078125
0.11387382812499999,0.08021670654296875,1.0835515771484374
0.07861787109375,-0.16830489013671876,1.2767241259765625
0.11460326171875,-0.1719812451171875,1.2644357958984376
-0.06921400390625,-0.23447927978515626,1.3649543359375
-0.1997826171875,-0.23496946044921874,1.1798920849609376
-0.374360390625,-0.13350206298828124,0.8301662109375
-0.33910443359375,-0.1352176953125,0.7200627734375
-0.2566784375,-0.1979608203125,0.76823302734375
-0.06483740234375,0.061834931640625,0.8038691845703125
-0.07456318359375,0.21256548583984375,0.7783094580078125
0.00810595703125,0.06624655761718751,0.88816712890625
0.04603650390625,-0.13840386962890625,1.0818312109375
-0.1472633984375,-0.08203309326171875,1.369378134765625
-0.12756869140625,0.04933532470703125,1.2836055908203126
-0.21972046875,-0.02027032958984375,1.230765771484375
-0.3719289453125,0.09051050048828126,1.23813876953125
-0.3573402734375,-0.00311400634765625,1.2182316748046875
-0.27272597656249997,-0.0072805419921875,1.4177941552734374
-0.29752671875000003,0.234378525390625,1.5293721923828125
-0.27637314453125,0.12972495361328126,1.111814736328125
-0.144831953125,-0.015368522949218751,0.7630719287109375
-0.24281919921875,-0.08742508056640624,0.671400986328125
-0.15480087890625,-0.1455114892578125,0.4711012060546875
0.07253925781250001,-0.0837487255859375,0.523941025390625
-0.010129882812500001,-0.1974706396484375,0.62765453125
-0.08866556640625001,-0.26879192626953125,0.660587255859375
-0.04684470703125,-0.2668312036132813,0.7296476708984375
0.0511425390625,-0.30555547607421873,1.0407881884765624
0.0560054296875,-0.40800323486328127,1.3529117724609374
-0.14993798828125,-0.14673694091796874,1.302529619140625
-0.32013916015625,0.15864561279296874,1.3322673779296874
-0.1579617578125,0.16256705810546876,1.2624696630859376
-0.18008791015625,0.06624655761718751,1.3411149755859375
-0.20804953125,0.0515411376953125,1.507007431640625
-0.24816837890625,-0.05801424072265625,1.405751591796875
-0.10617197265625,-0.10752248779296875,0.986965302734375
-0.0714023046875,-0.10286577148437501,0.80952181640625
0.0287732421875,-0.22418548583984374,0.7554531640625
0.035095,-0.31682963134765624,1.0806023779296874
-0.21558701171875,-0.18742193603515625,1.3177671484375
-0.0111024609375,-0.273448642578125,0.9444476806640625
-0.1443456640625,-0.006790361328125,0.8105048828125
-0.13948277343749999,0.10962754638671875,0.7281730712890625
0.06937837890625,0.03953171142578125,0.6532142578125
-0.03225603515625,-0.09869923583984375,1.0884669091796875
-0.164283515625,-0.2200189501953125,1.3558609716796874
-0.12562353515625,-0.36584769775390624,1.1803836181640626
-0.1832487890625,-0.27516427490234374,0.8869382958984375
-0.1278118359375,-0.33839758056640623,0.7298934375
-0.1900568359375,-0.27271337158203124,0.72891037109375
-0.21218298828125,-0.01561361328125,0.8065726171875
-0.24184662109375,0.1417343798828125,0.9665666748046875
-0.0782103515625,0.0133070458984375,0.9434646142578125
0.02463978515625,-0.10458140380859375,0.6964691796875
0.13989029296875,-0.19526482666015624,0.733825703125
0.19240951171875,-0.189137568359375,1.076424345703125
0.21818283203125,-0.27369373291015625,1.570906748046875
0.0832376171875,-0.43006136474609374,1.6815017187499999
-0.4487626171875,-0.1288453466796875,1.54092322265625
-0.45386865234375,0.053992041015625,1.15752732421875
-0.41302037109375,0.07580508056640625,0.9562444775390625
-0.24573693359375,0.22947671875,1.0582376171875
-0.02787943359375,0.284376953125,1.095594140625
0.02147890625,0.2547210229492187,1.0267794921875
-0.10617197265625,0.0760501708984375,0.97369390625
-0.1200312109375,-0.02958376220703125,0.96877857421875
-0.0412523828125,-0.11095375244140625,1.1690783544921874
-0.09547361328125001,-0.27246828125,1.1174673681640626
-0.23114826171875,-0.05654369873046875,0.96877857421875
-0.1015522265625,-0.14085477294921875,0.8368019091796874
-0.1141957421875,-0.257762861328125,1.0235845263671874
-0.015479062500000002,-0.00752563232421875,1.217002841796875
-0.07796720703125,0.09933375244140626,1.338903076171875
-0.1258666796875,0.08413815185546875,1.446057314453125
-0.4312562109375,0.0270321044921875,1.4079634912109376
-0.32257060546875,0.0348749951171875,1.0388220556640624
0.03485185546875,-0.2631548486328125,0.8628531689453125
-0.11054857421875,-0.2668312036132813,0.9110234228515625
-0.0645942578125,-0.11340465576171875,0.82721701171875
0.14207859375,-0.10188541015625,0.8333611767578125
0.13502740234375,-0.1043363134765625,0.9395323486328125
0.02172205078125,-0.24624361572265624,1.1223827001953124
-0.2474389453125,-0.1435507666015625,1.2000449462890626
-0.37581925781250003,-0.05090662109375,1.0442289208984374
-0.1287844140625,-0.13644314697265625,0.7149016748046875
-0.005510136718749999,-0.07713128662109375,0.8014115185546875
-0.02107138671875,-0.136198056640625,0.8731753662109375
-0.02544798828125,-0.1268846240234375,1.0181776611328126
0.06111146484375,-0.17908886474609376,1.161951123046875
-0.09547361328125001,-0.18595139404296876,1.476532373046875
-0.26275705078125,-0.165608896484375,1.501109033203125
-0.09109701171875,-0.13742350830078126,1.2595204638671875
-0.12367837890625,0.022620478515625,1.1882481494140624
-0.177899609375,0.0878145068359375,1.16539185546875
-0.0422249609375,0.0740894482421875,1.2206893408203126
-0.10471310546875,0.10472573974609375,1.2442829345703126
-0.0966893359375,-0.059729873046875,1.0122792626953125
0.0861553515625,-0.1092381201171875,0.8363103759765624
0.05065625,-0.1798241357421875,0.8269712451171874
-0.061676523437500005,-0.24477307373046875,0.9877026025390625
-0.13389044921874999,-0.2844777075195313,1.23420650390625
-0.2775888671875,-0.0925719775390625,1.3484879736328126
-0.37922328125,-0.1347275146484375,1.0432458544921874
-0.27005138671875,-0.13252170166015625,0.72497810546875
-0.04441326171875,-0.07909200927734375,0.5222206591796875
0.16955392578125,-0.05556333740234375,0.50280509765625
0.167365625,-0.03448556884765625,0.668451787109375
0.209186484375,0.0387964404296875,1.0948568408203125
-0.06532369140625,-0.21634259521484375,1.3263689794921876
-0.28609892578125,-0.37663167236328127,1.338903076171875
-0.27345541015625,-0.1710008837890625,1.0196522607421874
-0.21510072265625,-0.05801424072265625,0.509195029296875
-0.04733099609375,-0.0631611376953125,0.2912000537109375
0.15496525390625,-0.04968116943359375,0.3393703076171875
0.15253380859375,0.017718671875,0.5566279833984376
0.1299213671875,0.14345001220703124,0.84687833984375
-0.25473328125,0.19197789794921874,1.1617053564453126
-0.4370916796875,0.189281904296875,1.3160467822265625
-0.057543066406249996,0.023845930175781252,1.2791817919921875
0.1620164453125,-0.0023787353515625003,1.344801474609375
0.0881005078125,0.2177123828125,1.3964124609375
0.056978007812499995,0.093206494140625,1.0570087841796876
-0.0704297265625,-0.02370159423828125,0.9604225097656249
-0.18738224609375,0.1035002880859375,1.0201437939453124
-0.30944080078125,0.1760470263671875,1.189968515625
-0.38141158203125003,0.1613416064453125,1.221918173828125
-0.29436583984375,0.2358490673828125,1.15752732421875
-0.13680818359375,0.187321181640625,1.167849521484375
0.08761421875,-0.03497574951171875,1.1808751513671876
0.0579505859375,-0.1259042626953125,1.2069264111328124
-0.14069849609375001,-0.2278618408203125,1.119679267578125
-0.23139140625,-0.280311171875,0.88423486328125
-0.07407689453124999,-0.2631548486328125,0.6755790185546875
0.018318027343749998,-0.26732138427734375,0.9331424169921875
-0.02009880859375,-0.29673222412109374,1.4659644091796875
-0.3019033203125,-0.154824921875,1.62153466796875
-0.18251935546875,-0.19428446533203125,1.12410306640625
-0.1477496875,0.03462990478515625,1.026287958984375
-0.3262177734375,-0.06659240234375,0.865065068359375
-0.2279873828125,-0.177373232421875,0.47331310546875
-0.0067258593750000005,-0.1651187158203125,0.2796490234375
0.10974037109375,-0.116590830078125,0.3442856396484375
0.11946615234374999,-0.09845414550781251,0.5448311865234375
0.17247166015624998,-0.08252327392578125,1.010558896484375
0.12578791015625,-0.1474722119140625,1.712468310546875
-0.18835482421875,-0.36976914306640624,2.0341767919921874
-0.187625390625,0.0574233056640625,1.9154715234375
-0.2552195703125,0.18805645263671875,1.627924599609375
-0.4662690234375,0.095167216796875,1.2619781298828125
-0.3578265625,-0.100905048828125,0.8223016796875
-0.1365650390625,-0.17908886474609376,0.6283918310546874
0.038012734374999996,-0.21879349853515626,0.56375521484375
0.10439119140625,-0.22467566650390625,0.5630179150390625
0.12870564453125,-0.18644157470703124,0.6578838232421875
0.115818984375,-0.170510703125,0.854251337890625
0.111928671875,-0.23447927978515626,1.043983154296875
0.11265810546874999,-0.30065366943359373,1.3081822509765626
-0.01037302734375,-0.14109986328125,1.497176767578125
-0.076751484375,-0.00360418701171875,1.5087277978515625
-0.0052669921875,0.1201664306640625,1.4045227587890625
-0.2367405859375,0.0809519775390625,1.150645859375
-0.273212265625,0.07139345458984375,0.8702261669921875
-0.27515742187500003,0.02237538818359375,0.778555224609375
-0.22531279296875,0.0466393310546875,0.6374851953125
-0.01961251953125,-0.00360418701171875,0.7539785644531249
0.06305662109375,-0.03742665283203125,0.75250396484375
0.086641640625,0.019434304199218752,0.7200627734375
0.1221407421875,0.00399361328125,0.761843095703125
0.0278006640625,-0.0210056005859375,1.0673309814453125
-0.2357680078125,0.061834931640625,1.3558609716796874
-0.11881548828124999,0.203006962890625,1.441141982421875
-0.00842787109375,0.04639424072265625,1.3745392333984374
-0.13875333984375,-0.0798272802734375,1.253376298828125
-0.230418828125,-0.0249270458984375,1.0904330419921875
-0.2649453515625,-0.03056412353515625,0.9203625537109374
-0.2075632421875,0.1005592041015625,1.014491162109375
-0.000890390625000001,0.0172284912109375,1.31973328125
-0.02690685546875,0.02727719482421875,1.7227905078124999
-0.16112263671875,-0.1219828173828125,1.8621401708984375
-0.14702025390625,-0.0464949951171875,1.52716029296875
-0.15334201171875,-0.014633251953124999,1.0083469970703125
-0.10301109375,-0.0229663232421875,0.7738856591796874
-0.0305540234375,-0.128355166015625,0.5748147119140625
0.037526445312500004,-0.2249207568359375,0.5902980078125
-0.06240595703125,-0.2259011181640625,0.744147900390625
-0.00016095703124999888,-0.1955099169921875,0.8672769677734375
-0.0538958984375,-0.15752091552734376,1.0778989453125
-0.08623412109375,-0.24771415771484376,1.1789090185546875
-0.166228671875,-0.3109474633789063,1.1887396826171874
-0.168173828125,-0.08595453857421875,1.244528701171875
-0.07991236328125,-0.0190448779296875,1.2683680615234374
-0.25935302734375,-0.044534272460937496,1.248460966796875
-0.13729447265625,-0.06977857666015624,1.071509013671875
-0.05632734375,-0.17320669677734374,0.9213456201171875
0.0248829296875,-0.1739419677734375,0.765775361328125
-0.05243703125,-0.01634888427734375,0.74857169921875
-0.03711892578125,-0.18938265869140625,0.804114951171875
-0.02593427734375,-0.09869923583984375,0.9523122119140625
0.06208404296875,0.0003172583007812497,1.0732293798828125
0.074970703125,0.07678544189453125,1.1268064990234374
-0.0543821875,0.13658748291015624,1.4895580029296875
-0.08817927734375,0.1956542529296875,1.6901035498046875
-0.294608984375,0.20790876953125,1.7972577880859375
-0.39113736328125,0.20031096923828126,1.8056138525390626
-0.3651208984375,-0.08938580322265625,1.6040852392578124
-0.28804408203125,-0.09330724853515625,1.331530078125
-0.14507509765624998,0.015022678222656249,1.0368559228515626
-0.05219388671875,-0.0013983740234375002,0.7704449267578125
0.0161297265625,-0.10213050048828125,0.6647652880859375
0.004701933593749999,-0.247959248046875,0.78789435546875
-0.07213173828125,-0.2729584619140625,1.0255506591796875
-0.0558410546875,-0.2915853271484375,1.01203349609375
0.003729355468750001,-0.26732138427734375,0.8294289111328125
-0.0558410546875,-0.170510703125,0.6741044189453125
-0.018883085937500002,-0.19869609130859375,0.6910623144531249
-0.0752926171875,-0.106787216796875,0.921099853515625
-0.1920019921875,-0.11193411376953125,1.1115689697265625
-0.1190586328125,-0.13717841796875,1.117713134765625
-0.17473873046875,-0.118551552734375,1.02579642578125
-0.1706052734375,-0.0646316796875,0.8756330322265625
-0.07359060546875,-0.098944326171875,0.7714279931640625
-0.0013766796875,0.03021827880859375,0.94125271484375
-0.105928828125,-0.01830960693359375,0.9936010009765625
0.05065625,-0.0876701708984375,1.04939001953125
0.06208404296875,-0.02321141357421875,1.104933271484375
-0.06580998046875,-0.022476142578125,1.1194335009765626
-0.1637972265625,0.0054641552734375,1.0737209130859375
-0.22385392578125,-0.02664267822265625,0.8348357763671875
-0.12756869140625,-0.02223105224609375,0.772656826171875
-0.063135390625,-0.0631611376953125,0.7021218115234376
-0.13097271484375,-0.12320826904296875,0.7279273046875
-0.04003666015625,-0.045024453125,0.73087650390625
-0.09352845703125,0.0103659619140625,0.8122252490234375
-0.0918264453125,0.10129447509765625,0.8783364648437499
0.04992681640625,0.05889384765625,1.0083469970703125
0.035824433593749996,0.0838930615234375,1.099034873046875
0.0472522265625,0.02923791748046875,1.1228742333984374
0.098312578125,-0.012672529296875,1.1010010058593749
-0.005510136718749999,-0.10752248779296875,1.09461107421875
-0.018883085937500002,-0.02272123291015625,1.113780869140625
-0.011831894531250001,-0.170510703125,1.01203349609375
-0.1813036328125,-0.06781785400390625,1.003677431640625
-0.1550440234375,-0.0464949951171875,0.8707177001953125
-0.24695265625,-0.042328459472656246,0.9129895556640625
-0.228473671875,0.04884514404296875,1.0516019189453125
-0.02885201171875,-0.170510703125,0.906845390625
-0.04100923828125,-0.14330567626953125,0.95304951171875
-0.08380267578125,-0.16046199951171874,1.081339677734375
-0.01815365234375,-0.19526482666015624,1.1975872802734375
-0.10495625,-0.22222476318359374,1.303512685546875
-0.08088494140625,-0.1219828173828125,1.3332504443359374
-0.081614375,-0.120512275390625,1.339886142578125
-0.20683380859375,-0.18497103271484375,1.2548508984375
-0.24233291015625,-0.18399067138671876,1.19390078125
-0.15674603515625,-0.204823349609375,1.0747039794921875
-0.11978806640625,-0.1964902783203125,1.1277895654296874
-0.17571130859375,-0.11561046875,1.1292641650390625
-0.0937716015625,-0.11585555908203125,0.9591936767578125
-0.1248941015625,-0.07615092529296875,0.8235305126953125
-0.07966921874999999,-0.029338671875,0.8301662109375
-0.0932853125,-0.1259042626953125,0.9965502001953125
-0.15869119140625,-0.06659240234375,1.2113502099609375
-0.13194529296875,-0.08963089355468751,1.2295369384765624
-0.17765646484375,-0.10850284912109374,1.2614865966796875
-0.1788721875,-0.08227818359375,1.173747919921875
-0.21607330078125,-0.13546278564453124,1.1386032958984376
-0.143859375,-0.06659240234375,1.14376439453125
-0.18154677734375,-0.04379900146484375,1.0543053515625
-0.09936392578125,-0.10972830078125,1.0132623291015626
0.012968847656250001,-0.096983603515625,1.05135615234375
-0.1472633984375,-0.06879821533203125,1.1440101611328124
-0.16525609375,-0.0710040283203125,1.081339677734375
-0.0840458203125,-0.02149578125,0.92355751953125
-0.02496169921875,0.0059543359375,0.8889044287109376
-0.035903203125000005,-0.12222790771484375,1.0073639306640625
-0.0782103515625,-0.1964902783203125,1.0358728564453126
-0.08866556640625001,-0.2249207568359375,1.0457035205078125
-0.13437673828125,-0.10654212646484375,0.9754142724609375
-0.1861665234375,-0.0621807763671875,0.8377849755859375
-0.10544253906250001,-0.15850127685546875,0.7640549951171876
0.063299765625,-0.08987598388671875,0.7711822265625
-0.01085931640625,-0.11046357177734376,0.81738634765625
-0.0295814453125,-0.16070708984375,0.8048522509765625
0.028286953125,-0.0523771630859375,0.760860029296875
0.027557519531249998,-0.1004148681640625,0.8466325732421875
0.02707123046875,-0.1680597998046875,0.984016103515625
-0.09839134765625,-0.1249239013671875,1.1926719482421875
-0.08672041015625,-0.067572763671875,1.1739936865234375
-0.07261802734375,-0.0396324658203125,0.9881941357421875
-0.0451426953125,0.0152677685546875,0.843929140625
-0.0752926171875,0.01404231689453125,0.8436833740234375
-0.1088465625,-0.050661530761718754,1.0280083251953125
-0.060460800781250004,-0.0239466845703125,1.2015195458984376
-0.14799283203125,-0.013407800292968751,1.2273250390625
-0.1093328515625,-0.01193725830078125,1.1351625634765625
-0.0777240625,-0.07222947998046875,0.9520664453125
-0.0422249609375,-0.0562986083984375,0.8948028271484375
0.02658494140625,-0.09012107421875,0.9867195361328125
-0.03760521484375,-0.1915884716796875,1.0653648486328124
-0.13972591796875,-0.28888933349609375,1.1223827001953124
-0.07188859375000001,-0.22663638916015624,1.0582376171875
-0.09085386718749999,-0.09918941650390625,0.96877857421875
-0.05632734375,-0.03399538818359375,1.0378389892578126
-0.02496169921875,-0.1151202880859375,1.0992806396484376
-0.058272500000000005,-0.12933552734375,1.2265877392578124
-0.0772377734375,-0.0866898095703125,1.2671392285156249
0.0132119921875,-0.130315888671875,1.2634527294921876
-0.15917748046875,-0.10752248779296875,1.3293181787109374
-0.226528515625,-0.238155634765625,1.33251314453125
-0.22531279296875,-0.2219796728515625,1.2187232080078125
-0.21704587890625,-0.17271651611328126,1.0747039794921875
-0.1803310546875,-0.208744794921875,0.985982236328125
-0.1161408984375,-0.0651218603515625,1.0471781201171875
-0.0957167578125,-0.01046671630859375,1.0511103857421875
-0.063135390625,0.048109873046875,1.099034873046875
0.006403945312499999,-0.07517056396484376,1.06708521484375
0.0287732421875,-0.046004814453125,1.062661416015625
0.040930468750000004,-0.18031431640625,1.0304659912109375
-0.060947089843749996,-0.18153976806640626,0.968287041015625
-0.035173769531249996,-0.24281235107421875,0.84687833984375
-0.0621628125,-0.27859553955078126,0.8063268505859374
-0.10203851562499999,-0.25874322265625,1.002694365234375
-0.0957167578125,-0.37908257568359377,1.0427543212890624
-0.18008791015625,-0.33692703857421874,1.072000546875
-0.10763083984374999,-0.16830489013671876,1.016948828125
-0.1248941015625,-0.1415900439453125,0.8682600341796876
-0.082586953125,-0.13644314697265625,0.7576650634765625
-0.02058509765625,-0.06830803466796875,0.804606484375
-0.012561328125,-0.05017135009765625,0.8943112939453125
-0.00891416015625,-0.0474753564453125,0.9813126708984374
-0.02107138671875,-0.01978014892578125,1.00023669921875
0.078861015625,-0.05874951171875,0.9444476806640625
0.06402919921875,0.0064445166015625,1.0029401318359374
-0.057299921875,0.0535018603515625,0.97467697265625
-0.11103486328125,-0.0210056005859375,0.9562444775390625
-0.06337853515625,0.01453249755859375,0.9567360107421875
-0.14799283203125,0.14737145751953126,1.1803836181640626
-0.06240595703125,0.053992041015625,1.406734658203125
-0.032012890625,0.0348749951171875,1.4531845458984374
-0.0383346484375,0.09296140380859375,1.4364724169921874
-0.19759431640625,-0.00654527099609375,1.3622509033203125
-0.2279873828125,-0.06340622802734375,1.1410609619140626
-0.23212083984375,-0.104826494140625,0.9950756005859375
-0.18981369140625,-0.1768830517578125,0.907336923828125
-0.04781728515625,-0.25947849365234377,0.851793671875
0.052115117187500004,-0.2692821069335937,0.7493089990234375
0.076915859375,-0.26879192626953125,0.858183603515625
0.06889208984375,-0.302859482421875,1.0599579833984376
-0.0159653515625,-0.33447613525390624,1.213070576171875
-0.174981875,-0.289134423828125,1.25386783203125
-0.2036729296875,-0.195019736328125,1.1666206884765624
-0.23552486328125,-0.11095375244140625,1.1115689697265625
-0.2289599609375,-0.18031431640625,1.01399962890625
-0.1219763671875,-0.29526168212890624,1.0167030615234376
-0.037848359375,-0.3053103857421875,1.0614325830078124
0.02512607421875,-0.324427431640625,1.009575830078125
0.078861015625,-0.31535908935546875,0.9793465380859375
0.01880431640625,-0.3111925537109375,1.0201437939453124
-0.041738671875,-0.3572695361328125,1.0806023779296874
-0.10228166015625,-0.2572726806640625,1.1604765234375
-0.21655958984375,-0.1641383544921875,1.1494170263671875
-0.24476435546875,-0.12811007568359375,1.1132893359375
-0.22482650390625,-0.11144393310546875,0.9734481396484375
-0.12805498046875,-0.10507158447265624,0.8284458447265625
-0.082586953125,-0.0612004150390625,0.814928681640625
-0.05024873046875,-0.1317864306640625,0.9080742236328125
0.008835390624999998,-0.11291447509765624,1.0130165625
0.04992681640625,-0.1170810107421875,1.1395863623046876
0.065244921875,-0.065612041015625,1.28335982421875
0.10730892578125,-0.0009081933593750001,1.464735576171875
0.0316909765625,0.1103628173828125,1.6453740283203124
-0.12270580078125,-0.151883837890625,1.6955104150390625
-0.1706052734375,-0.0759058349609375,1.4733374072265626
-0.26227076171875,-0.0729647509765625,1.20668064453125
-0.2095083984375,-0.19232374267578126,1.0103131298828125
-0.138996484375,-0.3310448706054687,0.8481071728515625
-0.0035649804687499995,-0.33594667724609373,0.6898334814453125
0.016616015625,-0.295016591796875,0.5753062451171875
0.04944052734375,-0.24771415771484376,0.412854521484375
0.0248829296875,-0.18889247802734374,0.3167597802734375
0.01491400390625,-0.17369687744140624,0.343056806640625
0.01199626953125,-0.19134338134765624,0.3968796923828125
0.040930468750000004,-0.25874322265625,0.6564092236328125
0.067190078125,-0.36780842041015627,0.987948369140625
0.10098716796875,-0.4651092822265625,1.3568440380859375
-0.0013766796875,-0.34575029052734374,1.6753575537109375
-0.0879361328125,-0.045024453125,1.5608303173828124
-0.207076953125,0.05717821533203125,1.304495751953125
-0.22823052734375,0.10717664306640624,1.0491442529296875
-0.1764407421875,0.0593840283203125,0.8658023681640625
-0.05219388671875,0.02752228515625,0.7394783349609375
-0.0665394140625,-0.1273748046875,0.936828916015625
-0.041495527343750005,-0.14820748291015626,1.0604495166015624
-0.03322861328125,-0.208744794921875,1.2902412890625
0.014427714843749998,-0.22761675048828126,1.380191865234375
0.004701933593749999,-0.1592365478515625,1.2649273291015626
-0.03420119140625,-0.09845414550781251,1.048406953125
-0.06872771484375,-0.12516899169921875,0.9680412744140625
-0.1550440234375,-0.16585398681640626,0.995812900390625
-0.21121041015625,-0.17663796142578125,1.0535680517578125
-0.18689595703125,-0.21095060791015624,1.085271943359375
-0.16549923828125,-0.21095060791015624,0.9400238818359374
-0.21364185546875,-0.18546121337890625,0.866048134765625
-0.1783858984375,-0.17271651611328126,0.7746229589843749
-0.13194529296875,-0.09771887451171875,0.75447009765625
-0.04271125,-0.0582593310546875,0.716622041015625
0.025612363281249998,-0.123453359375,0.702367578125
0.0647586328125,-0.13252170166015625,0.7507835986328125
-0.002835546875000001,-0.1219828173828125,0.863098935546875
-0.1317021484375,-0.09183670654296874,0.9360916162109375
-0.14580453125,-0.10360104248046875,0.9166760546875
-0.17182099609375,-0.052867343750000004,1.120662333984375
-0.07359060546875,-0.05899460205078125,1.29319048828125
-0.08234380859375,-0.0680629443359375,1.47997310546875
-0.07966921874999999,-0.1259042626953125,1.500125966796875
-0.16647181640625,-0.20016663330078124,1.406243125
-0.18203306640625,-0.15752091552734376,1.285817490234375
-0.21704587890625,-0.2259011181640625,1.1828412841796876
-0.22361078125,-0.201882265625,1.1676037548828124
-0.08185751953125,-0.22565602783203126,1.1789090185546875
-0.024232265625,-0.2820268041992188,1.0936280078125
0.04506392578125,-0.21977385986328124,0.9547698779296875
0.03485185546875,-0.2504101513671875,0.9297016845703125
0.02026318359375,-0.267566474609375,0.9606682763671874
-0.05219388671875,-0.3013889404296875,1.0904330419921875
-0.0782103515625,-0.29085005615234377,1.1626884228515626
-0.11079171875,-0.251880693359375,1.1833328173828126
-0.1307295703125,-0.240116357421875,1.16539185546875
-0.098148203125,-0.216587685546875,1.1454847607421874
-0.0626491015625,-0.2455083447265625,1.1567900244140625
-0.06240595703125,-0.3160943603515625,1.2037314453125
-0.04830357421875,-0.28741879150390626,1.1931634814453125
-0.089395,-0.2484494287109375,1.2015195458984376
-0.07383375,-0.22859711181640624,1.11034013671875
-0.1044699609375,-0.22908729248046875,1.1073909375
-0.1083602734375,-0.14109986328125,1.1582646240234376
-0.09498732421875,-0.13399224365234375,1.1592476904296876
-0.08355953125,-0.10654212646484375,1.1356540966796875
-0.0850183984375,-0.09845414550781251,1.182103984375
-0.0927990234375,-0.12933552734375,1.1754682861328125
-0.111764296875,-0.08154291259765625,1.1661291552734374
-0.12076064453125,-0.13595296630859374,1.1081282373046875
-0.13607875,-0.07320984130859375,1.1420440283203126
-0.08817927734375,-0.098944326171875,1.1130435693359375
-0.1248941015625,-0.07271966064453125,1.1032129052734374
-0.1326747265625,-0.2062938916015625,1.052830751953125
-0.1890842578125,-0.16193254150390626,0.9999909326171875
-0.19127255859375,-0.15678564453125,0.8800568310546875
-0.17717017578125,-0.20065681396484375,0.7871570556640625
-0.12124693359375,-0.17835359375,0.6421547607421875
-0.07942607421875,-0.11536537841796875,0.572111279296875
0.01005111328125,-0.11928682373046876,0.578992744140625
0.02536921875,-0.15114856689453124,0.7434106005859376
-0.011831894531250001,-0.13105115966796876,0.957473310546875
-0.04465640625,-0.19918627197265626,1.071509013671875
-0.045872128906250004,-0.144040947265625,1.0629071826171874
-0.10519939453125,-0.1317864306640625,0.987948369140625
-0.12416466796875,-0.08889562255859375,1.0031858984375
-0.14580453125,-0.1822750390625,1.068559814453125
-0.1190586328125,-0.28986969482421876,0.9754142724609375
-0.039307226562500006,-0.2685468359375,0.75250396484375
0.039957890625,-0.28496788818359375,0.585874208984375
0.073998125,-0.26879192626953125,0.5590856494140625
0.0856690625,-0.20310771728515625,0.6075016699218749
0.0482248046875,-0.11291447509765624,0.7158847412109375
-0.038577792968749997,-0.042328459472656246,0.8269712451171874
0.01880431640625,-0.029338671875,0.930930517578125
8.218750000000066e-05,0.0250713818359375,1.1014925390624999
-0.13024328125,0.140263837890625,1.27254609375
-0.2513292578125,0.18707609130859376,1.1798920849609376
-0.316005703125,0.13536203125,1.065610615234375
-0.37460353515625,0.09051050048828126,0.9867195361328125
-0.3777644140625,0.06624655761718751,0.9016842919921875
-0.3072525,0.0770305322265625,0.7306307373046875
-0.24865466796875,0.0819323388671875,0.64436666015625
-0.21218298828125,0.020659755859375,0.6308494970703125
-0.2503566796875,-0.0710040283203125,0.69351998046875
-0.29631099609375,-0.00213364501953125,0.828691611328125
-0.1321884375,0.00865032958984375,0.9695158740234375
-0.15820490234375,-0.042328459472656246,1.0516019189453125
-0.16404037109375,0.0012976196289062499,1.0712632470703125
-0.18786853515625002,-0.0798272802734375,1.010558896484375
-0.33764556640625,-0.12811007568359375,1.0565172509765626
-0.422989296875,-0.1817848583984375,1.05135615234375
-0.34737134765625,-0.28741879150390626,0.9252778857421875
-0.286828359375,-0.25359632568359375,0.8028861181640625
-0.1881116796875,-0.20604880126953126,0.7684787939453125
-0.05365275390625,-0.17247142578125,0.8368019091796874
-0.07991236328125,-0.2317832861328125,0.965337841796875
-0.06435111328125,-0.2058037109375,1.0447204541015624
-0.16525609375,-0.18423576171875,1.1562984912109375
-0.21583015625000002,-0.1906081103515625,0.963371708984375
-0.24719580078125,-0.17222633544921875,0.79575888671875
-0.2620276171875,-0.17810850341796874,0.7188339404296875
-0.21558701171875,-0.218548408203125,0.6765620849609375
-0.269321953125,-0.23521455078125,0.73677490234375
-0.2299325390625,-0.233253828125,0.7121982421874999
-0.209022109375,-0.2058037109375,0.634044462890625
-0.2114535546875,-0.19526482666015624,0.6780366845703125
-0.195406015625,-0.15114856689453124,0.82918314453125
-0.23503857421875,-0.12761989501953125,1.028745625
-0.2338228515625,-0.10997339111328125,1.25190169921875
-0.18227621093750002,-0.050661530761718754,1.33251314453125
-0.1399690625,0.0250713818359375,1.35807287109375
-0.14191421875,-0.05801424072265625,1.47210857421875
-0.23357970703125,0.0387964404296875,1.601381806640625
-0.30311904296875003,0.0848734228515625,1.7127140771484375
-0.411318359375,-0.02762303955078125,1.7082902783203124
-0.46359443359375,0.010856142578125,1.6031021728515624
-0.4896108984375,-0.045024453125,1.423446787109375
-0.5158705078125,-0.08399381591796876,1.31875021484375
-0.53313376953125,-0.14698203125,1.3706069677734374
-0.4186126953125,-0.22810693115234376,1.3789630322265625
-0.310170234375,-0.2749191845703125,1.4173026220703124
-0.19078626953125,-0.3423190258789062,1.3956751611328124
-0.142886796875,-0.3778571240234375,1.313343349609375
-0.1365650390625,-0.3955036279296875,1.2668934619140626
-0.22579908203125,-0.41339522216796876,1.236664169921875
-0.304334765625,-0.4474627783203125,1.2108586767578124
-0.38238416015625,-0.40849341552734375,1.1297556982421875
-0.37606240234375,-0.404817060546875,1.0427543212890624
-0.31770771484375,-0.375406220703125,0.923065986328125
-0.2464663671875,-0.36658296875,0.8392595751953125
-0.228473671875,-0.4337377197265625,0.7507835986328125
-0.19856689453125,-0.4337377197265625,0.7350545361328125
-0.16185207031249998,-0.41388540283203124,0.70531677734375
-0.14312994140625,-0.4307966357421875,0.741690234375
-0.14021220703125,-0.45211949462890627,0.7955131201171874
-0.111764296875,-0.5190291552734375,0.8485987060546875
-0.10374052734375,-0.5665766796875,0.91569298828125
-0.138996484375,-0.5829977319335937,0.8962774267578125
-0.187625390625,-0.55481234375,0.9739396728515625
-0.2785614453125,-0.29232059814453126,0.953541044921875
