ax,ay,az
-0.36463460937500003,-0.03203466552734375,0.930930517578125
-0.25594900390624997,-0.03105430419921875,0.9798380712890625
-0.31138595703125,-0.0376717431640625,0.9835245703125
-0.35223423828125,-0.03252484619140625,0.92748978515625
-0.2552195703125,-0.03497574951171875,0.9410069482421874
-0.2678630859375,-0.0935523388671875,0.902421591796875
-0.2698082421875,0.00766996826171875,0.9179048876953125
-0.2347954296875,0.0201695751953125,0.922574453125
-0.31187224609374997,-0.038161923828125,1.011541962890625
-0.2464663671875,-0.0759058349609375,1.07888201171875
-0.28269490234375,-0.07370002197265625,1.090187275390625
-0.32257060546875,-0.1062970361328125,0.9670582080078125
-0.22361078125,-0.1023755908203125,0.86457353515625
-0.20804953125,-0.057278969726562504,0.7920723876953125
-0.2357680078125,-0.05752406005859375,0.8146829150390625
-0.33278267578125,-0.010221625976562499,0.965337841796875
-0.31989601562500003,0.02237538818359375,1.031203291015625
-0.25205869140625,0.038306259765625,0.98450763671875
-0.25862359375,-0.04428918212890625,0.9287186181640625
-0.26761994140625,0.01159141357421875,1.009084296875
-0.24038775390625,-0.02174087158203125,1.02579642578125
-0.300444453125,-0.013162709960937501,0.8810398974609375
-0.21558701171875,-0.15678564453125,0.79575888671875
-0.25497642578125,-0.07443529296875,0.8638362353515625
-0.3019033203125,-0.012672529296875,0.8653108349609375
-0.2600824609375,-0.028113220214843748,0.944693447265625
-0.33959072265625,-0.04698517578125,0.96288017578125
-0.2484115234375,-0.0553182470703125,0.967303974609375
-0.23503857421875,0.032424091796875,1.0171945947265626
-0.34931650390625,-0.057769150390625,0.9650920751953125
-0.1944334375,-0.04723026611328125,0.9783634716796875
-0.33910443359375,-0.06487677001953125,0.914709921875
-0.26518849609375,-0.0759058349609375,0.944693447265625
-0.37338781249999997,-0.0513968017578125,1.0034316650390624
-0.25011353515625,-0.01487834228515625,1.0604495166015624
-0.269321953125,-0.055808427734375,0.9631259423828125
-0.333512109375,-0.063651318359375,0.8852179296875
-0.22628537109375,-0.08693489990234375,0.8790737646484375
-0.33715927734375,-0.046004814453125,0.987948369140625
-0.27296912109375,-0.0327699365234375,1.07888201171875
-0.33035123046875,-0.04723026611328125,1.0068723974609375
-0.3505322265625,0.02090484619140625,1.0226014599609374
-0.37217208984375,-0.07468038330078125,0.9756600390625
-0.3378887109375,-0.053847705078125,0.90586232421875
-0.21315556640625,-0.06144550537109375,0.8785822314453124
-0.310170234375,-0.0719843896484375,0.854251337890625
-0.25400384765625,-0.0474753564453125,0.9469053466796875
-0.31819400390625,-0.11634573974609375,1.0049062646484375
-0.448276328125,0.04712951171875,1.0228472265625
-0.21266927734375,0.00816014892578125,0.9822957373046874
-0.24768208984375,-0.028358310546875,1.027271025390625
-0.405482890625,-0.03644629150390625,1.0206353271484374
-0.29752671875000003,-0.06193568603515625,0.9992536328125
-0.31089966796875,-0.0464949951171875,0.9402696484374999
-0.33618669921875,-0.0817880029296875,0.9670582080078125
-0.28998923828125,-0.09404251953125001,1.0088385302734375
-0.33667298828125003,-0.06389640869140625,1.0324321240234375
-0.314060546875,-0.06046514404296875,1.041033955078125
-0.3077387890625,-0.045024453125,0.9646005419921875
-0.28220861328125,-0.08423890625,0.9852449365234375
-0.2464663671875,-0.0670825830078125,1.056271484375
-0.33764556640625,-0.04698517578125,1.092153408203125
-0.23649744140625,-0.0955130615234375,1.0425085546875
-0.33132380859375,-0.0719843896484375,1.0535680517578125
-0.30360533203125,-0.0092412646484375,1.0909245751953125
-0.3019033203125,-0.10164031982421876,1.0840431103515624
-0.3126016796875,-0.0803174609375,1.131476064453125
-0.345183046875,-0.05556333740234375,1.0582376171875
-0.26056875,0.01747358154296875,0.9655836083984375
-0.21510072265625,-0.02174087158203125,0.9921264013671875
-0.31381740234375,-0.048945898437499996,1.0756870458984376
-0.29387955078125,-0.1268846240234375,1.14671359375
-0.26324333984375,-0.2013920849609375,1.0520934521484375
-0.26640421875,-0.07762146728515625,0.9660751416015625
-0.33642984375,-0.09232688720703125,0.9007012255859375
-0.22701480468750002,-0.06095532470703125,0.91077765625
-0.228473671875,-0.0038492773437499997,1.119679267578125
-0.41691068359375,-0.0464949951171875,1.19684998046875
-0.288773515625,-0.11193411376953125,1.178663251953125
-0.2931501171875,-0.00801581298828125,1.08871267578125
-0.29874244140625,-0.1415900439453125,0.9609140429687499
-0.29096181640625,-0.057278969726562504,1.02186416015625
-0.33424154296874997,-0.03914228515625,0.9940925341796875
-0.3495596484375,-0.15114856689453124,0.8903790283203125
-0.205131796875,-0.0935523388671875,0.871946533203125
-0.253760703125,-0.07051384765625,1.03366095703125
-0.31430369140625003,-0.022476142578125,1.1882481494140624
-0.3223274609375,-0.1023755908203125,1.1272980322265624
-0.27685943359375,-0.0200252392578125,1.0919076416015625
-0.3111428125,-0.11438501708984375,0.9591936767578125
-0.31284482421875,-0.114630107421875,0.923065986328125
-0.1968648828125,-0.09722869384765626,0.966320908203125
-0.27637314453125,-0.0955130615234375,0.9444476806640625
-0.28561263671875,-0.11046357177734376,0.916184521484375
-0.28998923828125,-0.08963089355468751,0.9262609521484375
-0.28269490234375,-0.132276611328125,0.915201455078125
-0.2231244921875,-0.0210056005859375,1.0425085546875
-0.20634751953125,-0.08423890625,1.122628466796875
-0.4283384765625,-0.01634888427734375,1.1184504345703126
-0.37265837890625,0.00987578125,1.0402966552734374
-0.26761994140625,-0.08105273193359375,0.8943112939453125
-0.25254498046875,0.011346323242187501,0.8107506494140625
-0.21266927734375,-0.0455146337890625,0.7298934375
-0.15431458984375,-0.13325697265625,0.74070716796875
-0.2630001953125,-0.08497417724609375,0.8225474462890625
-0.41010263671875,-0.08423890625,0.943710380859375
-0.39600025390625,-0.1906081103515625,0.9621428759765625
-0.268349375,-0.091101435546875,0.99237216796875
-0.224583359375,0.069677822265625,0.9881941357421875
-0.20415921875,0.0008074389648437498,0.8476156396484374
-0.177899609375,-0.05997496337890625,0.813945615234375
-0.327676640625,0.02752228515625,0.9562444775390625
-0.38141158203125003,-0.09085634521484375,1.08084814453125
-0.31430369140625003,-0.159726728515625,1.2595204638671875
-0.28366748046875,-0.0332601171875,1.2624696630859376
-0.34226531250000003,-0.13791368896484374,1.00416896484375
-0.1735230078125,-0.1430605859375,0.769707626953125
-0.255705859375,-0.11732610107421874,0.7679872607421875
-0.389921640625,-0.05850442138671875,0.850319072265625
-0.29874244140625,0.01404231689453125,0.9724650732421874
-0.27029453125,-0.042328459472656246,1.0820769775390624
-0.2824517578125,-0.10115013916015625,1.014491162109375
-0.19370400390625,-0.1200220947265625,0.91569298828125
-0.24087404296875,-0.12369844970703125,0.844420673828125
-0.327676640625,-0.120512275390625,0.8333611767578125
-0.338375,-0.08644471923828125,0.820827080078125
-0.292663828125,-0.02149578125,0.9444476806640625
-0.4045103125,-0.0700236669921875,0.9980247998046875
-0.290718671875,-0.1273748046875,0.9626344091796875
-0.27418484375,-0.110708662109375,0.889641728515625
-0.28196546875,-0.09183670654296874,0.8623616357421875
-0.23552486328125,-0.1494329345703125,0.85081060546875
-0.29144810546875,-0.12418863037109375,0.9311762841796875
-0.33667298828125003,-0.0567887890625,0.9065996240234375
-0.2260422265625,-0.09183670654296874,0.8274627783203125
-0.3057936328125,-0.07517056396484376,0.8697346337890625
-0.22288134765625,-0.069533486328125,0.9046334912109375
-0.25497642578125,-0.1062970361328125,0.9582106103515625
-0.43174250000000003,-0.07026875732421875,0.954524111328125
-0.23649744140625,-0.122472998046875,0.9193794873046874
-0.38311359375,-0.08840544189453126,0.915201455078125
-0.3223274609375,-0.1298257080078125,0.90389619140625
-0.18689595703125,-0.08056255126953125,0.93437125
-0.3184371484375,-0.10409122314453124,1.0073639306640625
-0.32281375,-0.18301031005859375,1.008592763671875
-0.17692703125,-0.06144550537109375,1.00416896484375
-0.3485870703125,-0.14134495361328125,0.9370746826171875
-0.2805066015625,-0.1759026904296875,0.8667854345703125
-0.24695265625,-0.12467881103515625,0.8957858935546875
-0.27442798828125,-0.16634416748046876,0.927981318359375
-0.38676076171875,-0.10972830078125,0.97369390625
-0.36366203125,-0.11046357177734376,1.016948828125
-0.3033621875,-0.1455114892578125,0.97860923828125
-0.36390517578125,0.0064445166015625,0.9110234228515625
-0.2425760546875,-0.1141399267578125,0.930438984375
-0.2722396875,-0.12467881103515625,0.9277355517578125
-0.33083751953125,-0.136198056640625,0.95796484375
-0.26154132812499997,-0.1543347412109375,1.0034316650390624
-0.2873146484375,-0.0857094482421875,1.0491442529296875
-0.310170234375,-0.17173615478515625,0.979100771484375
-0.25351755859375,-0.151883837890625,0.94125271484375
-0.3038484765625,-0.116590830078125,0.9599309765625
-0.3028758984375,-0.1357078759765625,1.0314490576171875
-0.41399294921875,-0.1273748046875,1.028745625
-0.3349709765625,-0.07835673828125,0.997779033203125
-0.25157240234375,-0.08423890625,0.954524111328125
-0.33667298828125003,-0.08227818359375,0.9616513427734374
-0.2542469921875,-0.10311086181640625,0.9680412744140625
-0.16063634765625,-0.0562986083984375,0.99630443359375
-0.37654869140625,-0.1092381201171875,1.0162115283203126
-0.26372962890625,-0.11095375244140625,1.0324321240234375
-0.34493990234375,-0.09232688720703125,0.9975332666015625
-0.35393625,-0.16095218017578125,1.00416896484375
-0.24816837890625,-0.1298257080078125,0.9719735400390626
-0.31770771484375,-0.128355166015625,0.95304951171875
-0.3500459375,-0.112669384765625,1.0594664501953126
-0.2659179296875,-0.1660990771484375,0.9714820068359376
-0.34032015625,-0.08938580322265625,0.923065986328125
-0.18251935546875,-0.08227818359375,0.948625712890625
-0.329621796875,-0.08497417724609375,0.97467697265625
-0.26956509765625,-0.2141367822265625,1.0343982568359376
-0.337402421875,-0.16977543212890625,1.118696201171875
-0.44462916015625,-0.02149578125,1.079373544921875
-0.20975154296875,-0.193059013671875,0.9048792578125
-0.237226875,-0.05850442138671875,0.8952943603515625
-0.2873146484375,-0.05703387939453125,0.95304951171875
-0.26251390625,-0.206784072265625,1.0211268603515624
-0.3656071875,-0.1102184814453125,1.0329236572265625
-0.31770771484375,-0.13007079833984375,0.930930517578125
-0.1842213671875,-0.10409122314453124,0.8751414990234375
-0.32281375,-0.14820748291015626,0.9677955078125
-0.33253953125,-0.05360261474609375,1.0820769775390624
-0.23309341796875,-0.14698203125,1.0565172509765626
-0.3466419140625,-0.09575815185546875,1.1243488330078124
-0.32548833984375003,-0.0371815625,1.1073909375
-0.2542469921875,-0.14526639892578125,0.9031588916015625
-0.18349193359375,-0.0621807763671875,0.825742412109375
-0.31478998046875,-0.08693489990234375,0.8476156396484374
-0.2746711328125,-0.07860182861328124,0.98942296875
-0.397702265625,-0.147962392578125,1.0049062646484375
-0.25886673828125,-0.14526639892578125,0.981066904296875
-0.28123603515625,-0.0366913818359375,0.9577190771484375
-0.2523018359375,-0.13840386962890625,0.8564632373046875
-0.2843969140625,-0.118551552734375,0.93437125
-0.27807515625,-0.1033559521484375,0.9975332666015625
-0.38481560546875,-0.0803174609375,1.073475146484375
-0.2659179296875,-0.1102184814453125,1.0629071826171874
-0.38384302734375,-0.1190417333984375,0.938795048828125
-0.27637314453125,-0.0151234326171875,0.9080742236328125
-0.29728357421875,-0.093062158203125,0.8294289111328125
-0.33521412109375,-0.12933552734375,0.93338818359375
-0.339347578125,-0.0827683642578125,0.9449392138671875
-0.228473671875,-0.1352176953125,0.9449392138671875
-0.32597462890625,-0.17614778076171875,0.9609140429687499
-0.33667298828125003,-0.047965537109375,1.06118681640625
-0.30871136718750003,-0.08423890625,1.0629071826171874
-0.39405509765625,-0.07517056396484376,1.0550426513671876
-0.29533841796875,-0.068553125,0.9582106103515625
-0.32864921874999997,-0.11732610107421874,0.8869382958984375
-0.33108066406250003,-0.136198056640625,0.89406552734375
-0.3388612890625,-0.08595453857421875,0.9208540869140625
-0.300444453125,-0.20849970458984374,0.9488714794921875
-0.27199654296875,-0.1759026904296875,1.065610615234375
-0.36536404296875,-0.11634573974609375,1.1086197705078125
-0.28318119140625,-0.187176845703125,0.932896650390625
-0.24719580078125,-0.14036459228515624,0.80853875
-0.24427806640625,-0.136198056640625,0.804606484375
-0.3048210546875,-0.03644629150390625,0.9149556884765625
-0.22482650390625,-0.12075736572265625,0.992863701171875
-0.35320681640625,-0.11487519775390626,1.081339677734375
-0.34396732421875,-0.0582593310546875,0.9449392138671875
-0.21996361328125,-0.16193254150390626,0.8530225048828125
-0.2892598046875,-0.0955130615234375,0.860149736328125
-0.3135742578125,-0.123453359375,0.938303515625
-0.28804408203125,-0.18423576171875,0.976151572265625
-0.29582470703125,-0.138158779296875,0.964354775390625
-0.29582470703125,-0.14281549560546875,0.8869382958984375
-0.25692158203125,-0.14379585693359376,0.8930824609375
-0.26713365234374997,-0.08007237060546875,0.920116787109375
-0.29387955078125,-0.0768861962890625,1.016948828125
-0.265431640625,-0.0700236669921875,1.0766701123046876
-0.3369161328125,-0.142080224609375,0.998762099609375
-0.30068759765624997,-0.07664110595703125,1.012525029296875
-0.31673513671875,-0.100905048828125,1.0127707958984375
-0.399647421875,-0.17663796142578125,0.9257694189453125
-0.24914095703125,-0.11291447509765624,0.9768888720703125
-0.3028758984375,-0.09869923583984375,1.0385762890625
-0.46091984375,-0.13717841796875,0.9955671337890625
-0.177899609375,-0.0739451123046875,1.0575003173828126
-0.28074974609375003,-0.1700205224609375,1.1258234326171874
-0.4001337109375,0.0010525292968750002,1.134916796875
-0.3111428125,-0.10654212646484375,0.999745166015625
-0.19248828125,-0.28349734619140626,0.93732044921875
-0.2289599609375,-0.269527197265625,0.8122252490234375
-0.1881116796875,-0.1955099169921875,0.8102591162109375
-0.29485212890625,-0.2820268041992188,0.927981318359375
-0.3116291015625,-0.2464887060546875,1.0378389892578126
-0.36050115234375,-0.1582561865234375,1.02383029296875
-0.31041337890625,-0.1631579931640625,0.938795048828125
-0.2800203125,0.02874773681640625,1.0309575244140625
-0.37071322265625,0.00987578125,1.0363643896484376
-0.24306234375,-0.0254172265625,0.98450763671875
-0.2532744140625,-0.01634888427734375,0.9407611816406249
-0.183735078125,-0.06438658935546875,1.056763017578125
-0.356853984375,-0.12811007568359375,1.106899404296875
-0.42371873046874997,-0.13154134033203124,1.0759328125
-0.37800755859375,-0.16095218017578125,1.004660498046875
-0.39648654296875,-0.16340308349609375,0.866048134765625
-0.20488865234375,-0.23987126708984374,0.845403740234375
-0.346155625,-0.15457983154296875,0.937811982421875
-0.35758341796875,-0.19232374267578126,1.072492080078125
-0.37460353515625,-0.1278649853515625,1.111814736328125
-0.421044140625,-0.0827683642578125,1.038084755859375
-0.3242726171875,-0.06389640869140625,0.9365831494140625
-0.2099946875,-0.06634731201171876,0.865065068359375
-0.29971501953125,-0.02762303955078125,0.9051250244140625
-0.28415376953125,-0.1033559521484375,0.9970417333984375
-0.3344846875,-0.08399381591796876,0.98450763671875
-0.267376796875,-0.05360261474609375,1.0191607275390624
-0.42469130859375,-0.0013983740234375002,0.932896650390625
-0.08866556640625001,-0.11977700439453125,0.902421591796875
-0.1550440234375,-0.08546435791015625,1.004660498046875
-0.4935012109375,-0.15163874755859374,1.1548238916015625
-0.4847480078125,-0.09673851318359375,1.066593681640625
-0.1949197265625,-0.18448085205078124,0.9397781152343749
-0.1477496875,-0.22908729248046875,0.8756330322265625
-0.30798193359375,-0.112669384765625,0.9877026025390625
-0.2425760546875,-0.1180613720703125,1.2393676025390625
-0.37144265625,0.0294830078125,1.3020380859375
-0.30214646484375,-0.00213364501953125,1.117713134765625
-0.21169669921875,-0.1170810107421875,1.03562708984375
-0.232363984375,-0.1455114892578125,1.02088109375
-0.23309341796875,-0.044534272460937496,1.09854333984375
-0.3038484765625,-0.08497417724609375,1.0766701123046876
-0.292663828125,-0.03497574951171875,1.049881552734375
-0.38530189453125,-0.1033559521484375,1.0791277783203126
-0.41447923828125,-0.23791054443359375,1.146222060546875
-0.330594375,-0.195019736328125,1.062661416015625
-0.2503566796875,-0.234234189453125,0.9813126708984374
-0.2902323828125,-0.06659240234375,0.915201455078125
-0.3135742578125,-0.07419020263671874,0.896523193359375
-0.25789416015625,-0.11193411376953125,0.9926179345703126
-0.40937320312500003,-0.1278649853515625,1.0565172509765626
-0.25059982421875,-0.112669384765625,1.0270252587890625
-0.1997826171875,-0.06389640869140625,0.9218371533203125
-0.2800203125,-0.03203466552734375,0.9090572900390625
-0.19637859375,0.017718671875,0.934862783203125
-0.24719580078125,-0.13448242431640625,0.8830060302734375
-0.27151025390625,-0.07468038330078125,1.01596576171875
-0.24427806640625,-0.07320984130859375,1.0673309814453125
-0.3500459375,-0.18742193603515625,0.995812900390625
-0.35320681640625,-0.0749254736328125,0.9587021435546875
-0.3223274609375,-0.050661530761718754,0.9650920751953125
-0.39016478515624997,-0.08791526123046875,0.9129895556640625
-0.3116291015625,-0.00948635498046875,0.9638632421875
-0.26032560546875,-0.10605194580078126,0.94911724609375
-0.31576255859375,-0.10752248779296875,0.906845390625
-0.2299325390625,-0.042083369140625,0.925032119140625
-0.23601115234375,-0.167569619140625,0.852285205078125
-0.2717533984375,-0.1278649853515625,0.84097994140625
-0.2989855859375,-0.04821062744140625,0.88030259765625
-0.25862359375,-0.14428603759765624,0.8520394384765625
-0.35709712890625,-0.0567887890625,0.9048792578125
-0.330594375,-0.0513968017578125,0.896523193359375
-0.25400384765625,-0.170510703125,0.829674677734375
-0.3894353515625,-0.01095689697265625,0.8891501953125
-0.2843969140625,-0.1278649853515625,0.8903790283203125
-0.2902323828125,-0.1366882373046875,0.975168505859375
-0.30263275390625,-0.0435539111328125,1.0388220556640624
-0.21972046875,-0.07664110595703125,1.0294829248046875
-0.29776986328125,-0.052867343750000004,1.00515203125
-0.23649744140625,-0.06536695068359374,0.993355234375
-0.207076953125,0.0015427099609375003,1.020389560546875
-0.2523018359375,-0.04134809814453125,1.0149826953125
-0.3446967578125,-0.0553182470703125,0.98254150390625
-0.31965287109375,-0.04330882080078125,0.9655836083984375
-0.3777644140625,-0.11634573974609375,0.8301662109375
-0.15917748046875,0.014777587890624999,0.8078014501953125
-0.35028908203125,-0.04428918212890625,0.8702261669921875
-0.34032015625,-0.1239435400390625,1.0299744580078125
-0.30506419921875,-0.053847705078125,1.0987891064453126
-0.39794541015625,-0.10556176513671875,1.028254091796875
-0.3096839453125,-0.130315888671875,0.964354775390625
-0.26032560546875,-0.10213050048828125,0.8785822314453124
-0.2717533984375,-0.07370002197265625,0.8633447021484375
-0.20464550781250002,-0.05801424072265625,0.9007012255859375
-0.2260422265625,-0.03350520751953125,0.9700074072265625
-0.33253953125,-0.05654369873046875,1.03759322265625
-0.3592854296875,-0.05556333740234375,1.09264494140625
-0.34883021484375,-0.0435539111328125,1.0294829248046875
-0.30555048828125,-0.09232688720703125,1.001219765625
-0.39575710937499997,-0.09183670654296874,1.05725455078125
-0.31041337890625,-0.0964934228515625,1.082322744140625
-0.31235853515625,-0.10654212646484375,1.0543053515625
-0.389921640625,-0.15899145751953125,0.957473310546875
-0.15139685546875,-0.04919098876953125,0.94223578125
-0.300444453125,-0.025662316894531252,0.910286123046875
-0.24233291015625,-0.0945327001953125,0.97664310546875
-0.25546271484375,0.0103659619140625,1.015474228515625
-0.3203823046875,-0.0180645166015625,1.0319405908203125
-0.24427806640625,-0.0317895751953125,1.038084755859375
-0.3189234375,-0.03129939453125,1.0437373876953124
-0.3009307421875,-0.05850442138671875,1.0201437939453124
-0.2931501171875,-0.104826494140625,0.993355234375
-0.37557611328125,-0.071494208984375,1.077407412109375
-0.35904228515625003,-0.12761989501953125,1.0250591259765625
-0.35977171875,-0.09428760986328125,0.9252778857421875
-0.3466419140625,-0.07075893798828126,0.8250051123046875
-0.236254296875,-0.09404251953125001,0.718588173828125
-0.16647181640625,-0.0646316796875,0.7920723876953125
-0.2328502734375,-0.075415654296875,0.9950756005859375
-0.34202216796875,-0.06659240234375,1.1368829296875
-0.2960678515625,-0.057769150390625,1.1290183984375
-0.2717533984375,0.0250713818359375,1.072000546875
-0.27831830078124997,-0.01978014892578125,1.01399962890625
-0.354908828125,-0.0788469189453125,1.0555341845703126
-0.34542619140624997,0.02237538818359375,1.0624156494140624
-0.33278267578125,-0.03105430419921875,0.9992536328125
-0.362689453125,0.015022678222656249,0.94125271484375
-0.257651015625,0.00178780029296875,0.892590927734375
-0.33521412109375,-0.15310928955078124,0.883251796875
-0.2367405859375,-0.055808427734375,0.98057537109375
-0.3019033203125,-0.096983603515625,1.0196522607421874
-0.22750109375,-0.08938580322265625,1.0393135888671874
-0.22288134765625,-0.008751083984375,1.0117877294921875
-0.26859251953125,-0.0803174609375,0.9980247998046875
-0.31916658203125,-0.0175743359375,1.0137538623046876
-0.2630001953125,-0.06536695068359374,1.0275167919921875
-0.3748466796875,0.0059543359375,0.990897568359375
-0.28512634765625,-0.09771887451171875,0.909303056640625
-0.27977716796875,-0.006790361328125,0.9385492822265625
-0.302389609375,-0.0268877685546875,0.9007012255859375
-0.27807515625,-0.03497574951171875,0.8554801708984375
-0.28123603515625,-0.0063001806640625,0.8633447021484375
-0.2532744140625,-0.05115171142578125,0.8746499658203125
-0.24914095703125,-0.07958218994140626,0.985982236328125
-0.279047734375,-0.10286577148437501,1.0149826953125
-0.24476435546875,-0.02174087158203125,0.9999909326171875
-0.27515742187500003,-0.07419020263671874,0.9370746826171875
-0.28804408203125,0.01404231689453125,0.9262609521484375
-0.22288134765625,0.07188363525390624,0.988931435546875
-0.36585033203125,-0.01953505859375,1.0152284619140626
-0.35588140625,0.0789912548828125,1.09854333984375
-0.31138595703125,0.065756376953125,1.02776255859375
-0.2736985546875,-0.01561361328125,0.8928366943359375
-0.28974609375,0.06600146728515625,0.96484630859375
-0.37752126953125,-0.01879978759765625,0.99237216796875
-0.2668905078125,0.06011929931640625,0.977626171875
-0.3145468359375,0.0037485229492187503,0.931913583984375
-0.19346085937500002,-0.0602200537109375,0.9677955078125
-0.3126016796875,-0.02321141357421875,1.001219765625
-0.26324333984375,-0.0406128271484375,1.044966220703125
-0.31381740234375,-0.11193411376953125,0.8417172412109375
-0.19175884765625,-0.04968116943359375,0.8262339453125
-0.28415376953125,-0.0406128271484375,0.8230389794921875
-0.23844259765625,-0.0504164404296875,0.859166669921875
-0.29874244140625,0.0329142724609375,0.9916348681640625
-0.35977171875,0.01208159423828125,1.0250591259765625
-0.296554140625,0.00619942626953125,0.99237216796875
-0.2814791796875,0.03928662109375,1.009575830078125
-0.2722396875,-0.05997496337890625,0.96877857421875
-0.2318776953125,-0.0411030078125,0.9793465380859375
-0.247925234375,-0.00605509033203125,0.90193005859375
-0.24670951171875,-0.063651318359375,0.851302138671875
-0.24525064453125,-0.0347306591796875,0.9559987109375
-0.3466419140625,0.073599267578125,0.9798380712890625
-0.294608984375,0.05962911865234375,0.8987350927734374
-0.20829267578125,0.10227483642578125,0.892590927734375
-0.23941517578125,0.026296833496093748,0.9614055761718749
-0.35126166015625,0.015022678222656249,1.0267794921875
-0.29922873046875,0.0255615625,1.063644482421875
-0.37338781249999997,-0.00262382568359375,0.9886856689453125
-0.15431458984375,0.10962754638671875,1.105916337890625
-0.299471875,0.063795654296875,1.2187232080078125
-0.4614061328125,0.0397768017578125,1.2076637109375
-0.4837754296875,0.028502646484374998,1.15752732421875
-0.32986494140625,-0.08619962890625,0.990897568359375
-0.230418828125,-0.15114856689453124,0.7026133447265624
-0.137051328125,-0.08227818359375,0.518042626953125
-0.1744955859375,-0.151883837890625,0.446278779296875
-0.15139685546875,-0.18252012939453124,0.5286105908203125
-0.1890842578125,0.0250713818359375,0.8328696435546875
-0.35466568359375,-0.015368522949218751,1.182595517578125
-0.44657431640625,0.10276501708984374,1.512905830078125
-0.568876015625,0.23756469970703126,1.4576083447265624
-0.42080099609375,0.1231075146484375,1.2029941455078126
-0.3057936328125,0.04590406005859375,0.9994993994140625
-0.2571647265625,-0.0435539111328125,0.773148359375
-0.1744955859375,-0.036201201171875,0.7134270751953125
-0.17668388671875,0.00619942626953125,0.660587255859375
-0.2017277734375,0.0003172583007812497,0.7534870312499999
-0.3524773828125,0.020659755859375,0.969761640625
-0.40572603515625,0.06796218994140625,1.1762055859375
-0.38967849609375,0.06845237060546874,1.2349438037109375
-0.4040240234375,0.1113431787109375,1.179646318359375
-0.3213548828125,0.05129604736328125,1.0398051220703124
-0.191515703125,-0.02027032958984375,0.9916348681640625
-0.36925435546875,0.0280124658203125,1.0555341845703126
-0.34931650390625,-0.03987755615234375,1.066593681640625
-0.25643529296875,0.0789912548828125,1.0137538623046876
-0.38457246093749997,0.01110123291015625,0.872929599609375
-0.2056180859375,0.03462990478515625,0.808047216796875
-0.24306234375,-0.03522083984375,0.8166490478515624
-0.187625390625,-0.12222790771484375,0.8557259375
0.004701933593749999,-0.12418863037109375,0.977626171875
-0.23528171875,-0.10311086181640625,1.1975872802734375
-0.39162365234375,-0.07713128662109375,1.1720275537109375
-0.47575166015625,-0.1102184814453125,0.9252778857421875
-0.3194097265625,0.038306259765625,0.796741953125
-0.207076953125,0.1584005224609375,0.70629984375
-0.26859251953125,0.20325205322265624,0.781012890625
-0.37533296875,0.15472416748046874,0.8874298291015625
-0.31041337890625,0.08413815185546875,0.9537868115234375
-0.27005138671875,0.0162481298828125,0.9852449365234375
-0.16306779296875,0.055952763671875,1.1132893359375
-0.31430369140625003,0.20815385986328125,1.1046875048828124
-0.18592337890625,0.050070595703125,0.9881941357421875
-0.2099946875,0.199085517578125,0.938795048828125
-0.32208431640625,0.0686974609375,1.0621698828125
-0.392839375,0.024091020507812498,1.1911973486328125
-0.4278521875,-0.0533575244140625,1.1683410546875
-0.34639876953125,-0.0170841552734375,1.0889584423828125
-0.29509527343749997,-0.00997653564453125,0.9970417333984375
-0.28998923828125,-0.02762303955078125,1.0756870458984376
-0.30166017578125,0.01575794921875,1.20078224609375
-0.323786328125,0.06600146728515625,1.19095158203125
-0.2834243359375,0.03119864013671875,1.06806828125
-0.29631099609375,-0.03644629150390625,0.870963466796875
-0.07188859375000001,-0.1200220947265625,0.8930824609375
-0.25205869140625,-0.048455717773437504,1.062661416015625
-0.35661083984374997,-0.09820905517578125,1.0407881884765624
-0.34591248046875,-0.00777072265625,1.07101748046875
-0.27807515625,-0.0464949951171875,0.8928366943359375
-0.29752671875000003,-0.04968116943359375,0.841471474609375
-0.26713365234374997,-0.030319033203124998,0.838522275390625
-0.29752671875000003,0.0008074389648437498,0.8771076318359375
-0.44171142578125,0.008895419921875,0.8136998486328125
-0.29047552734375,-0.024436865234375,0.69745224609375
-0.2022140625,0.01747358154296875,0.692045380859375
-0.22701480468750002,0.02727719482421875,0.9321593505859375
-0.33424154296874997,0.12678386962890625,1.0815854443359374
-0.4614061328125,0.18364482666015625,1.1902142822265624
-0.17765646484375,0.1348718505859375,1.1892312158203124
-0.31041337890625,0.09492212646484376,1.00416896484375
-0.236254296875,0.0922261328125,0.98942296875
-0.2338228515625,0.06453092529296875,1.021372626953125
-0.43830740234375,0.046149150390625,1.05725455078125
-0.37995271484375,-0.06977857666015624,0.9847534033203125
-0.34056330078125,-0.00213364501953125,0.93928658203125
-0.3096839453125,0.01600303955078125,0.8569547705078124
-0.27151025390625,-0.07860182861328124,0.8117337158203125
-0.18859796875,0.0476196923828125,0.897506259765625
-0.325731484375,-0.03129939453125,1.0776531787109376
-0.33253953125,0.010611052246093749,1.19684998046875
-0.31138595703125,0.05031568603515625,1.068559814453125
-0.20002576171875,-0.013162709960937501,0.9700074072265625
-0.23017568359375,-0.023456503906250002,0.94715111328125
-0.2279873828125,-0.0455146337890625,0.9788550048828125
-0.26372962890625,-0.046740085449218746,0.9906518017578125
-0.3816547265625,0.0030132519531249997,0.95796484375
-0.3164919921875,-0.0072805419921875,0.9191337207031249
-0.3500459375,0.0309535498046875,0.9473968798828125
-0.33715927734375,0.01894412353515625,0.9577190771484375
-0.2980130078125,0.02335574951171875,0.995812900390625
-0.33618669921875,0.024091020507812498,1.022355693359375
-0.28123603515625,0.05227640869140625,1.0653648486328124
-0.22968939453125,-0.0200252392578125,0.9773804052734375
-0.2386857421875,0.0505607763671875,0.9886856689453125
-0.282938046875,-0.052867343750000004,1.0299744580078125
-0.30311904296875003,0.0407571630859375,0.9913891015625
-0.31381740234375,0.01257177490234375,0.9124980224609375
-0.24427806640625,0.01845394287109375,0.9405154150390624
-0.34226531250000003,0.02874773681640625,0.999745166015625
-0.31965287109375,-0.0406128271484375,0.9985163330078125
-0.28318119140625,0.07065818359375,0.990897568359375
-0.26956509765625,0.0162481298828125,0.9665666748046875
-0.32451576171875,-0.013162709960937501,0.980083837890625
-0.308225078125,0.0789912548828125,1.075441279296875
-0.34931650390625,0.0436982470703125,1.0638902490234374
-0.2644590625,-0.0009081933593750001,1.0260421923828125
-0.2416034765625,0.0593840283203125,0.995812900390625
-0.24816837890625,-0.0016434643554687498,0.97074470703125
-0.34931650390625,0.02090484619140625,0.9166760546875
-0.21558701171875,0.021640117187500002,0.9048792578125
-0.29582470703125,0.0221302978515625,0.9007012255859375
-0.315033125,0.0012976196289062499,0.9582106103515625
-0.267376796875,0.101049384765625,0.9754142724609375
-0.31478998046875,0.03144373046875,0.948625712890625
-0.31187224609374997,0.010856142578125,0.9992536328125
-0.24816837890625,0.008895419921875,0.96681244140625
-0.33229638671875,0.00227798095703125,0.9186421875
-0.232363984375,-0.06977857666015624,0.902421591796875
-0.28074974609375003,0.0123266845703125,0.915201455078125
-0.25497642578125,-0.00581,0.98843990234375
-0.31965287109375,0.06158984130859375,1.0307117578125
-0.323786328125,0.0250713818359375,0.9542783447265625
-0.22701480468750002,0.0008074389648437498,0.9242948193359375
-0.27977716796875,0.0456589697265625,0.9572275439453125
-0.3748466796875,-0.00605509033203125,0.959439443359375
-0.2192341796875,0.0329142724609375,0.905370791015625
-0.3446967578125,-0.01193725830078125,0.8446664404296875
-0.2824517578125,-0.01291761962890625,0.8952943603515625
-0.20804953125,-0.015368522949218751,0.902913125
-0.347128203125,-0.047965537109375,1.0122792626953125
-0.30166017578125,0.032424091796875,1.0688055810546875
-0.35126166015625,-0.020515419921875,1.0142453955078126
-0.325731484375,0.030708459472656248,1.0226014599609374
-0.29825615234375,0.04737460205078125,0.9646005419921875
-0.28804408203125,-0.030319033203124998,0.9186421875
-0.251815546875,-0.0332601171875,1.003677431640625
-0.30603677734375,-0.01953505859375,1.0383305224609374
-0.2566784375,-0.08889562255859375,1.022355693359375
-0.27394169921875,-0.013162709960937501,0.9827872705078124
-0.35320681640625,-0.05360261474609375,0.9911433349609375
-0.2513292578125,-0.044534272460937496,1.014491162109375
-0.280992890625,0.02360083984375,0.9798380712890625
-0.35199109375,0.026051743164062502,0.987948369140625
-0.2464663671875,-0.01389798095703125,1.0171945947265626
-0.32451576171875,-0.057769150390625,0.946659580078125
-0.30360533203125,-0.0474753564453125,0.9604225097656249
-0.32159802734375,-0.16070708984375,0.883743330078125
-0.30457791015625,-0.19232374267578126,0.9311762841796875
-0.380195859375,-0.12933552734375,0.9493630126953125
-0.37022693359375003,-0.14281549560546875,0.87931953125
-0.2007551953125,-0.01095689697265625,0.85867513671875
-0.24719580078125,-0.024436865234375,0.8820229638671875
-0.16890326171875,-0.03522083984375,1.0181776611328126
-0.34493990234375,0.0878145068359375,1.1464678271484374
-0.358799140625,0.0672269189453125,1.2152824755859375
-0.3427516015625,0.02923791748046875,1.091170341796875
-0.31965287109375,0.061834931640625,0.967303974609375
-0.35126166015625,0.00865032958984375,0.944693447265625
-0.1744955859375,-0.015368522949218751,0.8923451611328125
-0.3500459375,-0.011201987304687501,0.9252778857421875
-0.3446967578125,-0.1376685986328125,1.06511908203125
-0.28755779296875,-0.10507158447265624,1.0442289208984374
-0.36633662109375,-0.1170810107421875,0.9469053466796875
-0.300444453125,-0.0866898095703125,0.9582106103515625
-0.3656071875,-0.05703387939453125,0.8938197607421875
-0.27831830078124997,-0.0803174609375,0.8230389794921875
-0.20732009765625,0.0044837939453125,0.8572005371093749
-0.25886673828125,-0.034240478515625,0.8549886376953125
-0.2075632421875,-0.00948635498046875,0.937811982421875
-0.31187224609374997,-0.057278969726562504,0.977134638671875
-0.30944080078125,-0.01095689697265625,1.086255009765625
-0.4730770703125,-0.07026875732421875,1.0132623291015626
-0.29242068359375,-0.0332601171875,1.021372626953125
-0.3500459375,-0.0808076416015625,0.9513291455078126
-0.27491427734375,-0.01095689697265625,0.9390408154296875
-0.2221519140625,0.00178780029296875,0.9390408154296875
-0.267376796875,-0.051886982421875,0.9881941357421875
-0.347128203125,0.01649322021484375,1.1051790380859374
-0.24719580078125,-0.07443529296875,1.1405694287109376
-0.3189234375,-0.038161923828125,1.0889584423828125
-0.3476144921875,-0.114630107421875,0.9650920751953125
-0.2503566796875,-0.05311243408203125,0.9110234228515625
-0.2454937890625,0.026296833496093748,0.926998251953125
-0.3699837890625,-0.0009081933593750001,0.9478884130859375
-0.21801845703125,-0.0327699365234375,1.0395593554687501
-0.36730919921875,0.055952763671875,0.9795923046875
-0.28123603515625,-0.13595296630859374,0.8387680419921875
-0.300444453125,-0.12565917236328125,0.8122252490234375
-0.32986494140625,-0.08056255126953125,0.7999369189453125
-0.29485212890625,-0.149923115234375,0.7561904638671875
-0.226528515625,-0.15997181884765624,0.704825244140625
-0.2250696484375,-0.1680597998046875,0.7547158642578125
-0.27491427734375,-0.0768861962890625,0.855234404296875
-0.2411171875,-0.05482806640625,0.9680412744140625
-0.28901666015625,-0.03203466552734375,1.144255927734375
-0.4040240234375,-0.03448556884765625,1.229782705078125
-0.294608984375,-0.0268877685546875,1.1587561572265626
-0.27345541015625,-0.02125069091796875,1.048406953125
-0.3038484765625,0.03144373046875,0.9331424169921875
-0.25546271484375,0.0427178857421875,0.941744248046875
-0.411318359375,0.0721287255859375,1.0009739990234374
-0.3213548828125,0.10595119140625,1.1199250341796876
-0.27637314453125,0.05178622802734375,1.1105859033203125
-0.3631757421875,-0.04281864013671875,1.0383305224609374
-0.1725504296875,-0.10752248779296875,0.9601767431640625
-0.304334765625,-0.05360261474609375,0.8633447021484375
-0.27151025390625,-0.02174087158203125,0.8913620947265625
-0.2445212109375,-0.015368522949218751,0.9129895556640625
-0.29193439453125003,-0.05899460205078125,0.9370746826171875
-0.3330258203125,0.011346323242187501,1.0179318945312499
-0.3242726171875,-0.00948635498046875,1.030220224609375
-0.30846822265625,-0.05090662109375,1.0127707958984375
-0.31624884765625,-0.013162709960937501,1.01399962890625
-0.38189787109375,-0.03840701416015625,1.048898486328125
-0.2488978125,-0.10360104248046875,1.0329236572265625
-0.330594375,-0.0788469189453125,0.9768888720703125
-0.28123603515625,-0.10164031982421876,0.94223578125
-0.31746457031249997,-0.06242586669921875,0.8156659814453124
-0.24427806640625,-0.100905048828125,0.75053783203125
-0.2591098828125,-0.11242429443359375,0.80952181640625
-0.27613,-0.09428760986328125,0.9218371533203125
-0.34785763671875003,-0.0925719775390625,0.9587021435546875
-0.32500205078125,-0.04698517578125,0.9174133544921875
-0.31187224609374997,-0.00581,0.9124980224609375
-0.3223274609375,-0.00360418701171875,0.9459222802734375
-0.2571647265625,0.04002189208984375,1.041033955078125
-0.337402421875,-0.006790361328125,1.05135615234375
-0.300444453125,-0.00507472900390625,1.0820769775390624
-0.2931501171875,-0.055073156738281254,1.0621698828125
-0.34737134765625,-0.015368522949218751,1.0555341845703126
-0.23990146484375,-0.09428760986328125,1.0058893310546875
-0.228473671875,-0.020515419921875,1.0938737744140625
-0.35977171875,-0.06340622802734375,1.09854333984375
-0.247925234375,-0.0827683642578125,1.0130165625
-0.374360390625,-0.01193725830078125,0.95501564453125
-0.24427806640625,-0.06536695068359374,0.9449392138671875
-0.31868029296875,-0.0612004150390625,0.900455458984375
-0.33278267578125,-0.10850284912109374,0.9599309765625
-0.35709712890625,-0.10605194580078126,0.9636174755859375
-0.3369161328125,-0.07026875732421875,0.908319990234375
-0.28634207031250003,-0.046004814453125,0.910286123046875
-0.269321953125,-0.06585713134765625,0.9228202197265625
-0.2746711328125,-0.03595611083984375,0.9675497412109375
-0.26640421875,-0.07370002197265625,0.9862280029296875
-0.34445361328125,-0.085219267578125,1.0039231982421875
-0.3500459375,-0.10164031982421876,0.9832788037109375
-0.32500205078125,-0.059729873046875,0.964354775390625
-0.315033125,-0.095022880859375,0.914218388671875
-0.30846822265625,-0.07615092529296875,0.9429730810546875
-0.28998923828125,-0.08350363525390625,0.9469053466796875
-0.30555048828125,-0.0504164404296875,0.9950756005859375
-0.31381740234375,-0.036201201171875,1.0668394482421875
-0.33642984375,-0.0553182470703125,0.9911433349609375
-0.25449013671875,-0.0435539111328125,0.9729566064453125
-0.32646091796875,-0.08252327392578125,0.952557978515625
-0.25838044921875,-0.09820905517578125,0.9186421875
-0.33642984375,-0.03644629150390625,0.9223286865234375
-0.27005138671875,-0.10164031982421876,0.98254150390625
-0.29509527343749997,0.0020328906249999995,1.0014655322265624
-0.31187224609374997,-0.0464949951171875,0.9709904736328125
-0.282938046875,-0.0857094482421875,0.9660751416015625
-0.27491427734375,-0.042328459472656246,0.9778719384765625
-0.33764556640625,-0.1249239013671875,0.9704989404296875
-0.27734572265625,-0.08399381591796876,1.011541962890625
-0.3505322265625,-0.060710234375,0.9773804052734375
-0.3767918359375,-0.1406096826171875,0.9523122119140625
-0.3164919921875,-0.052867343750000004,0.97074470703125
-0.26713365234374997,-0.09673851318359375,0.92650671875
-0.25594900390624997,-0.13056097900390626,0.945676513671875
-0.28026345703125,-0.12958061767578125,1.0267794921875
-0.3709563671875,-0.06487677001953125,1.023338759765625
-0.25862359375,-0.11536537841796875,0.9636174755859375
-0.3155194140625,-0.0964934228515625,0.93437125
-0.265431640625,-0.04036773681640625,0.9621428759765625
-0.3057936328125,-0.1180613720703125,0.9852449365234375
-0.300444453125,-0.03889719482421875,1.0339067236328126
-0.32548833984375003,-0.08007237060546875,0.9994993994140625
-0.2931501171875,-0.14232531494140624,0.9316678173828125
-0.29242068359375,-0.09036616455078125,0.9046334912109375
-0.3417790234375,-0.10311086181640625,0.90193005859375
-0.31089966796875,-0.1357078759765625,0.8638362353515625
-0.236254296875,-0.008996174316406251,0.89504859375
-0.37995271484375,-0.057278969726562504,0.9166760546875
-0.24233291015625,-0.05115171142578125,0.9953213671875
-0.31697828125,0.0093856005859375,1.0221099267578124
-0.27515742187500003,-0.0788469189453125,1.02579642578125
-0.33083751953125,-0.08546435791015625,1.0044147314453125
-0.3806821484375,-0.03399538818359375,0.9842618701171875
-0.29290697265625,-0.0857094482421875,0.926015185546875
-0.34226531250000003,-0.08203309326171875,0.9341254833984375
-0.338375,-0.10016977783203125,0.930438984375
-0.2698082421875,-0.11928682373046876,0.9414984814453125
-0.3578265625,-0.042083369140625,1.0058893310546875
-0.330594375,-0.10286577148437501,0.9616513427734374
-0.29874244140625,-0.100905048828125,0.9599309765625
-0.28901666015625,-0.08938580322265625,0.9936010009765625
-0.29752671875000003,-0.09967959716796874,1.0098215966796875
-0.37654869140625,-0.0803174609375,1.0343982568359376
-0.21364185546875,-0.04330882080078125,1.03661015625
-0.35466568359375,-0.0906112548828125,0.98942296875
-0.26129818359375,-0.09232688720703125,1.00810123046875
-0.294608984375,-0.0964934228515625,0.9449392138671875
-0.3155194140625,-0.12369844970703125,0.902913125
-0.3164919921875,-0.07173929931640625,0.933879716796875
-0.30700935546875,-0.10580685546875,0.9788550048828125
-0.3242726171875,-0.05801424072265625,0.9852449365234375
-0.26518849609375,-0.09796396484375,1.00810123046875
-0.31697828125,-0.05850442138671875,0.9913891015625
-0.3111428125,-0.12516899169921875,0.946168046875
-0.2960678515625,-0.05752406005859375,0.9287186181640625
-0.28853037109375,-0.08595453857421875,0.9390408154296875
-0.33521412109375,-0.1239435400390625,0.9385492822265625
-0.290718671875,-0.06267095703125,0.945676513671875
-0.3339983984375,-0.07222947998046875,0.9166760546875
-0.23406599609375,-0.0229663232421875,0.954524111328125
-0.40086314453125,-0.0332601171875,0.98942296875
-0.2192341796875,-0.06144550537109375,1.0108046630859375
-0.315033125,-0.029338671875,0.9872110693359375
-0.30409162109375,-0.03742665283203125,0.977134638671875
-0.3067662109375,-0.0808076416015625,0.958456376953125
-0.3067662109375,-0.0955130615234375,0.9835245703125
-0.2824517578125,-0.046249904785156254,0.9881941357421875
-0.26810623046875,-0.0866898095703125,0.9886856689453125
-0.28585578125,-0.10507158447265624,1.021372626953125
-0.29509527343749997,-0.09796396484375,1.06315294921875
-0.39940427734375,-0.07370002197265625,0.9754142724609375
-0.218747890625,-0.091101435546875,0.94911724609375
-0.29242068359375,-0.06438658935546875,0.978117705078125
-0.28415376953125,-0.02468195556640625,1.0471781201171875
-0.29096181640625,-0.04821062744140625,1.020389560546875
-0.31381740234375,-0.05605351806640625,1.0009739990234374
-0.28220861328125,-0.108747939453125,0.9528037451171875
-0.2450075,-0.07026875732421875,0.9188879541015624
-0.3369161328125,-0.1337471533203125,0.9363373828125
-0.31673513671875,-0.17173615478515625,0.9429730810546875
-0.3378887109375,-0.14036459228515624,0.9046334912109375
-0.27491427734375,-0.12467881103515625,0.9051250244140625
-0.3194097265625,-0.092081796875,0.92552365234375
-0.277102578125,-0.098944326171875,0.9709904736328125
-0.28755779296875,-0.04306373046875,0.9609140429687499
-0.28950294921874997,-0.07615092529296875,0.8977520263671875
-0.2571647265625,-0.01978014892578125,0.89504859375
-0.265431640625,-0.04379900146484375,0.909303056640625
-0.314060546875,-0.098944326171875,0.9906518017578125
-0.28974609375,-0.01683906494140625,1.1194335009765626
-0.3670660546875,-0.08791526123046875,1.046932353515625
-0.29096181640625,-0.059729873046875,1.02776255859375
-0.36439146484375,-0.05899460205078125,0.9508376123046876
-0.28391062499999997,-0.08595453857421875,0.9016842919921875
-0.29096181640625,-0.0759058349609375,0.913235322265625
-0.36341888671875,-0.01389798095703125,0.9960586669921875
-0.25546271484375,-0.0866898095703125,0.98254150390625
-0.31770771484375,-0.0621807763671875,0.9129895556640625
-0.2552195703125,-0.06242586669921875,0.9857364697265625
-0.29144810546875,-0.057769150390625,1.05233921875
-0.3505322265625,-0.11144393310546875,0.9972875
-0.30068759765624997,-0.04281864013671875,1.0228472265625
-0.2561921484375,-0.126394443359375,0.971236240234375
-0.38505875,-0.10016977783203125,0.9874568359375
-0.2488978125,-0.1327667919921875,0.990897568359375
-0.32864921874999997,-0.05409279541015625,0.9262609521484375
-0.28901666015625,-0.055073156738281254,0.9498545458984375
-0.2581373046875,-0.07835673828125,0.9626344091796875
-0.28755779296875,-0.08154291259765625,0.9916348681640625
-0.27880458984375,-0.1023755908203125,0.994829833984375
-0.2717533984375,-0.01634888427734375,1.0179318945312499
-0.3524773828125,-0.10360104248046875,0.9759058056640625
-0.22385392578125,-0.098944326171875,0.9754142724609375
-0.3189234375,-0.05850442138671875,0.9921264013671875
-0.27831830078124997,-0.055808427734375,1.0334151904296875
-0.3126016796875,-0.0621807763671875,0.9773804052734375
-0.34396732421875,0.00472888427734375,0.9380577490234375
-0.29339326171875,-0.0827683642578125,0.874895732421875
-0.2698082421875,-0.037916833496093746,0.9245405859375
-0.30895451171875,-0.05090662109375,0.983033037109375
-0.300444453125,-0.07419020263671874,1.0167030615234376
-0.277102578125,-0.1680597998046875,0.9835245703125
-0.3155194140625,-0.02615249755859375,1.0678225146484375
-0.33132380859375,-0.13105115966796876,1.049881552734375
-0.28196546875,-0.1533543798828125,1.008592763671875
-0.2785614453125,-0.0876701708984375,0.9847534033203125
-0.28998923828125,-0.079337099609375,1.0122792626953125
-0.32743349609375,-0.10948321044921874,0.922574453125
-0.242089765625,-0.0612004150390625,0.883251796875
-0.29752671875000003,-0.0994345068359375,0.8893959619140624
-0.29776986328125,-0.10605194580078126,0.9808211376953125
-0.29339326171875,-0.0533575244140625,0.950591845703125
-0.1788721875,-0.03448556884765625,0.9614055761718749
-0.2970404296875,-0.02174087158203125,0.9768888720703125
-0.28220861328125,-0.08644471923828125,0.9931094677734374
-0.2668905078125,-0.03497574951171875,0.9837703369140625
-0.27248283203125,-0.067572763671875,0.985982236328125
-0.290718671875,-0.03914228515625,1.09067880859375
-0.368524921875,-0.052867343750000004,1.109848603515625
-0.329621796875,-0.00507472900390625,1.13196759765625
-0.37557611328125,0.009140510253906251,1.1145181689453125
-0.24476435546875,-0.03301502685546875,1.0267794921875
-0.21753216796875,0.02433611083984375,0.9945840673828125
-0.33253953125,-0.04526954345703125,0.9559987109375
-0.2785614453125,-0.076396015625,1.025304892578125
-0.23601115234375,0.01747358154296875,1.1110774365234375
-0.37168580078125,-0.098944326171875,1.14769666015625
-0.41350666015625,-0.0170841552734375,1.150154326171875
-0.31527626953125,-0.02737794921875,1.0889584423828125
-0.37265837890625,-0.06438658935546875,0.9559987109375
-0.28950294921874997,-0.0259074072265625,0.9321593505859375
-0.1958923046875,-0.1572758251953125,0.8898874951171875
-0.29971501953125,-0.12149263671875,1.044966220703125
-0.2853694921875,-0.12958061767578125,1.2084010107421874
-0.279047734375,-0.05874951171875,1.213562109375
-0.31235853515625,-0.10262068115234375,1.12803533203125
-0.26372962890625,-0.0710040283203125,1.0348897900390626
-0.16209521484375,-0.06879821533203125,0.973202373046875
-0.3189234375,-0.07051384765625,1.06511908203125
-0.3242726171875,0.0064445166015625,1.1474508935546874
-0.34493990234375,-0.07419020263671874,1.0464408203125
-0.2805066015625,0.02874773681640625,1.0324321240234375
-0.24427806640625,-0.051886982421875,0.985982236328125
-0.28561263671875,-0.17565760009765624,0.999745166015625
-0.31965287109375,-0.048945898437499996,1.056763017578125
-0.30895451171875,-0.11830646240234374,0.986965302734375
-0.37557611328125,-0.107767578125,0.9311762841796875
-0.26032560546875,-0.012672529296875,0.8662939013671875
-0.22677166015625,-0.06487677001953125,0.72694423828125
-0.15723232421875,0.01747358154296875,0.7429190673828125
-0.3203823046875,-0.03914228515625,0.8289373779296875
-0.35344996093750003,-0.077376376953125,0.9100403564453124
-0.31041337890625,-0.0886505322265625,0.922574453125
-0.33642984375,-0.09281706787109376,0.8186151806640625
-0.14993798828125,-0.059484782714843754,0.8230389794921875
-0.331566953125,-0.0788469189453125,0.906353857421875
-0.27613,-0.05703387939453125,1.0761785791015626
-0.36487775390625,-0.02272123291015625,1.0560257177734376
-0.42080099609375,-0.05458297607421875,0.9980247998046875
-0.2192341796875,-0.09771887451171875,0.944693447265625
-0.191515703125,0.0035034326171875,0.933879716796875
-0.21121041015625,-0.10556176513671875,0.9080742236328125
-0.26251390625,-0.11340465576171875,0.99237216796875
-0.2649453515625,0.1035002880859375,1.0661021484375
-0.3505322265625,-0.02958376220703125,1.0427543212890624
-0.3301080859375,-0.02737794921875,1.0550426513671876
-0.39210994140625,-0.048455717773437504,1.0575003173828126
-0.2099946875,-0.04428918212890625,1.0167030615234376
-0.30360533203125,-0.02958376220703125,0.920116787109375
-0.33910443359375,-0.087179990234375,0.8672769677734375
-0.24938410156250002,-0.0175743359375,0.902421591796875
-0.36050115234375,-0.06291604736328126,0.9105318896484375
-0.26081189453125,-0.0229663232421875,0.969761640625
-0.2775888671875,-0.06389640869140625,0.87440419921875
-0.329621796875,-0.0612004150390625,0.87931953125
-0.27029453125,-0.05017135009765625,0.94321884765625
-0.3553951171875,-0.048455717773437504,0.94321884765625
-0.37217208984375,-0.12541408203125,0.9660751416015625
-0.35709712890625,-0.02419177490234375,0.994829833984375
-0.277102578125,-0.0994345068359375,0.9009469921875
-0.29096181640625,-0.01928996826171875,0.904387724609375
-0.38700390625000003,-0.0543378857421875,0.9498545458984375
-0.35612455078125,-0.0739451123046875,0.9016842919921875
-0.31235853515625,-0.05850442138671875,0.8368019091796874
-0.34007701171875,-0.06977857666015624,0.82918314453125
-0.2231244921875,-0.09036616455078125,0.9046334912109375
-0.30068759765624997,-0.07051384765625,1.0179318945312499
-0.39089421875,-0.0317895751953125,1.0609410498046874
-0.30214646484375,-0.0670825830078125,0.90193005859375
-0.2873146484375,0.02972809814453125,0.8471241064453126
-0.265431640625,0.04124734375,0.9144641552734375
-0.214857578125,-0.0175743359375,1.090187275390625
-0.36050115234375,0.07727562255859374,1.19881611328125
-0.331566953125,0.0451687890625,1.2487067333984374
-0.339347578125,0.0162481298828125,1.1096028369140625
-0.252788125,-0.040122646484374996,0.8717007666015625
-0.22239505859375,-0.0180645166015625,0.8576920703124999
-0.36925435546875,-0.011201987304687501,0.8358188427734374
-0.18081734375,-0.0661022216796875,0.908319990234375
-0.3466419140625,-0.00581,0.976151572265625
-0.24719580078125,-0.0592396923828125,1.0093300634765625
-0.19905318359375002,-0.0837487255859375,0.9690243408203125
-0.3408064453125,-0.0719843896484375,0.9503460791015625
-0.2192341796875,-0.0038492773437499997,1.0157199951171876
-0.31576255859375,-0.037916833496093746,1.0174403613281249
-0.36585033203125,-0.0006631030273437505,1.0078554638671875
-0.181789921875,-0.04821062744140625,0.95501564453125
-0.33083751953125,-0.046740085449218746,0.8884128955078126
-0.1686601171875,-0.01438816162109375,0.9191337207031249
-0.29144810546875,-0.00997653564453125,0.9360916162109375
-0.2250696484375,-0.08448399658203125,0.9719735400390626
-0.26518849609375,-0.00311400634765625,1.071509013671875
-0.32013916015625,0.022620478515625,1.1587561572265626
-0.31041337890625,-0.0376717431640625,1.1562984912109375
-0.31673513671875,0.0966377587890625,1.13983212890625
-0.2717533984375,0.030708459472656248,1.0786362451171876
-0.28658521484375,-0.061690595703125004,1.069542880859375
-0.32013916015625,0.08242251953125,1.1007552392578126
-0.20780638671875,-0.00458454833984375,1.00810123046875
-0.32062544921875,-0.0043394580078125,0.946168046875
-0.294608984375,-0.01585870361328125,0.956490244140625
-0.2571647265625,-0.00654527099609375,0.9636174755859375
-0.2882872265625,0.02237538818359375,1.057746083984375
-0.28415376953125,0.02678701416015625,1.10247560546875
-0.2980130078125,0.04394333740234375,1.0373474560546876
-0.3184371484375,-0.032279755859375,0.9754142724609375
-0.28585578125,-0.034240478515625,0.9282270849609375
-0.29096181640625,-0.0092412646484375,0.9134810888671875
-0.27296912109375,-0.05115171142578125,0.9026673583984375
-0.35344996093750003,-0.048945898437499996,0.8154202148437499
-0.31308796875,0.010856142578125,0.867522734375
-0.28804408203125,0.0633054736328125,0.83508154296875
-0.23819945312500002,0.06894255126953125,0.81148794921875
-0.2824517578125,0.010611052246093749,0.9021758251953125
-0.2785614453125,-0.06781785400390625,1.01399962890625
-0.38092529296875,0.0025230712890624996,1.0560257177734376
-0.3009307421875,-0.044044091796875,1.0103131298828125
-0.27734572265625,0.03119864013671875,0.881777197265625
-0.25497642578125,0.03168882080078125,0.7837163232421875
-0.26761994140625,0.05864875732421875,0.8358188427734374
-0.253760703125,0.08168724853515624,0.8697346337890625
-0.30555048828125,0.015022678222656249,0.9097945898437501
-0.30919765625,-0.0219859619140625,0.9614055761718749
-0.30409162109375,0.01183650390625,0.998762099609375
-0.23114826171875,-0.02076051025390625,0.9960586669921875
-0.33083751953125,0.00791505859375,0.965829375
-0.26275705078125,0.010856142578125,0.9252778857421875
-0.26129818359375,0.03266918212890625,0.9537868115234375
-0.31041337890625,0.0191892138671875,1.0289913916015625
-0.2834243359375,-0.01830960693359375,1.0267794921875
-0.28974609375,0.055462583007812497,0.998762099609375
-0.2678630859375,-0.0097314453125,0.9601767431640625
-0.2639727734375,-0.010711806640625,0.92552365234375
-0.25473328125,-0.0332601171875,0.9520664453125
-0.30263275390625,0.00521906494140625,1.0417712548828124
-0.321841171875,0.0682072802734375,1.06020375
-0.3048210546875,7.216796875000007e-05,0.9562444775390625
-0.32937865234375,-0.05017135009765625,0.876861865234375
-0.25351755859375,-0.0011532836914062497,0.9223286865234375
-0.2630001953125,-0.0553182470703125,0.8812856640625
-0.209022109375,-0.04698517578125,0.9316678173828125
-0.3203823046875,0.04345315673828125,0.994829833984375
-0.28269490234375,0.00766996826171875,1.0191607275390624
-0.28220861328125,0.04443351806640625,1.027271025390625
-0.29096181640625,0.02874773681640625,0.9596852099609375
-0.25108611328125,0.0069346972656249995,0.95501564453125
-0.26907880859375,0.00816014892578125,0.9473968798828125
-0.2970404296875,-0.05752406005859375,0.9429730810546875
-0.3330258203125,-0.0308092138671875,1.0157199951171876
-0.35077537109375,-0.00262382568359375,1.00416896484375
-0.2532744140625,0.00325834228515625,0.933879716796875
-0.30020130859375,0.0593840283203125,0.922574453125
-0.24087404296875,0.03266918212890625,0.948625712890625
-0.33910443359375,0.08242251953125,0.9724650732421874
-0.29922873046875,0.05668803466796875,1.00613509765625
-0.32305689453124997,0.02286556884765625,0.8780906982421874
-0.27272597656249997,-0.03742665283203125,0.9007012255859375
-0.25643529296875,-0.0259074072265625,0.9218371533203125
-0.25692158203125,0.00472888427734375,0.9191337207031249
-0.3476144921875,0.0294830078125,0.973202373046875
-0.32597462890625,0.038306259765625,0.989914501953125
-0.338375,0.0299731884765625,1.0098215966796875
-0.304334765625,0.0064445166015625,1.0078554638671875
-0.2338228515625,0.0407571630859375,0.9542783447265625
-0.2377131640625,0.0005623486328125002,0.895540126953125
-0.27442798828125,0.04835496337890625,0.9724650732421874
-0.20148462890625,0.02727719482421875,1.01203349609375
-0.253760703125,0.02678701416015625,1.0117877294921875
-0.29193439453125003,0.057913486328125,1.067576748046875
-0.31770771484375,-0.02909358154296875,0.9537868115234375
-0.27272597656249997,-0.0006631030273437505,0.8687515673828125
-0.23552486328125,0.026051743164062502,0.865065068359375
-0.30895451171875,-0.0055649096679687505,0.88030259765625
-0.27880458984375,0.0289928271484375,0.9127437890625
-0.28853037109375,0.0329142724609375,0.9631259423828125
-0.28269490234375,0.05129604736328125,1.024321826171875
-0.2007551953125,0.071638544921875,1.0501273193359375
-0.32743349609375,-0.01438816162109375,1.053813818359375
-0.30117388671875,0.05105095703125,1.0299744580078125
-0.23455228515625,0.01747358154296875,0.904387724609375
-0.34032015625,-0.00801581298828125,0.86653966796875
-0.1890842578125,0.04345315673828125,0.8746499658203125
-0.3271903515625,0.00791505859375,0.882760263671875
-0.2941226953125,0.05619785400390625,1.0299744580078125
-0.273212265625,0.02531647216796875,1.03562708984375
-0.37363095703125,0.00619942626953125,1.0550426513671876
-0.20245720703125,0.08266760986328126,1.032677890625
-0.2882872265625,0.0270321044921875,0.9228202197265625
-0.30214646484375,0.0010525292968750002,0.8505648388671875
-0.18349193359375,0.01110123291015625,0.897506259765625
-0.27807515625,0.01208159423828125,0.8992266259765624
-0.296554140625,0.0020328906249999995,0.92650671875
-0.2707808203125,0.04345315673828125,0.97664310546875
-0.2688356640625,-0.04870080810546875,0.95796484375
-0.29533841796875,0.02531647216796875,0.9488714794921875
-0.26640421875,0.0495804150390625,0.9616513427734374
-0.30068759765624997,0.0133070458984375,0.928964384765625
-0.2805066015625,0.07384435791015626,0.9749227392578125
-0.2970404296875,0.0672269189453125,1.046932353515625
-0.26421591796875,0.03953171142578125,0.9768888720703125
-0.27977716796875,-0.0033590966796874996,0.9124980224609375
-0.26761994140625,0.034384814453125,0.9655836083984375
-0.230418828125,-0.03129939453125,0.95304951171875
-0.35661083984374997,0.021640117187500002,1.0063808642578125
-0.251815546875,0.0603643896484375,0.9877026025390625
-0.3602580078125,0.059874208984374996,0.947642646484375
-0.3408064453125,0.02923791748046875,1.001711298828125
-0.23163455078125,0.02286556884765625,1.0319405908203125
-0.352963671875,0.02041466552734375,1.0388220556640624
-0.26616107421875,0.012816865234374999,1.0589749169921876
-0.3096839453125,-0.036201201171875,1.0083469970703125
-0.2630001953125,0.010611052246093749,1.0149826953125
-0.298499296875,0.0123266845703125,0.96288017578125
-0.32451576171875,-0.044044091796875,0.98942296875
-0.30846822265625,0.08242251953125,1.0530765185546875
-0.32257060546875,-0.004829638671875,1.04939001953125
-0.3573402734375,0.00423870361328125,1.0211268603515624
-0.23892888671875,-0.013407800292968751,0.986965302734375
-0.3408064453125,-0.00777072265625,0.9100403564453124
-0.2347954296875,-0.013407800292968751,0.9016842919921875
-0.33375525390625,0.01698340087890625,0.93338818359375
-0.31697828125,-0.034240478515625,0.9601767431640625
-0.35466568359375,0.06502110595703126,0.9759058056640625
-0.24136033203125,-0.02272123291015625,0.9075826904296875
-0.34202216796875,-0.0386521044921875,0.862115869140625
-0.24427806640625,0.026296833496093748,0.9282270849609375
-0.31308796875,-0.02076051025390625,0.899472392578125
-0.31430369140625003,0.02923791748046875,0.9075826904296875
-0.31697828125,0.03168882080078125,0.96877857421875
-0.31965287109375,0.014777587890624999,0.979100771484375
-0.2921775390625,0.0338946337890625,1.028254091796875
-0.30530734375,-0.00703545166015625,1.0309575244140625
-0.2450075,0.04541387939453125,1.0491442529296875
-0.27977716796875,0.0172284912109375,1.032186357421875
-0.3203823046875,0.04149243408203125,1.0796193115234376
-0.22701480468750002,-0.02517213623046875,1.0240760595703124
-0.30627992187499997,0.03708080810546875,1.0378389892578126
-0.32500205078125,0.0319339111328125,1.0810939111328124
-0.2649453515625,-0.0092412646484375,1.0845346435546874
-0.32986494140625,0.01845394287109375,1.078390478515625
-0.25862359375,0.01257177490234375,1.0629071826171874
-0.2980130078125,-0.03546593017578125,0.95698177734375
-0.30992708984375,0.00399361328125,0.972219306640625
-0.20537494140625,0.00766996826171875,1.0149826953125
-0.36098744140625,-0.0161037939453125,1.0884669091796875
-0.2668905078125,0.0858537841796875,1.150154326171875
-0.3690112109375,0.018699033203125,1.09854333984375
-0.26421591796875,-0.006790361328125,1.0250591259765625
-0.3019033203125,0.0451687890625,0.916184521484375
-0.2756437109375,-0.0494360791015625,0.89799779296875
-0.24768208984375,0.0025230712890624996,0.906845390625
-0.28464005859375,0.03610044677734375,0.9818042041015624
-0.34810078125,-0.05164189208984375,1.040050888671875
-0.29874244140625,-0.00777072265625,1.0658563818359374
-0.33667298828125003,0.04051207275390625,1.0393135888671874
-0.2843969140625,0.02335574951171875,0.998762099609375
-0.26470220703125,0.0417375244140625,1.020389560546875
-0.33229638671875,0.0593840283203125,1.0152284619140626
-0.23212083984375,0.03217900146484375,1.022355693359375
-0.3135742578125,0.04492369873046875,0.9803296044921875
-0.2488978125,0.024581201171875,0.9557529443359375
-0.35199109375,0.05472731201171875,0.9992536328125
-0.2678630859375,0.00276816162109375,1.0260421923828125
-0.32791978515625,-0.02027032958984375,0.996795966796875
-0.314060546875,-0.0028689160156250004,0.9896687353515625
-0.29874244140625,-0.0006631030273437505,0.9324051171875
-0.26616107421875,0.02090484619140625,0.9166760546875
-0.28464005859375,-0.016593974609375,0.8972604931640625
-0.27831830078124997,0.077520712890625,0.9572275439453125
-0.31916658203125,0.04247279541015625,0.97860923828125
-0.26713365234374997,0.04639424072265625,0.9498545458984375
-0.30068759765624997,0.01747358154296875,0.862115869140625
-0.24768208984375,0.0012976196289062499,0.8952943603515625
-0.3077387890625,0.03144373046875,0.88620099609375
-0.3019033203125,-0.0016434643554687498,0.9075826904296875
-0.2805066015625,0.02727719482421875,0.9233117529296875
-0.3028758984375,0.046149150390625,0.957473310546875
-0.29387955078125,0.06600146728515625,1.01596576171875
-0.2484115234375,0.01306195556640625,0.9719735400390626
-0.296554140625,0.0525214990234375,0.993846767578125
-0.25011353515625,0.0162481298828125,0.95698177734375
-0.2722396875,0.01404231689453125,0.8948028271484375
-0.21072412109375,0.0172284912109375,0.87440419921875
-0.29387955078125,0.04247279541015625,0.8810398974609375
-0.255705859375,0.06257020263671875,0.92159138671875
-0.26616107421875,0.0133070458984375,0.9547698779296875
-0.27734572265625,0.064776015625,1.0825685107421874
-0.3242726171875,0.04320806640625,1.1110774365234375
-0.32159802734375,0.06698182861328125,1.0621698828125
-0.35174794921875,0.06943273193359376,0.958456376953125
-0.19710802734375,0.063795654296875,0.8844806298828125
-0.28561263671875,0.01208159423828125,0.8672769677734375
-0.26640421875,0.01551285888671875,0.931913583984375
-0.3048210546875,-0.0464949951171875,0.9429730810546875
-0.24427806640625,0.02433611083984375,0.9503460791015625
-0.2503566796875,-0.008751083984375,0.9454307470703125
-0.2445212109375,-0.011201987304687501,0.94715111328125
-0.29485212890625,0.0642858349609375,1.0189149609375
-0.298499296875,0.010611052246093749,0.9926179345703126
-0.29387955078125,0.0319339111328125,0.984016103515625
-0.2834243359375,0.03708080810546875,0.9955671337890625
-0.273212265625,0.036345537109375,0.9717277734375
-0.24087404296875,0.0329142724609375,0.9655836083984375
-0.3072525,0.07629526123046874,0.9867195361328125
-0.23941517578125,-0.00262382568359375,0.955507177734375
-0.30603677734375,0.06257020263671875,0.929947451171875
-0.2532744140625,0.03953171142578125,0.9631259423828125
-0.25886673828125,0.01012087158203125,0.95698177734375
-0.27783201171875,0.0044837939453125,0.9481341796875
-0.25205869140625,0.06355056396484375,0.97664310546875
-0.358799140625,0.00399361328125,0.9596852099609375
-0.2999581640625,0.12090170166015625,1.0582376171875
-0.30311904296875003,-0.0023787353515625003,0.981066904296875
-0.31673513671875,0.0446786083984375,0.983033037109375
-0.2153438671875,0.0564429443359375,0.9877026025390625
-0.3344846875,-0.01830960693359375,0.88030259765625
-0.21121041015625,0.05374695068359375,0.870963466796875
-0.263486484375,0.0642858349609375,0.8603955029296875
-0.3019033203125,0.0037485229492187503,0.9660751416015625
-0.2698082421875,-0.00605509033203125,1.0299744580078125
-0.32451576171875,0.05815857666015625,1.0353813232421876
-0.33229638671875,-0.0097314453125,0.9896687353515625
-0.24427806640625,-0.020515419921875,0.9439561474609375
-0.35320681640625,0.0008074389648437498,0.9650920751953125
-0.31868029296875,0.0054641552734375,1.013508095703125
-0.28464005859375,0.0142874072265625,0.9301932177734376
-0.26372962890625,0.026296833496093748,0.9100403564453124
-0.286828359375,-0.00360418701171875,0.8923451611328125
-0.2133987109375,0.01600303955078125,0.9346170166015625
-0.27880458984375,0.032424091796875,0.9896687353515625
-0.300444453125,0.04002189208984375,1.01989802734375
-0.31430369140625003,0.03708080810546875,1.0127707958984375
-0.29728357421875,0.020659755859375,0.9520664453125
-0.3339983984375,0.1035002880859375,1.0171945947265626
-0.2065906640625,-0.02149578125,1.0221099267578124
-0.33570041015625,-0.02615249755859375,0.9257694189453125
-0.24379177734375002,0.015022678222656249,0.97271083984375
-0.29363640625,0.03928662109375,0.944693447265625
-0.30117388671875,0.0003172583007812497,0.9331424169921875
-0.3033621875,0.03610044677734375,0.970253173828125
-0.290718671875,0.00325834228515625,0.9356000830078125
-0.29485212890625,0.0593840283203125,0.975168505859375
-0.25205869140625,-0.0411030078125,0.9714820068359376
-0.290718671875,0.0809519775390625,1.0235845263671874
-0.34785763671875003,-0.0097314453125,1.0329236572265625
-0.27685943359375,-0.04698517578125,0.9493630126953125
-0.30627992187499997,0.026296833496093748,0.9085657568359375
-0.265431640625,-0.02223105224609375,0.946659580078125
-0.2795340234375,0.03266918212890625,0.9498545458984375
-0.339347578125,0.06011929931640625,1.0289913916015625
-0.28755779296875,0.02776737548828125,1.0663479150390625
-0.25254498046875,0.0211499365234375,0.963371708984375
-0.26324333984375,-0.00801581298828125,0.972219306640625
-0.30895451171875,0.02360083984375,1.0034316650390624
-0.26421591796875,-0.06928839599609375,0.9056165576171875
-0.34737134765625,0.03413972412109375,0.9407611816406249
-0.321841171875,0.0012976196289062499,0.9626344091796875
-0.30652306640625,-0.05850442138671875,0.9611598095703124
-0.22944625,0.06060947998046875,0.9808211376953125
-0.259596171875,0.0123266845703125,0.9931094677734374
-0.26129818359375,-0.0249270458984375,1.0058893310546875
-0.29169125,0.0907555908203125,1.051847685546875
-0.2503566796875,0.00816014892578125,0.9931094677734374
-0.36585033203125,0.03855135009765625,0.94518498046875
-0.20586123046875,0.03119864013671875,0.9390408154296875
-0.3033621875,-0.00409436767578125,0.8864467626953125
-0.29631099609375,0.05080586669921875,0.9857364697265625
-0.28998923828125,-0.06659240234375,0.9363373828125
-0.2960678515625,0.0010525292968750002,0.94518498046875
-0.26956509765625,0.024581201171875,0.9744312060546875
-0.3437241796875,-0.08227818359375,0.918150654296875
-0.20099833984375,0.055952763671875,0.9729566064453125
-0.30117388671875,0.0142874072265625,1.0009739990234374
-0.30992708984375,0.042227705078125,0.993355234375
-0.2114535546875,0.055462583007812497,0.9154472216796875
-0.2873146484375,0.00521906494140625,0.903404658203125
-0.32597462890625,0.06796218994140625,0.92159138671875
-0.2649453515625,0.00325834228515625,0.8970147265625
-0.23260712890625002,-0.0161037939453125,0.914709921875
-0.32305689453124997,0.032424091796875,0.9604225097656249
-0.34348103515625,0.011346323242187501,0.9709904736328125
-0.23649744140625,0.05497240234375,0.9749227392578125
-0.312115390625,0.0358553564453125,0.9638632421875
-0.27053767578125,-0.0200252392578125,0.9754142724609375
-0.23941517578125,0.055952763671875,0.9660751416015625
-0.29436583984375,-0.02076051025390625,0.9677955078125
-0.2620276171875,-0.01978014892578125,0.9754142724609375
-0.3189234375,-0.0018885546875000003,0.9095488232421876
-0.25400384765625,-0.0121823486328125,0.9749227392578125
-0.32062544921875,0.05497240234375,0.964354775390625
-0.20464550781250002,0.0613447509765625,0.9577190771484375
-0.3028758984375,0.05497240234375,0.991880634765625
-0.26251390625,0.02580665283203125,1.0830600439453124
-0.302389609375,-0.023456503906250002,1.0309575244140625
-0.27296912109375,0.03757098876953125,1.0108046630859375
-0.24695265625,0.0378160791015625,0.9414984814453125
-0.3155194140625,-0.05115171142578125,0.9247863525390625
-0.27613,0.03904153076171875,0.984016103515625
-0.251815546875,0.024091020507812498,0.921099853515625
-0.284883203125,-0.02468195556640625,0.917167587890625
-0.25205869140625,0.004973974609375,0.9154472216796875
-0.273212265625,0.0211499365234375,0.906845390625
-0.28658521484375,0.021640117187500002,0.936828916015625
-0.3670660546875,0.0368357177734375,0.9857364697265625
-0.3116291015625,0.0574233056640625,1.036118623046875
-0.312115390625,0.0037485229492187503,0.938795048828125
-0.27005138671875,0.06796218994140625,0.923065986328125
-0.236254296875,0.04688442138671875,0.977626171875
-0.3019033203125,0.028502646484374998,0.9913891015625
-0.30895451171875,0.0397768017578125,0.9953213671875
-0.29631099609375,0.024581201171875,0.9518206787109375
-0.33132380859375,-0.00458454833984375,0.8812856640625
-0.25059982421875,-0.0018885546875000003,0.867522734375
-0.27151025390625,0.028502646484374998,0.8854636962890625
-0.2561921484375,-0.0038492773437499997,0.97860923828125
-0.3466419140625,0.0025230712890624996,1.0004824658203124
-0.279047734375,-0.01487834228515625,1.0162115283203126
-0.280992890625,0.02923791748046875,1.0228472265625
-0.29533841796875,0.02360083984375,0.971236240234375
-0.242089765625,-0.00507472900390625,0.96877857421875
-0.29193439453125003,0.064776015625,0.9911433349609375
-0.29096181640625,0.010611052246093749,0.9749227392578125
-0.17765646484375,-0.0006631030273437505,0.9798380712890625
-0.3281629296875,0.02139502685546875,0.992863701171875
-0.21996361328125,-0.0249270458984375,1.00220283203125
-0.34056330078125,-0.00262382568359375,0.9532952783203125
-0.2824517578125,0.01183650390625,0.973202373046875
-0.30627992187499997,-0.04379900146484375,0.938795048828125
-0.29387955078125,0.04884514404296875,1.008592763671875
-0.31965287109375,0.0255615625,1.0130165625
-0.22750109375,-0.02174087158203125,0.9582106103515625
-0.28269490234375,-0.00777072265625,0.9670582080078125
-0.24865466796875,-0.0239466845703125,0.9088115234375
-0.2192341796875,-0.04330882080078125,0.79575888671875
-0.2347954296875,0.00276816162109375,0.7561904638671875
-0.2017277734375,-0.028358310546875,0.893573994140625
-0.32257060546875,0.0338946337890625,1.0078554638671875
-0.32402947265625,0.0427178857421875,1.1447474609375
-0.30409162109375,0.032424091796875,1.1346710302734375
-0.29922873046875,0.09247122314453125,1.0791277783203126
-0.26859251953125,0.03168882080078125,1.049881552734375
-0.29533841796875,0.02335574951171875,1.027271025390625
-0.279047734375,0.004973974609375,1.0024485986328124
-0.27613,-0.00507472900390625,0.9208540869140625
-0.2289599609375,0.00619942626953125,0.937811982421875
-0.23649744140625,-0.01781942626953125,0.9183964208984375
-0.24087404296875,-0.0371815625,0.9208540869140625
-0.316005703125,0.03757098876953125,0.9719735400390626
-0.27515742187500003,-0.011201987304687501,0.9970417333984375
-0.3067662109375,0.026296833496093748,1.005643564453125
-0.35588140625,0.015022678222656249,1.024321826171875
-0.26567478515625,0.06600146728515625,1.0385762890625
-0.33715927734375,0.0289928271484375,0.9891772021484375
-0.37922328125,0.010611052246093749,0.9881941357421875
-0.2542469921875,0.024581201171875,0.9778719384765625
-0.28609892578125,-0.042083369140625,0.903404658203125
-0.28658521484375,-0.00850599365234375,0.9191337207031249
-0.24573693359375,-0.02517213623046875,0.927981318359375
-0.33181009765625,-0.0337502978515625,0.936828916015625
-0.279047734375,-0.01438816162109375,0.945676513671875
-0.29096181640625,0.07041309326171875,0.9832788037109375
-0.30141703125,-0.0092412646484375,0.9992536328125
-0.25886673828125,0.04320806640625,1.042017021484375
-0.33910443359375,0.0025230712890624996,0.9815584374999999
-0.30700935546875,-0.02321141357421875,0.926998251953125
-0.24087404296875,-0.0141430712890625,0.8023945849609375
-0.199296328125,-0.0023787353515625003,0.7915808544921875
-0.3038484765625,-0.014633251953124999,0.8812856640625
-0.23795630859375,0.016738310546875,1.0412797216796874
-0.28196546875,0.0731090869140625,1.080356611328125
-0.2892598046875,0.09002031982421875,1.0427543212890624
-0.21510072265625,0.03708080810546875,0.9380577490234375
-0.21753216796875,0.05374695068359375,0.9886856689453125
-0.3291355078125,0.019679394531249998,1.0978060400390626
-0.28366748046875,-0.0415931884765625,1.0928907080078125
-0.25303126953125,0.030463369140625002,1.044966220703125
-0.3826273046875,-0.02149578125,0.9272440185546875
-0.23990146484375,-0.008751083984375,0.94911724609375
-0.349073359375,0.0201695751953125,0.9523122119140625
-0.2955815625,-0.0151234326171875,1.00416896484375
-0.23819945312500002,-0.0151234326171875,0.9166760546875
-0.28974609375,-0.00948635498046875,0.8655566015625
-0.23309341796875,0.00325834228515625,0.8481071728515625
-0.2250696484375,-0.0023787353515625003,0.8594124365234375
-0.3155194140625,0.07825598388671876,1.00613509765625
-0.31697828125,0.03512008544921875,1.0747039794921875
-0.32159802734375,0.0010525292968750002,1.0535680517578125
-0.31819400390625,-0.032279755859375,0.9980247998046875
-0.21655958984375,0.01208159423828125,0.950591845703125
-0.2610550390625,0.03168882080078125,0.997779033203125
-0.3592854296875,-0.042328459472656246,0.9827872705078124
-0.2873146484375,0.0701680029296875,0.9700074072265625
-0.25205869140625,0.010856142578125,0.938303515625
-0.30457791015625,0.00816014892578125,0.98450763671875
-0.2318776953125,0.0515411376953125,0.9704989404296875
-0.18300564453125,-0.06389640869140625,0.8775991650390624
-0.2756437109375,0.011346323242187501,0.89209939453125
-0.288773515625,0.00423870361328125,0.955507177734375
-0.2659179296875,-0.01879978759765625,1.022355693359375
-0.3242726171875,0.069677822265625,1.0975602734375
-0.35320681640625,0.0142874072265625,1.0806023779296874
-0.296554140625,0.05374695068359375,1.040542421875
-0.31041337890625,0.00178780029296875,0.96484630859375
-0.25740787109375,-0.06389640869140625,0.896523193359375
-0.1910294140625,-0.05213207275390625,0.825742412109375
-0.23941517578125,-0.00752563232421875,0.7969877197265625
-0.24136033203125,-0.0288484912109375,0.8495817724609375
-0.3077387890625,-0.01634888427734375,0.966320908203125
-0.31576255859375,-0.02149578125,1.0653648486328124
-0.2736985546875,0.0030132519531249997,1.0919076416015625
-0.36633662109375,0.0280124658203125,1.0447204541015624
-0.29971501953125,0.04541387939453125,1.0191607275390624
-0.27199654296875,0.06453092529296875,0.9193794873046874
-0.29971501953125,-0.0092412646484375,0.9120064892578125
-0.29242068359375,0.04247279541015625,0.9675497412109375
-0.2552195703125,0.04712951171875,0.910286123046875
-0.33764556640625,0.015022678222656249,0.8810398974609375
-0.28196546875,0.053992041015625,0.853268271484375
-0.26810623046875,0.03144373046875,0.8407341748046875
-0.203186640625,-0.030319033203124998,0.8913620947265625
-0.26154132812499997,-0.00262382568359375,1.04742388671875
-0.24719580078125,-0.0229663232421875,1.0899415087890625
-0.30141703125,0.033404453125,1.0840431103515624
-0.3164919921875,0.05423713134765625,1.0621698828125
-0.25157240234375,-0.013407800292968751,1.00416896484375
-0.33278267578125,0.03119864013671875,0.9835245703125
-0.23941517578125,0.00865032958984375,0.9552614111328125
-0.24865466796875,0.0059543359375,0.9228202197265625
-0.3067662109375,-0.0063001806640625,0.9503460791015625
-0.20391607421875,0.01306195556640625,1.072492080078125
-0.34007701171875,-0.036201201171875,1.05528841796875
-0.26227076171875,0.0397768017578125,1.053813818359375
-0.3048210546875,0.012816865234374999,0.9945840673828125
-0.31868029296875,-0.03644629150390625,0.998762099609375
-0.2386857421875,-0.00948635498046875,1.0358728564453126
-0.290718671875,-0.0729647509765625,0.89799779296875
-0.26275705078125,-0.0121823486328125,0.8746499658203125
-0.2411171875,0.01257177490234375,0.8682600341796876
-0.310170234375,0.04124734375,0.967303974609375
-0.29387955078125,0.021885207519531248,0.991880634765625
-0.23309341796875,0.0780108935546875,1.02383029296875
-0.296554140625,0.061834931640625,0.9972875
-0.413263515625,0.02335574951171875,0.9990078662109375
-0.20026890625,0.0495804150390625,1.0383305224609374
-0.27637314453125,0.03168882080078125,1.0078554638671875
-0.26421591796875,0.0044837939453125,0.946168046875
-0.23163455078125,0.08511851318359374,0.957473310546875
-0.3339983984375,0.04737460205078125,0.9913891015625
-0.3417790234375,0.1123235400390625,1.05725455078125
-0.32743349609375,0.0574233056640625,1.0425085546875
-0.29679728515625,0.0044837939453125,1.0575003173828126
-0.203186640625,0.0054641552734375,0.9139726220703125
-0.2853694921875,0.030463369140625002,0.8365561425781249
-0.19127255859375,-0.0141430712890625,0.83704767578125
-0.30117388671875,0.0956573974609375,1.006626630859375
-0.37338781249999997,0.026296833496093748,1.1523662255859375
-0.31041337890625,-0.03448556884765625,1.191443115234375
-0.329621796875,0.013552136230468751,1.0648733154296874
