ax,ay,az
-0.13291787109375,-0.0063001806640625,1.261240830078125
-0.21315556640625,-0.2111956982421875,1.372327333984375
-0.051464453125000004,-0.12467881103515625,1.2639442626953126
0.016616015625,0.04933532470703125,1.159984990234375
-0.0354169140625,-0.05458297607421875,1.1882481494140624
-0.39745912109375,-0.0876701708984375,1.394937861328125
-0.58151953125,-0.08007237060546875,1.159984990234375
-0.52535314453125,-0.057769150390625,0.93437125
-0.42469130859375,-0.05164189208984375,0.660587255859375
-0.005996425781250002,-0.09869923583984375,0.519025693359375
0.06013888671875,-0.0768861962890625,0.4612705419921875
0.08396705078125,-0.053847705078125,0.6637822216796875
-0.0052669921875,-0.1935491943359375,1.0179318945312499
-0.42615017578125003,-0.17565760009765624,1.0171945947265626
-0.45581380859375,-0.25874322265625,1.0820769775390624
-0.2454937890625,-0.10311086181640625,0.98057537109375
-0.15528716796875,-0.06193568603515625,0.9397781152343749
-0.0636216796875,0.0642858349609375,0.9097945898437501
-0.13024328125,0.03315936279296875,0.812471015625
-0.30360533203125,-0.012427438964843749,0.8852179296875
-0.15771861328125,-0.011201987304687501,1.054796884765625
-0.2377131640625,-0.22859711181640624,1.1066536376953124
-0.42323244140625,-0.096983603515625,1.1086197705078125
-0.42225986328125,-0.1513936572265625,0.8058353173828126
-0.214857578125,-0.16977543212890625,0.64436666015625
-0.0422249609375,-0.13717841796875,0.609467802734375
0.0326635546875,-0.1327667919921875,0.7301392041015625
-0.061190234375,-0.09183670654296874,0.979100771484375
-0.30311904296875003,-0.04968116943359375,1.1179589013671876
-0.30214646484375,0.0652661962890625,0.9616513427734374
-0.4176401171875,0.0020328906249999995,0.7217831396484375
-0.2075632421875,-0.06267095703125,0.6047982373046875
-0.0310403125,-0.11561046875,0.5463057861328124
-0.0033218359375,-0.16830489013671876,0.5546618505859375
0.06986466796875,-0.15408965087890625,0.707774443359375
-0.01085931640625,-0.2592334033203125,0.9424815478515625
-0.255705859375,-0.29869294677734376,1.200290712890625
-0.411318359375,-0.23006765380859376,1.268122294921875
-0.4555706640625,-0.01095689697265625,1.278936025390625
-0.27199654296875,0.12090170166015625,1.0609410498046874
0.09515169921875,0.08242251953125,0.921099853515625
0.15788298828125,0.0074248779296875,1.0211268603515624
-0.1404553515625,-0.07762146728515625,1.160968056640625
-0.298499296875,-0.1170810107421875,1.217494375
-0.21461443359375,-0.1062970361328125,1.158018857421875
-0.36220316406249997,-0.0778665576171875,1.0633987158203124
-0.28391062499999997,-0.19281392333984376,0.880794130859375
-0.09839134765625,-0.0808076416015625,0.8269712451171874
-0.268349375,-0.1229631787109375,0.9026673583984375
-0.1599069140625,-0.139139140625,0.9992536328125
-0.13826705078125,-0.14134495361328125,0.9363373828125
-0.24184662109375,-0.1494329345703125,0.948625712890625
-0.129270703125,-0.1945295556640625,0.9009469921875
-0.1521262890625,-0.12933552734375,0.90586232421875
-0.15674603515625,-0.14624676025390626,1.0049062646484375
-0.19516287109375,-0.2200189501953125,1.10247560546875
-0.2620276171875,-0.2023724462890625,1.10837400390625
-0.10422681640625,-0.1474722119140625,0.9218371533203125
-0.113709453125,-0.21340151123046874,0.896523193359375
-0.19078626953125,-0.0415931884765625,0.9677955078125
-0.3967296875,-0.116590830078125,0.831640810546875
-0.37752126953125,-0.08595453857421875,0.7665126611328125
-0.29242068359375,0.00963069091796875,0.7311222705078125
-0.08234380859375,-0.01978014892578125,0.6893419482421875
0.037526445312500004,0.00570924560546875,0.797233486328125
0.047981660156249994,-0.11291447509765624,0.9685328076171875
-0.01231818359375,-0.10016977783203125,1.22044357421875
-0.3967296875,-0.0719843896484375,1.46031177734375
-0.47648109375000003,-0.0288484912109375,1.312360283203125
-0.45581380859375,0.07629526123046874,1.0184234277343749
-0.377278125,0.10913736572265625,0.70531677734375
-0.004537558593750001,0.0037485229492187503,0.5944760400390625
0.0871279296875,-0.08252327392578125,0.61094240234375
-0.046358417968749996,-0.05605351806640625,0.7684787939453125
-0.3072525,0.02286556884765625,0.8854636962890625
-0.4536255078125,0.03364954345703125,1.052830751953125
-0.09523046875,-0.1847259423828125,1.056271484375
0.061354609375,-0.12860025634765626,1.2546051318359375
-0.321841171875,0.06649164794921875,1.4620321435546875
-0.26372962890625,-0.048455717773437504,1.0747039794921875
-0.2766162890625,-0.05703387939453125,0.9056165576171875
-0.15358515625,-0.02517213623046875,0.789368955078125
-0.16914640625,-0.139139140625,0.702859111328125
-0.17473873046875,-0.048945898437499996,0.6768078515625
-0.2396583203125,-0.05556333740234375,0.6669771875
-0.022773398437500002,-0.13301188232421876,0.714164375
0.12530162109375,-0.1082577587890625,1.0240760595703124
0.08056302734375,-0.0759058349609375,1.5158550292968749
-0.374360390625,-0.1974706396484375,1.7972577880859375
-0.6111831640625,-0.02076051025390625,1.518804228515625
-0.5275414453125,-0.0033590966796874996,0.9936010009765625
-0.4108320703125,0.024091020507812498,0.62667146484375
-0.032499179687500004,0.00521906494140625,0.5831707763671875
0.0696215234375,0.034384814453125,0.7239950390625
-0.0295814453125,-0.0925719775390625,0.775606025390625
-0.0140201953125,-0.22369530517578126,0.9056165576171875
-0.20002576171875,-0.31633945068359376,1.087729609375
-0.39162365234375,-0.24918469970703125,1.2727918603515624
-0.4857205859375,-0.1415900439453125,1.1130435693359375
-0.2921775390625,-0.0004180126953125,0.828200078125
-0.11103486328125,-0.09967959716796874,0.6264256982421875
-0.06799828125,-0.13791368896484374,0.62273919921875
-0.05632734375,-0.1259042626953125,0.5733401123046875
-0.022773398437500002,-0.10164031982421876,0.543602353515625
-0.14191421875,-0.1366882373046875,0.6382224951171875
-0.203186640625,-0.08840544189453126,0.86260740234375
-0.13802390625,-0.20408807861328124,0.93338818359375
-0.214857578125,-0.24697888671875,1.0235845263671874
-0.22434021484375,-0.22075422119140625,1.0442289208984374
-0.214857578125,-0.09477779052734375,1.0525849853515625
-0.19516287109375,0.07433453857421875,1.1100943701171875
-0.23114826171875,0.1162449853515625,0.9945840673828125
-0.19832375,0.10129447509765625,0.79575888671875
-0.19078626953125,0.0211499365234375,0.741198701171875
-0.09085386718749999,0.02580665283203125,0.8844806298828125
-0.013047617187499999,0.0368357177734375,1.021372626953125
-0.300444453125,-0.04870080810546875,1.3366911767578125
-0.37217208984375,-0.01561361328125,1.456871044921875
-0.3048210546875,0.00325834228515625,1.286800556640625
-0.18932740234375,-0.0602200537109375,1.05332228515625
-0.253760703125,-0.0719843896484375,0.8105048828125
-0.14969484375,-0.0964934228515625,0.69351998046875
-0.0850183984375,-0.11928682373046876,0.742181767578125
-0.08088494140625,-0.10115013916015625,0.8068183837890625
0.03728330078125,-0.06487677001953125,0.874895732421875
-0.092312734375,-0.0347306591796875,1.1302472314453125
-0.28755779296875,-0.11585555908203125,1.22240970703125
-0.3126016796875,-0.06585713134765625,1.18603625
-0.2309051171875,-0.06291604736328126,1.192426181640625
-0.304334765625,-0.12467881103515625,1.2954023876953125
-0.25254498046875,-0.17663796142578125,1.09952640625
-0.152612578125,-0.025662316894531252,0.859658203125
-0.177899609375,-0.02517213623046875,0.8161575146484374
-0.24525064453125,-0.14673694091796874,0.762826162109375
-0.35174794921875,-0.12026718505859375,0.7586481298828125
-0.0011335351562500005,-0.08227818359375,0.852285205078125
-0.0286088671875,-0.18055940673828125,1.0766701123046876
-0.1637972265625,-0.06830803466796875,1.2074179443359374
-0.22361078125,-0.19624518798828125,1.2374014697265625
-0.18884111328125,-0.11291447509765624,1.1469593603515624
-0.39794541015625,0.0030132519531249997,1.0486527197265625
-0.37898013671874997,0.0162481298828125,1.041033955078125
-0.222638203125,-0.20898988525390624,1.1336879638671875
-0.2912049609375,-0.12933552734375,1.3730646337890624
-0.16938955078125,-0.17075579345703126,1.125577666015625
-0.002106113281250002,-0.2562923193359375,0.843929140625
0.02512607421875,-0.1857063037109375,0.938795048828125
-0.1608794921875,-0.22859711181640624,1.319241748046875
-0.54869501953125,-0.130315888671875,1.2319946044921875
-0.43927998046875,-0.19281392333984376,0.7576650634765625
-0.15528716796875,-0.263645029296875,0.65812958984375
-0.086477265625,-0.2308029248046875,0.51066962890625
-0.01815365234375,-0.1857063037109375,0.4150664208984375
-0.01426333984375,-0.1739419677734375,0.3880320947265625
0.00980796875,-0.1161006494140625,0.5069831298828125
-0.007455292968749999,-0.07271966064453125,0.7035964111328125
-0.2143712890625,-0.169530341796875,0.9154472216796875
-0.1710915625,-0.32369216064453127,1.0466865869140625
-0.3242726171875,-0.18595139404296876,1.128526865234375
-0.12124693359375,0.05129604736328125,0.8869382958984375
-0.27540056640625,-0.07173929931640625,0.70629984375
-0.22288134765625,-0.0006631030273437505,0.6111881689453125
-0.15771861328125,-0.00262382568359375,0.5153391943359376
-0.006239570312500001,0.028257556152343752,0.5064915966796875
0.041903046875,0.0829127001953125,0.61192546875
0.0355812890625,0.15031254150390624,0.709740576171875
-0.04781728515625,0.29025912109375,1.0855177099609374
-0.3602580078125,0.30913107666015627,1.3460303076171876
-0.4584883984375,0.3152583349609375,1.292207421875
-0.27977716796875,0.36084513671875,1.154086591796875
-0.11492517578125,0.365746943359375,1.0778989453125
-0.061190234375,0.35300224609374997,1.123611533203125
-0.31284482421875,-0.098944326171875,1.063644482421875
-0.296554140625,-0.23447927978515626,0.914218388671875
-0.2600824609375,-0.2337440087890625,0.7615973291015625
-0.117599765625,-0.2209993115234375,0.827708544921875
-0.1871391015625,-0.22026404052734375,0.9365831494140625
-0.02982458984375,-0.03742665283203125,0.9631259423828125
-0.17619759765625,-0.0023787353515625003,1.0471781201171875
-0.16890326171875,0.08315779052734375,1.072492080078125
-0.2104809765625,0.13560712158203125,1.12410306640625
-0.18592337890625,0.09002031982421875,1.1312302978515625
-0.160393203125,0.08462833251953125,1.08379734375
-0.32305689453124997,0.03610044677734375,1.0771616455078126
-0.15917748046875,-0.12149263671875,1.0393135888671874
-0.1239215234375,-0.1102184814453125,1.159001923828125
-0.23892888671875,-0.23545964111328124,1.2831140576171876
-0.2036729296875,-0.3070260180664062,1.269105361328125
-0.2566784375,-0.34109357421875,1.2973685205078125
-0.26178447265625,-0.336191767578125,1.340869208984375
-0.43927998046875,-0.27957590087890627,1.2388760693359375
-0.33861814453125,-0.18153976806640626,1.07494974609375
-0.20975154296875,-0.03546593017578125,1.1066536376953124
-0.005996425781250002,-0.0543378857421875,1.1277895654296874
-0.06289224609374999,-0.053847705078125,1.266156162109375
-0.2707808203125,0.02433611083984375,1.377242666015625
-0.2279873828125,0.03413972412109375,1.28139369140625
-0.3942982421875,0.00619942626953125,1.2017653125
-0.27807515625,0.044188427734375,1.2167570751953125
-0.330594375,-0.0710040283203125,1.0275167919921875
-0.2377131640625,-0.09575815185546875,0.9196252539062499
-0.06921400390625,-0.27075264892578127,0.8643277685546875
-0.08817927734375,-0.31879035400390626,1.035135556640625
-0.14945169921875,-0.26634102294921874,1.205206044921875
-0.22190876953125,-0.19379428466796875,1.12606919921875
-0.24525064453125,-0.233253828125,0.8997181591796874
-0.29922873046875,-0.1602169091796875,0.8240220458984375
-0.207076953125,-0.13840386962890625,0.6984353125
0.03485185546875,-0.18350049072265626,0.787402822265625
-0.0699434375,-0.17957904541015626,0.973202373046875
-0.16793068359375,-0.079337099609375,0.9056165576171875
-0.18835482421875,-0.17418705810546875,0.7448852001953125
-0.1472633984375,-0.2357047314453125,0.553433017578125
-0.05413904296875,-0.16144236083984376,0.490025234375
-0.02350283203125,-0.065612041015625,0.505262763671875
-0.02715,0.05105095703125,0.662553388671875
-0.02909515625,0.11256863037109376,0.9877026025390625
-0.22750109375,0.01649322021484375,1.208155244140625
-0.4283384765625,0.03217900146484375,1.3774884326171875
-0.36974064453125,0.17727247802734375,1.1680952880859374
-0.2445212109375,0.2020266015625,1.029237158203125
-0.2610550390625,0.12163697265625,0.96288017578125
-0.29387955078125,0.15423398681640624,0.8812856640625
-0.25205869140625,0.12923477294921876,0.716622041015625
0.045793359374999995,0.09418685546875,0.6229849658203125
0.0997714453125,0.04296297607421875,0.6768078515625
0.0861553515625,-0.0006631030273437505,0.862115869140625
-0.15577345703125,-0.09796396484375,1.0088385302734375
-0.22336763671875,-0.12860025634765626,1.0186691943359376
-0.39818855468750003,-0.013162709960937501,1.1390948291015626
-0.43101306640625,-0.04919098876953125,1.0594664501953126
-0.16209521484375,0.0069346972656249995,0.937811982421875
-0.0801555078125,0.24491740966796874,0.9857364697265625
-0.15528716796875,0.0922261328125,1.0098215966796875
-0.2474389453125,-0.05654369873046875,1.0417712548828124
-0.3223274609375,-0.01830960693359375,1.094119541015625
-0.23819945312500002,0.04345315673828125,1.037101689453125
-0.19832375,0.0486000537109375,0.9577190771484375
-0.09790505859375,-0.2131564208984375,0.8648193017578125
-0.05948822265625,-0.25849813232421875,0.8065726171875
-0.051464453125000004,-0.24918469970703125,0.682214716796875
-0.09304216796875,-0.26487048095703125,0.6632906884765625
-0.1268392578125,-0.2788406298828125,0.631095263671875
-0.121490078125,-0.25261596435546874,0.61684080078125
-0.1599069140625,-0.2523708740234375,0.7532412646484374
-0.22920310546875,0.0358553564453125,0.93928658203125
-0.29825615234375,0.17580193603515626,1.3275978125
-0.21947732421875,0.08854977783203125,1.42098912109375
-0.13437673828125,0.04100225341796875,1.331530078125
-0.28512634765625,0.20962440185546874,1.2666476953124999
-0.068970859375,0.13462676025390624,1.0491442529296875
-0.06678255859375,-0.05654369873046875,1.224867373046875
-0.35709712890625,0.08168724853515624,1.5537030859375
-0.59489248046875,-0.05482806640625,1.5991699072265626
-0.31989601562500003,-0.0857094482421875,1.19390078125
-0.41618125,0.0020328906249999995,0.8903790283203125
-0.32086859375,-0.014633251953124999,0.6298664306640624
-0.21023783203125002,-0.02223105224609375,0.5118984619140625
-0.17911533203125,0.00276816162109375,0.5455684863281249
-0.08720669921875,-0.03938737548828125,0.6180696337890625
-0.0529233203125,-0.22075422119140625,0.768724560546875
-0.013290761718750002,-0.26585084228515626,1.0363643896484376
0.07861787109375,-0.2396261767578125,1.44458271484375
-0.12440781249999999,-0.34918155517578126,1.8090545849609374
-0.706982109375,-0.2540865063476562,1.816673349609375
-0.63136416015625,-0.12418863037109375,1.18898544921875
-0.31430369140625003,-0.16389326416015626,0.891607861328125
-0.22531279296875,-0.04379900146484375,0.8026403515625
-0.24476435546875,-0.0690433056640625,0.7257154052734375
-0.11054857421875,-0.27859553955078126,0.787402822265625
-0.0821006640625,-0.28741879150390626,0.9547698779296875
-0.2114535546875,-0.2516356030273437,1.0004824658203124
-0.41034578125,-0.23913599609375,0.8363103759765624
-0.13145900390625,-0.18202994873046874,0.707774443359375
0.0389853125,-0.21928367919921876,0.6768078515625
0.08153560546875,-0.1847259423828125,0.7434106005859376
0.05722115234375,-0.15261910888671876,0.9284728515625
-0.02885201171875,0.00791505859375,1.0058893310546875
-0.22385392578125,-0.0847290869140625,1.139340595703125
-0.09425789062500001,-0.11634573974609375,1.3534033056640624
-0.23892888671875,-0.014633251953124999,1.3976412939453124
-0.46408072265625,0.057913486328125,1.3076907177734376
-0.50833302734375,-0.0308092138671875,0.9665666748046875
-0.41399294921875,-0.10752248779296875,0.685163916015625
-0.244034921875,-0.20776443359375,0.332243076171875
0.06597435546875,-0.1131595654296875,0.367633466796875
0.074970703125,-0.06046514404296875,0.3782014306640625
0.09150453124999999,-0.03914228515625,0.4145748876953125
0.040201035156249995,-0.0945327001953125,0.7276815380859375
-0.09790505859375,-0.20506843994140625,0.8490902392578125
-0.07942607421875,-0.28643843017578124,1.0289913916015625
-0.03079716796875,-0.29869294677734376,1.191443115234375
0.052601406249999996,-0.15850127685546875,1.2619781298828125
0.006890234374999998,-0.15408965087890625,1.272054560546875
-0.347128203125,0.07580508056640625,1.1926719482421875
-0.41836955078125,0.07825598388671876,1.060695283203125
-0.38043900390625,0.089285048828125,1.0692971142578125
-0.352963671875,-0.10850284912109374,1.1975872802734375
-0.333512109375,0.03610044677734375,1.3951836279296874
-0.339347578125,0.1260485986328125,1.1671122216796874
-0.16914640625,0.1721255810546875,0.6849181494140625
-0.1112780078125,0.05129604736328125,0.4416092138671875
0.012482558593749998,-0.03350520751953125,0.3708284326171875
0.07083724609375,-0.10458140380859375,0.4475076123046875
0.07278240234375,-0.1533543798828125,0.6957318798828125
0.030232109375,-0.26094903564453126,1.133442197265625
-0.1083602734375,-0.25261596435546874,1.5890934765625
-0.34104958984375,-0.1161006494140625,1.73753650390625
-0.485234296875,-0.014633251953124999,1.538465556640625
-0.54042810546875,0.0338946337890625,1.3381657763671875
-0.4487626171875,0.07727562255859374,1.11034013671875
-0.17717017578125,0.1544790771484375,1.0570087841796876
-0.11978806640625,-0.10556176513671875,1.010558896484375
-0.1239215234375,-0.2053135302734375,1.1282810986328125
-0.1103054296875,-0.1778634130859375,0.95796484375
-0.0232596875,-0.12075736572265625,0.8697346337890625
0.07253925781250001,-0.15801109619140624,0.8967689599609375
-0.0932853125,-0.1587463671875,1.0597122167968749
-0.117599765625,-0.25310614501953127,1.13098453125
-0.0607039453125,-0.08644471923828125,1.24993556640625
-0.29971501953125,0.01453249755859375,1.38559873046875
-0.35077537109375,-0.0646316796875,1.31285181640625
-0.51805880859375,-0.10409122314453124,1.1076367041015625
-0.44462916015625,-0.03448556884765625,0.89406552734375
-0.35612455078125,-0.14330567626953125,0.5993913720703125
-0.18592337890625,-0.21732295654296874,0.50870349609375
-0.24719580078125,-0.24134180908203126,0.6571465234375
-0.035903203125000005,-0.1543347412109375,0.5541703173828125
0.051628828125,-0.0886505322265625,0.747097099609375
-0.11978806640625,-0.10801266845703125,0.8930824609375
-0.0344443359375,-0.18987283935546875,0.9360916162109375
-0.26081189453125,-0.09796396484375,0.8476156396484374
-0.16841697265625,0.0887948681640625,0.760860029296875
-0.032499179687500004,0.14345001220703124,0.8156659814453124
-0.2639727734375,0.01453249755859375,1.0127707958984375
-0.48766574218750003,-0.11585555908203125,1.10640787109375
-0.2027003515625,-0.130315888671875,1.05135615234375
-0.3641483203125,-0.07664110595703125,1.087238076171875
-0.199296328125,-0.233253828125,0.830657744140625
-0.0889087109375,-0.20065681396484375,0.90389619140625
-0.065080546875,0.05570767333984375,1.054796884765625
-0.26810623046875,-0.173451787109375,0.87243806640625
-0.11443888671875,-0.1562954638671875,0.853268271484375
0.010780546874999998,-0.13399224365234375,0.875878798828125
0.04555021484375,0.06060947998046875,0.94223578125
-0.17279357421875,-0.055073156738281254,0.8407341748046875
-0.10908970703125,-0.1562954638671875,0.8520394384765625
-0.185680234375,-0.0170841552734375,0.9242948193359375
-0.26227076171875,0.00987578125,1.1091113037109375
-0.41618125,-0.013162709960937501,1.2595204638671875
-0.4361191015625,0.004973974609375,1.2423168017578126
-0.2892598046875,-0.07517056396484376,1.1538408251953125
-0.30555048828125,0.04394333740234375,0.95796484375
-0.12829812499999999,-0.13325697265625,0.8242678125
0.07764529296875,-0.19624518798828125,0.8419630078125
-0.0237459765625,-0.2268814794921875,0.9127437890625
-0.10422681640625,0.0142874072265625,0.7552073974609375
-0.0276362890625,-0.1866866650390625,0.6632906884765625
0.0467659375,-0.2111956982421875,0.7439021337890624
-0.04733099609375,-0.183255400390625,1.0894499755859375
-0.10714455078125,-0.03742665283203125,1.17522251953125
-0.13340416015625,0.0182088525390625,1.392971728515625
-0.4477900390625,-0.044534272460937496,1.4458115478515625
-0.570821171875,0.033404453125,1.2821309912109375
-0.491069765625,0.11403917236328125,1.1356540966796875
-0.2970404296875,0.080461796875,0.9857364697265625
-0.2523018359375,0.05668803466796875,1.1096028369140625
-0.17327986328125,-0.05017135009765625,0.9960586669921875
0.005674511718750001,-0.19992154296875,0.791335087890625
0.018561171875,-0.183255400390625,0.70728291015625
0.0268280859375,-0.1626678125,0.68958771484375
-0.051464453125000004,-0.06928839599609375,0.780521357421875
-0.04733099609375,-0.22124440185546876,1.0383305224609374
0.0278006640625,-0.2670762939453125,1.31678408203125
-0.1608794921875,-0.1906081103515625,1.570906748046875
-0.55015388671875,-0.00703545166015625,1.4408962158203125
-0.5693623046875,-0.1116890234375,1.0923991748046875
-0.47283392578125,-0.1665892578125,0.793301220703125
-0.24525064453125,-0.06830803466796875,0.5988998388671875
0.02026318359375,-0.08546435791015625,0.5925099072265625
0.086641640625,-0.11438501708984375,0.5846453759765625
0.02658494140625,-0.139139140625,0.8019030517578125
0.00227048828125,-0.130315888671875,1.125577666015625
-0.12829812499999999,-0.12320826904296875,1.5795085791015624
-0.4011062890625,-0.05556333740234375,1.6126870703125
-0.329621796875,0.08462833251953125,1.1435186279296874
-0.228473671875,-0.03889719482421875,0.90782845703125
-0.2075632421875,0.0008074389648437498,0.7908435546875
0.0608683203125,-0.06536695068359374,0.74267330078125
-0.0388209375,-0.1116890234375,1.0063808642578125
-0.38043900390625,-0.10654212646484375,1.1705529541015625
-0.56279740234375,-0.1665892578125,1.185544716796875
-0.27807515625,-0.17369687744140624,0.9793465380859375
-0.16258150390625,0.01453249755859375,1.040050888671875
-0.27807515625,0.0701680029296875,0.8810398974609375
0.0545465625,-0.13105115966796876,0.8065726171875
0.0258555078125,-0.18497103271484375,0.8043607177734375
-0.014992773437499999,0.07972652587890625,0.861132802734375
-0.14847912109375,-0.265605751953125,0.8540055712890625
-0.07845349609375,-0.29183041748046873,0.74660556640625
-0.30627992187499997,-0.107767578125,0.7846993896484376
-0.21461443359375,-0.12541408203125,0.7316138037109375
-0.050491875000000006,-0.12271808837890624,0.915201455078125
-0.04246810546875,0.01575794921875,1.307936484375
-0.24184662109375,-0.0011532836914062497,1.3828952978515625
-0.5333769140625,0.004973974609375,1.33644541015625
-0.2386857421875,-0.00360418701171875,0.8800568310546875
-0.04052294921875,0.055462583007812497,0.9542783447265625
-0.09061072265625,0.10202974609375,1.20274837890625
-0.24938410156250002,-0.07958218994140626,1.3406234423828125
-0.17084841796875,-0.17222633544921875,1.2364184033203125
-0.1657423828125,-0.0092412646484375,0.94321884765625
-0.0655668359375,-0.139139140625,0.726452705078125
-0.02690685546875,-0.11389483642578124,0.9395323486328125
-0.32840607421875,-0.18644157470703124,1.08478041015625
-0.4409819921875,-0.03889719482421875,1.0835515771484374
-0.21972046875,-0.16830489013671876,0.9252778857421875
-0.31673513671875,-0.2602137646484375,1.0329236572265625
-0.26032560546875,-0.29869294677734376,0.820335546875
-0.257651015625,-0.22663638916015624,0.6500192919921874
0.09028880859374999,-0.0661022216796875,0.7807671240234375
0.1688244921875,0.00178780029296875,1.00810123046875
0.1590987109375,0.0093856005859375,1.3376742431640625
-0.35977171875,-0.217568046875,1.3229282470703125
-0.4166675390625,-0.11389483642578124,0.9542783447265625
-0.14361623046875,-0.06046514404296875,0.625196865234375
-0.2114535546875,0.01551285888671875,0.6387140283203125
-0.02520484375,0.02923791748046875,0.6957318798828125
-0.08477525390625,-0.1195319140625,0.85867513671875
-0.280992890625,-0.16977543212890625,1.1056705712890624
-0.05851564453125,-0.280311171875,1.2177401416015625
-0.11832919921875,-0.1396293212890625,1.406243125
-0.20197091796875,0.014777587890624999,1.3745392333984374
-0.38919220703125,-0.06977857666015624,1.2211808740234376
-0.28415376953125,-0.07615092529296875,1.0589749169921876
-0.01572220703125,-0.2121760595703125,1.026287958984375
0.14961607421875,-0.0435539111328125,1.133442197265625
-0.3349709765625,0.1103628173828125,1.1838243505859376
-0.24695265625,-0.0072805419921875,1.0395593554687501
-0.1866528125,-0.22908729248046875,0.891116328125
0.0039725,-0.06683749267578125,0.9410069482421874
-0.24622322265625,-0.0092412646484375,0.945676513671875
-0.18251935546875,-0.1239435400390625,0.73874103515625
-0.1044699609375,-0.14502130859375,0.59914560546875
-0.19953947265625,-0.19428446533203125,0.5001016650390625
-0.15285572265625,-0.19379428466796875,0.419735986328125
-0.04100923828125,-0.030319033203124998,0.53426322265625
-0.057543066406249996,-0.02737794921875,0.8038691845703125
-0.14847912109375,-0.13938423095703126,1.0245675927734375
-0.121490078125,-0.233253828125,1.1553154248046875
-0.20683380859375,0.099088662109375,1.292698955078125
-0.2240970703125,0.0476196923828125,1.27156302734375
-0.35101851562499997,-0.08301345458984374,1.111814736328125
-0.06532369140625,-0.16879507080078124,0.9257694189453125
0.09126138671875,-0.191098291015625,0.944693447265625
0.021965195312499998,-0.14771730224609375,1.089204208984375
-0.119544921875,-0.18006922607421874,1.209138310546875
-0.2513292578125,-0.159726728515625,1.2747579931640625
-0.36487775390625,-0.21560732421875,1.11525546875
-0.26713365234374997,0.00178780029296875,0.962388642578125
-0.1141957421875,-0.044044091796875,0.901438525390625
-0.20148462890625,-0.171491064453125,0.8618701025390625
-0.0018629687499999992,-0.03301502685546875,0.9754142724609375
-0.166228671875,-0.2013920849609375,0.9616513427734374
-0.057299921875,-0.16585398681640626,0.8078014501953125
-0.15164,-0.10016977783203125,0.681231650390625
-0.04295439453125,-0.053847705078125,0.6800028173828125
-0.26178447265625,-0.0690433056640625,0.7203085400390625
-0.05851564453125,0.0843832421875,0.967303974609375
0.029502675781249998,-0.042328459472656246,1.3067076513671876
-0.20975154296875,0.00570924560546875,1.5618133837890624
-0.26810623046875,-0.01291761962890625,1.363479736328125
-0.2474389453125,-0.0121823486328125,1.1902142822265624
-0.30846822265625,-0.038161923828125,1.0245675927734375
-0.04465640625,-0.1739419677734375,0.863098935546875
-0.16136578125,-0.21340151123046874,0.861132802734375
-0.0889087109375,-0.09330724853515625,0.904387724609375
-0.051464453125000004,-0.289134423828125,0.7837163232421875
0.04555021484375,-0.23349891845703125,0.9009469921875
0.09466541015625,-0.10948321044921874,1.1604765234375
-0.28318119140625,-0.027868129882812502,1.3352165771484374
-0.52340798828125,0.02678701416015625,1.1140266357421875
-0.2561921484375,0.033404453125,0.8446664404296875
0.11168552734375001,-0.0371815625,0.8564632373046875
-0.1910294140625,0.1064413720703125,1.16145958984375
-0.0509781640625,0.03462990478515625,1.11230626953125
-0.25594900390624997,-0.18350049072265626,1.051847685546875
-0.2377131640625,0.083402880859375,0.8613785693359375
-0.15966376953125,-0.00605509033203125,0.7055625439453125
0.005431367187500001,-0.1651187158203125,0.7886316552734375
-0.28901666015625,-0.01561361328125,0.990897568359375
-0.10276794921875,-0.12761989501953125,0.8697346337890625
-0.002106113281250002,-0.20384298828125,0.725469638671875
-0.0067258593750000005,-0.04036773681640625,0.785436689453125
-0.08137123046875,-0.09428760986328125,0.76823302734375
-0.033958046875,-0.12761989501953125,0.921099853515625
-0.23649744140625,-0.08252327392578125,1.228799638671875
-0.2620276171875,-0.12271808837890624,1.3170298486328125
-0.0859909765625,-0.2317832861328125,1.233714970703125
-0.294608984375,-0.10507158447265624,1.08871267578125
-0.13632189453125,-0.06732767333984375,0.8431918408203125
0.05333083984375,-0.0935523388671875,0.7239950390625
0.104148046875,-0.073454931640625,0.938795048828125
-0.14945169921875,0.02727719482421875,1.3416065087890625
-0.25983931640625,-0.3077612890625,1.2968769873046875
-0.19516287109375,-0.010711806640625,0.9631259423828125
-0.205131796875,0.1240878759765625,0.6116797021484375
0.036067578125,-0.06242586669921875,0.48633873535156247
0.10536376953125,-0.01781942626953125,0.511161162109375
0.119709296875,0.0936966748046875,0.8785822314453124
-0.0937716015625,0.3365811938476562,1.4094380908203126
-0.42517759765625,0.20006587890625,1.7677657958984374
-0.3485870703125,0.13413657958984376,1.5677117822265625
-0.34737134765625,0.189281904296875,1.2703341943359374
-0.3437241796875,0.17237067138671874,1.0737209130859375
-0.1161408984375,-0.01928996826171875,0.89799779296875
0.004701933593749999,-0.16928525146484374,0.9188879541015624
0.005674511718750001,-0.22075422119140625,0.8908705615234375
0.0754569921875,-0.22418548583984374,0.7802755908203125
0.03728330078125,-0.23791054443359375,0.7999369189453125
-0.04392697265625,-0.30187912109375,1.0122792626953125
-0.033714902343750006,-0.3406033935546875,1.1646545556640624
-0.0665394140625,-0.173451787109375,1.1528577587890625
-0.23747001953125,0.07237381591796875,1.1248403662109374
-0.25692158203125,0.1819291943359375,1.163917255859375
-0.2668905078125,-0.04821062744140625,1.0791277783203126
-0.0286088671875,-0.2602137646484375,0.9901602685546875
-0.2805066015625,-0.2955067724609375,0.9242948193359375
-0.013533906250000002,-0.07370002197265625,0.64436666015625
0.0540602734375,-0.0435539111328125,0.58538267578125
0.03047525390625,-0.044044091796875,0.7463597998046875
-0.1297569921875,-0.09624833251953124,1.0255506591796875
-0.201241484375,-0.20359789794921876,1.3170298486328125
-0.3135742578125,-0.2278618408203125,1.5234737939453125
-0.138996484375,0.016738310546875,1.2786902587890625
-0.01912623046875,0.1927131689453125,1.122628466796875
0.14475318359375,0.12972495361328126,1.137374462890625
-0.10374052734375,-0.15359947021484374,1.0425085546875
-0.247925234375,-0.19526482666015624,0.9144641552734375
-0.28220861328125,-0.2768799072265625,0.7527497314453125
-0.13243158203125,-0.21438187255859376,0.536720888671875
0.030232109375,0.07335417724609375,0.693028447265625
0.088586796875,0.159871064453125,1.0034316650390624
0.08882994140625,-0.08350363525390625,1.3199790478515625
0.0025136328124999996,-0.3092318310546875,1.5519827197265625
0.078861015625,-0.055808427734375,1.5593557177734374
-0.3816547265625,-0.09404251953125001,1.2816394580078125
-0.3135742578125,-0.1111988427734375,0.997779033203125
-0.237226875,-0.013407800292968751,0.9614055761718749
-0.07188859375000001,0.18511536865234374,0.88620099609375
-0.30117388671875,0.26403445556640626,1.1946380810546875
-0.39065107421875,0.09835339111328124,1.119679267578125
0.1167915625,0.1407540185546875,1.0211268603515624
-0.06410796875,-0.04723026611328125,1.2098756103515624
-0.20148462890625,0.189281904296875,1.073475146484375
-0.04392697265625,-0.025662316894531252,0.806081083984375
-0.0821006640625,-0.175412509765625,0.6642737548828125
-0.081614375,0.182419375,0.8431918408203125
-0.03322861328125,0.24295668701171874,1.10247560546875
-0.1093328515625,0.224574912109375,1.4767781396484374
-0.02836572265625,-0.24575343505859376,1.530601025390625
0.01953375,-0.27835044921875,1.594500341796875
-0.4200715625,-0.21560732421875,1.271071494140625
-0.33229638671875,-0.20776443359375,0.5988998388671875
-0.1005796484375,-0.20727425292968749,0.3560824365234375
-0.0388209375,-0.21095060791015624,0.432515849609375
0.03922845703125,-0.208744794921875,0.7439021337890624
0.14621205078125,-0.23349891845703125,1.32858087890625
0.3049854296875,-0.14820748291015626,2.068338349609375
0.0618408984375,-0.2013920849609375,2.0029644335937498
-0.25546271484375,0.0289928271484375,1.469159375
-0.34785763671875003,0.1907524462890625,1.145238994140625
-0.259596171875,0.1221271533203125,0.7778179248046875
-0.25449013671875,-0.00801581298828125,0.543602353515625
-0.14993798828125,-0.208744794921875,0.4470160791015625
0.010780546874999998,-0.23594982177734375,0.4042526904296875
0.04603650390625,-0.19575500732421874,0.5588398828125
0.07521384765625,-0.244037802734375,0.951574912109375
-0.0431975390625,-0.3523677294921875,1.2801648583984375
-0.18251935546875,-0.4065326928710937,1.4399131494140625
-0.28366748046875,-0.11487519775390626,1.2351895703125
-0.14969484375,-0.04698517578125,0.9444476806640625
-0.051464453125000004,-0.00213364501953125,0.9085657568359375
0.13332539062499998,-0.0562986083984375,0.7606142626953125
0.1756325390625,-0.17247142578125,0.5364751220703124
0.073025546875,-0.23006765380859376,0.619298466796875
0.07594328125,-0.198941181640625,0.6650110546875
0.046522792968750004,-0.1857063037109375,1.0919076416015625
-0.16720125,-0.3082514697265625,1.442125048828125
-0.25935302734375,-0.17516741943359376,1.327106279296875
0.0049450781249999985,0.14148928955078124,1.0142453955078126
-0.045872128906250004,0.13217585693359374,0.831640810546875
0.17295794921875,0.0682072802734375,0.9375662158203125
-0.23990146484375,-0.02762303955078125,1.1683410546875
-0.3923530859375,-0.214626962890625,1.158018857421875
-0.13826705078125,-0.36045571044921876,0.92355751953125
0.04846794921875,-0.1033559521484375,0.8446664404296875
0.058436875,0.12237224365234375,0.884726396484375
0.12238388671875,0.10962754638671875,1.0899415087890625
0.01005111328125,0.253005390625,1.4320486181640626
-0.3738741015625,0.20276187255859374,1.800944287109375
-0.29509527343749997,0.289278759765625,1.66085732421875
-0.41058892578125,0.28021041748046877,1.5642710498046875
-0.4507077734375,0.17433139404296874,1.1494170263671875
-0.3563676953125,0.017718671875,0.678773984375
-0.0344443359375,0.07825598388671876,0.5138645947265625
0.15642412109375,0.077520712890625,0.9518206787109375
-0.08963814453125,0.07335417724609375,1.2831140576171876
-0.2698082421875,0.06624655761718751,1.4219721875
-0.2668905078125,-0.29085005615234377,1.253376298828125
-0.10908970703125,-0.36829860107421875,0.8082929833984375
-0.016451640625,-0.2842326171875,0.6377309619140625
0.09126138671875,-0.2376654541015625,0.6308494970703125
0.1386745703125,-0.2214894921875,0.9031588916015625
0.054789707031249996,-0.11046357177734376,1.242562568359375
-0.060460800781250004,-0.0254172265625,1.54485548828125
-0.3106565234375,-0.20384298828125,1.71197677734375
-0.3262177734375,0.08609887451171874,1.7048495458984374
-0.3889490625,-0.00997653564453125,1.4576083447265624
-0.36098744140625,0.09051050048828126,1.032677890625
-0.2746711328125,-0.1268846240234375,0.672384052734375
0.11119923828125,-0.2249207568359375,0.52639869140625
0.09758314453125,-0.2580079516601563,0.5640009814453125
0.0076196679687500005,-0.287173701171875,0.70629984375
-0.0295814453125,-0.25947849365234377,0.8594124365234375
0.043118769531250004,-0.30065366943359373,1.140323662109375
0.069135234375,-0.2869286108398437,1.12410306640625
0.0900456640625,-0.2906049658203125,1.103458671875
-0.07164544921875,-0.16462853515625,1.1562984912109375
-0.28634207031250003,-0.008751083984375,1.18898544921875
-0.06240595703125,-0.08693489990234375,1.1921804150390625
0.03436556640625,-0.0347306591796875,1.239613369140625
-0.07577890625,0.08658905517578125,1.1798920849609376
0.02220833984375,-0.22467566650390625,1.15949345703125
-0.06629626953125001,-0.151883837890625,1.379208798828125
-0.41204779296875,-0.073454931640625,1.25386783203125
-0.21510072265625,-0.19085320068359374,0.84491220703125
-0.16209521484375,-0.15016820556640625,0.52443255859375
0.17004021484375,-0.15163874755859374,0.52443255859375
0.2359323828125,-0.07811164794921875,0.718588173828125
0.24395615234375,0.010856142578125,0.9719735400390626
0.19581353515625,-0.013162709960937501,1.1100943701171875
-0.103983671875,-0.379327666015625,1.2727918603515624
-0.33278267578125,-0.3651124267578125,1.2447744677734376
-0.16501294921875,-0.23251855712890626,0.8151744482421874
0.13843142578125,-0.08227818359375,0.8132083154296875
0.0618408984375,-0.09379742919921875,1.057746083984375
0.0029999218749999987,-0.04281864013671875,1.311377216796875
-0.337402421875,-0.01953505859375,1.326123212890625
-0.2488978125,0.10399046875,0.7901062548828125
-0.11200744140625,0.08217742919921875,0.5340174560546875
-0.05657048828125,0.09786321044921875,0.627162998046875
0.0078628125,0.028257556152343752,0.78986048828125
0.12189759765625,0.08609887451171874,1.27942755859375
0.1678519140625,0.13560712158203125,1.77587609375
0.151804375,0.0691876416015625,2.065389150390625
-0.370470078125,0.017718671875,1.86926740234375
-0.5606091015625,0.1368325732421875,1.4546591455078124
-0.52438056640625,-0.0175743359375,1.1843158837890626
-0.42201671875,0.0064445166015625,0.8181236474609375
-0.3942982421875,-0.05360261474609375,0.769707626953125
-0.068970859375,-0.191098291015625,0.7960046533203124
-0.0140201953125,-0.13252170166015625,0.8771076318359375
-0.0621628125,-0.0935523388671875,0.926998251953125
-0.014992773437499999,-0.2371752734375,1.0589749169921876
-0.03614634765625,-0.27908572021484374,1.2391218359375
-0.17717017578125,-0.12222790771484375,1.3991158935546875
-0.1317021484375,-0.1562954638671875,1.41902298828125
-0.20683380859375,-0.25310614501953127,1.186527783203125
-0.265431640625,-0.37638658203124997,1.0582376171875
-0.035173769531249996,-0.3511422778320312,0.6814774169921874
-0.0295814453125,-0.33839758056640623,0.677299384765625
-0.058272500000000005,-0.32614306396484377,0.76036849609375
-0.08744984375,-0.35261281982421877,0.9120064892578125
-0.13923962890625,-0.37025932373046877,0.95796484375
-0.05243703125,-0.3690338720703125,1.0267794921875
0.13502740234375,-0.11144393310546875,1.244528701171875
-0.0791829296875,0.0338946337890625,1.3971497607421874
-0.19419029296875,-0.018554697265625,1.5588641845703126
-0.2075632421875,0.03928662109375,1.4354893505859374
-0.3437241796875,-0.0317895751953125,0.997779033203125
-0.20732009765625,-0.169530341796875,0.646824326171875
0.0005684765624999998,-0.248939609375,0.521974892578125
0.141106015625,-0.230312744140625,0.5900522412109375
0.036797011718749995,-0.28349734619140626,0.7763433251953125
-0.06872771484375,-0.296977314453125,0.685163916015625
-0.10130908203125,-0.1822750390625,0.8205813134765625
-0.0030786914062500004,-0.09918941650390625,0.899472392578125
-0.11103486328125,0.028502646484374998,1.1617053564453126
-0.27515742187500003,0.0584036669921875,1.3214536474609375
-0.2892598046875,0.05619785400390625,1.1022298388671874
-0.16914640625,0.0270321044921875,0.8065726171875
-0.07893978515625,-0.0254172265625,0.688113115234375
0.03436556640625,-0.0332601171875,0.509195029296875
0.04117361328125,-0.05017135009765625,0.4814234033203125
-0.1365650390625,-0.11781628173828125,0.45561791015625
-0.03079716796875,-0.0739451123046875,0.33961607421875
0.12651734375,-0.07026875732421875,0.482160703125
0.12287017578125001,0.0338946337890625,0.9139726220703125
-0.09134015625,0.0883046875,1.370852734375
-0.185680234375,-0.14036459228515624,1.5377282568359374
-0.13194529296875,-0.073454931640625,1.6207973681640624
-0.14264365234375,0.05227640869140625,1.8203598486328125
-0.009400449218749999,0.12531332763671876,1.7461383349609374
-0.29582470703125,0.09198104248046875,1.594500341796875
-0.36050115234375,-0.13644314697265625,1.198324580078125
-0.14629082031250001,-0.19992154296875,0.974185439453125
-0.02131453125,-0.1621776318359375,0.8839890966796875
0.0005684765624999998,-0.2249207568359375,0.7163762744140625
0.17514625,-0.13056097900390626,0.823776279296875
0.1377019921875,-0.1013952294921875,1.0412797216796874
0.0443344921875,-0.22516584716796875,1.24796943359375
-0.13875333984375,-0.35849498779296873,1.37970033203125
-0.22239505859375,-0.1680597998046875,1.4679305419921875
-0.16598552734375,-0.0724745703125,1.4551506787109374
-0.24816837890625,-0.130315888671875,1.5760678466796876
-0.296554140625,-0.06046514404296875,1.3912513623046876
-0.19078626953125,-0.173451787109375,1.064627548828125
-0.117599765625,-0.2869286108398437,0.7837163232421875
-0.060947089843749996,-0.2668312036132813,0.780521357421875
0.052115117187500004,-0.2406065380859375,0.85277673828125
-0.0198556640625,-0.26585084228515626,1.060695283203125
-0.00502384765625,-0.2136466015625,1.2103671435546874
0.049197382812499996,-0.052867343750000004,1.2777071923828125
0.07351183593749999,0.06673673828125,1.3293181787109374
-0.11468203125,0.20790876953125,1.623992333984375
-0.3213548828125,0.20129133056640625,1.9154715234375
-0.22750109375,0.08242251953125,1.986743837890625
-0.47648109375000003,-0.11683592041015625,1.7041122460937501
-0.35320681640625,-0.0857094482421875,1.292207421875
-0.3233000390625,-0.232273466796875,1.010558896484375
-0.2172890234375,-0.3158492700195312,0.931913583984375
-0.109819140625,-0.018554697265625,0.986965302734375
-0.26251390625,0.00227798095703125,1.0270252587890625
-0.057299921875,-0.24697888671875,0.9144641552734375
0.0020273437500000005,-0.244037802734375,0.797233486328125
0.0832376171875,-0.183255400390625,0.728418837890625
0.041416757812499996,-0.283252255859375,0.6588668896484375
0.00810595703125,-0.2700173779296875,0.6217561328125
0.04482078125,-0.2278618408203125,0.6917996142578124
-0.257651015625,-0.12516899169921875,0.8952943603515625
-0.19759431640625,0.08756941650390625,1.021372626953125
-0.08355953125,-0.06095532470703125,1.15556119140625
-0.2163164453125,-0.14918784423828124,1.207172177734375
-0.0655668359375,0.01183650390625,1.089204208984375
-0.07748091796875001,-0.15801109619140624,0.933879716796875
-0.07018658203125,-0.1151202880859375,0.7665126611328125
-0.07115916015625,-0.2136466015625,0.550483818359375
-0.057056777343750004,-0.22222476318359374,0.48633873535156247
-0.014992773437499999,-0.12761989501953125,0.5045254638671874
0.035095,-0.04183827880859375,0.468889306640625
0.052601406249999996,-0.0004180126953125,0.40843072265625
0.0404441796875,0.04688442138671875,0.5443396533203125
-0.06435111328125,0.09051050048828126,0.7539785644531249
0.04409134765625,-0.0013983740234375002,0.9179048876953125
0.039957890625,0.0152677685546875,1.26173236328125
-0.113709453125,-0.02321141357421875,1.5478046875
-0.284883203125,0.06306038330078124,1.6397213964843749
-0.2333365625,0.14418528320312501,1.3175213818359375
-0.2192341796875,0.0731090869140625,0.925032119140625
-0.026420566406250002,0.00325834228515625,0.6534600244140625
0.1503455078125,-0.0425735498046875,0.6922911474609375
0.137215703125,-0.0268877685546875,0.8844806298828125
-0.041495527343750005,-0.18987283935546875,0.8687515673828125
-0.12343523437500001,-0.1641383544921875,0.9773804052734375
-0.05122130859375,-0.0474753564453125,1.0540595849609375
-0.0821006640625,-0.0337502978515625,1.028745625
-0.082586953125,0.11354899169921875,1.086255009765625
-0.02520484375,0.1574201611328125,1.1479424267578124
-0.05316646484375,0.08953013916015624,1.2801648583984375
-0.17692703125,0.004973974609375,1.4472861474609375
-0.23819945312500002,-0.12320826904296875,1.457362578125
-0.22823052734375,-0.12614935302734376,1.4000989599609375
-0.14215736328125,-0.2842326171875,1.1902142822265624
-0.00696900390625,-0.2955067724609375,0.9714820068359376
0.0472522265625,-0.16070708984375,0.8756330322265625
0.0861553515625,-0.2857031591796875,0.9690243408203125
0.05868001953125,-0.23594982177734375,1.2491982666015624
-0.08817927734375,-0.21928367919921876,1.476532373046875
-0.22361078125,-0.13350206298828124,1.4546591455078124
-0.11103486328125,-0.044534272460937496,1.209138310546875
-0.19564916015625,0.011346323242187501,1.062661416015625
-0.1599069140625,-0.04428918212890625,0.9604225097656249
-0.08526154296874999,-0.09012107421875,0.983033037109375
-0.07310431640625001,-0.1817848583984375,1.1228742333984374
-0.1579617578125,-0.27026246826171874,1.2273250390625
-0.2328502734375,-0.21095060791015624,1.2315030712890624
-0.27296912109375,-0.11291447509765624,1.06315294921875
-0.12319208984375,0.013552136230468751,0.9685328076171875
-0.0543821875,0.010611052246093749,0.9075826904296875
-0.03955037109375,-0.09722869384765626,1.0914161083984375
-0.02520484375,-0.154824921875,1.132459130859375
0.045793359374999995,-0.15801109619140624,1.201273779296875
-0.07942607421875,-0.18104958740234375,1.3504541064453126
-0.16549923828125,-0.095022880859375,1.2762325927734375
-0.19759431640625,-0.1062970361328125,1.174730986328125
-0.12440781249999999,-0.008751083984375,1.1091113037109375
-0.2279873828125,-0.151883837890625,1.122628466796875
-0.13340416015625,-0.09869923583984375,1.1533492919921875
-0.15723232421875,-0.21193096923828125,1.0791277783203126
-0.02350283203125,-0.1665892578125,0.9980247998046875
-0.014992773437499999,-0.19967645263671874,0.9646005419921875
0.00591765625,-0.20948006591796875,0.881777197265625
-0.07456318359375,-0.181294677734375,0.9198710205078124
-0.06848457031249999,-0.0788469189453125,0.9459222802734375
-0.07650833984375,-0.11438501708984375,0.845403740234375
-0.0025924023437500013,-0.0259074072265625,0.7733941259765625
0.05624857421875,0.03928662109375,0.77019916015625
-0.0013766796875,-0.0670825830078125,0.7790467578125
0.0093216796875,-0.1219828173828125,0.944693447265625
-0.0840458203125,-0.104826494140625,1.1172216015625
-0.19273142578125,-0.0837487255859375,1.2649273291015626
-0.17133470703125,-0.08154291259765625,1.19390078125
-0.14969484375,-0.0259074072265625,0.971236240234375
0.06013888671875,0.02923791748046875,0.8898874951171875
-0.02155767578125,0.050070595703125,0.883743330078125
-0.08672041015625,-0.03987755615234375,0.95894791015625
0.01150998046875,-0.011201987304687501,1.0304659912109375
-0.015235917968750002,-0.05213207275390625,1.0857634765625
0.03047525390625,-0.10727739746093751,1.12803533203125
0.0453070703125,-0.11757119140625,1.126560732421875
0.028286953125,-0.03252484619140625,1.235681103515625
-0.07018658203125,-0.0945327001953125,1.284342890625
-0.2299325390625,-0.11683592041015625,1.17129025390625
-0.160393203125,-0.069533486328125,1.1081282373046875
-0.1530988671875,-0.15016820556640625,1.076424345703125
-0.08088494140625,0.0456589697265625,1.1680952880859374
-0.12635296875,-0.14036459228515624,1.0928907080078125
0.012725703124999998,-0.112669384765625,1.016457294921875
0.045793359374999995,-0.08105273193359375,1.01399962890625
0.0934496875,-0.19845100097656249,1.03562708984375
-0.0033218359375,-0.2082546142578125,1.0982975732421876
-0.12854126953125,-0.2484494287109375,1.13098453125
-0.10714455078125,-0.18301031005859375,1.115747001953125
-0.17814275390625,-0.16487362548828124,1.16342572265625
-0.2416034765625,-0.028358310546875,1.187510849609375
-0.12465095703125,-0.014633251953124999,1.0860092431640624
-0.05219388671875,-0.08938580322265625,1.07888201171875
0.02172205078125,-0.09036616455078125,1.0953483740234375
-0.03906408203125,-0.22320512451171876,1.07691587890625
-0.1044699609375,-0.212666240234375,0.9397781152343749
-0.13778076171875,-0.1788437744140625,0.7227662060546876
-0.019369375,-0.216587685546875,0.57948427734375
0.09320654296875,-0.2523708740234375,0.7094948095703125
0.0076196679687500005,-0.3357015869140625,0.889641728515625
-0.03322861328125,-0.3533480908203125,0.973202373046875
0.0034862109374999978,-0.363641884765625,1.05528841796875
-0.05851564453125,-0.1847259423828125,1.0457035205078125
-0.09255587890625,-0.047965537109375,0.989914501953125
-0.12367837890625,-0.11585555908203125,0.9822957373046874
-0.111764296875,-0.0533575244140625,0.9075826904296875
-0.033714902343750006,-0.018554697265625,0.843929140625
0.0008116210937499993,-0.03056412353515625,0.8830060302734375
0.006403945312499999,0.010611052246093749,0.9518206787109375
0.0647586328125,0.036345537109375,0.971236240234375
0.008835390624999998,0.1574201611328125,1.1695698876953124
0.0822650390625,0.1623219677734375,1.40919232421875
0.10828150390624999,0.13609730224609376,1.5259314599609375
-0.065080546875,0.13732275390625,1.5333044580078126
-0.18057419921875,0.0770305322265625,1.418531455078125
-0.2678630859375,-0.05556333740234375,1.194392314453125
-0.32791978515625,-0.17761832275390624,1.010558896484375
-0.16841697265625,-0.30653583740234375,0.8569547705078124
0.0029999218749999987,-0.31879035400390626,0.72202890625
-0.008184726562500001,-0.2964871337890625,0.701876044921875
0.04992681640625,-0.26241957763671875,0.8043607177734375
0.06889208984375,-0.2781053588867187,1.09264494140625
0.02536921875,-0.38741564697265624,1.3607763037109375
0.0049450781249999985,-0.36756333007812503,1.4679305419921875
-0.138996484375,-0.0317895751953125,1.3492252734375
-0.244034921875,-0.0396324658203125,1.185544716796875
-0.1248941015625,-0.19134338134765624,1.10444173828125
-0.05073501953125,-0.2562923193359375,1.1051790380859374
-0.033958046875,-0.3827589306640625,1.0742124462890625
0.0003253320312500002,-0.36976914306640624,0.9985163330078125
0.051628828125,-0.327368515625,0.9154472216796875
-0.01669478515625,-0.3170747216796875,0.93142205078125
-0.08234380859375,-0.41192468017578127,1.097068740234375
-0.19613544921875,-0.4013857958984375,1.0707717138671875
-0.2367405859375,-0.19036302001953126,0.9272440185546875
-0.10860341796875,-0.10065995849609374,0.851793671875
-0.013047617187499999,-0.0788469189453125,0.7827332568359375
0.07667271484375,-0.1043363134765625,0.9134810888671875
0.11265810546874999,-0.07271966064453125,1.1607222900390626
0.12189759765625,-0.08546435791015625,1.484396904296875
0.12092501953125,0.02090484619140625,1.8498518408203124
0.07861787109375,-0.10286577148437501,1.9825658056640625
-0.12270580078125,-0.1013952294921875,1.698705380859375
-0.34785763671875003,-0.035711020507812496,1.348733740234375
-0.35661083984374997,-0.20702916259765625,1.0992806396484376
-0.19662173828125,-0.3535931811523437,0.7350545361328125
-0.045872128906250004,-0.3141336376953125,0.5787469775390625
0.022451484375,-0.240116357421875,0.3958966259765625
0.02147890625,-0.1945295556640625,0.2587588623046875
0.0268280859375,-0.193059013671875,0.27842019042968746
0.0443344921875,-0.16928525146484374,0.3069291162109375
0.020020039062499998,-0.16242272216796874,0.46544857421874997
0.0832376171875,-0.24305744140625,0.8223016796875
0.12262703125,-0.3464855615234375,1.3760138330078124
0.10487748046875,-0.47050126953125,1.6384925634765626
0.06646064453125,-0.5376560205078125,1.6242381005859374
-0.02155767578125,-0.234234189453125,1.611212470703125
-0.12173322265625,0.0294830078125,1.2197062744140625
-0.03614634765625,-0.04723026611328125,0.92159138671875
-0.11832919921875,-0.200901904296875,0.8707177001953125
-0.063135390625,-0.11193411376953125,0.905370791015625
-0.0159653515625,-0.228352021484375,1.0899415087890625
0.06500177734375,-0.20408807861328124,1.166866455078125
0.02536921875,-0.1366882373046875,1.000728232421875
0.0268280859375,-0.11364974609375,0.9228202197265625
0.06208404296875,-0.1582561865234375,0.99040603515625
-0.07796720703125,-0.16732452880859375,1.0815854443359374
-0.041738671875,-0.1249239013671875,1.074458212890625
-0.22701480468750002,-0.23840072509765625,0.9129895556640625
-0.21753216796875,-0.0768861962890625,0.837539208984375
-0.20586123046875,-0.03889719482421875,0.7301392041015625
-0.129270703125,-0.02370159423828125,0.6745959521484375
-0.0431975390625,-0.07835673828125,0.6704179199218749
-0.04246810546875,-0.104826494140625,0.7279273046875
-0.007455292968749999,0.0010525292968750002,0.80067421875
-0.004051269531250002,-0.0259074072265625,0.856217470703125
0.0093216796875,0.021640117187500002,1.112797802734375
0.07715900390625,0.00227798095703125,1.3794545654296875
0.1284625,-0.022476142578125,1.6011360400390624
-0.005996425781250002,-0.1062970361328125,1.7151717431640625
-0.16793068359375,-0.13840386962890625,1.42492138671875
-0.26907880859375,-0.19967645263671874,1.1951296142578125
-0.3223274609375,-0.23251855712890626,1.0206353271484374
-0.31235853515625,-0.28594824951171877,1.0267794921875
-0.11735662109375,-0.25702759033203126,1.0034316650390624
-0.00696900390625,-0.1974706396484375,0.980083837890625
0.060382031249999996,-0.2445279833984375,0.9872110693359375
0.0501699609375,-0.35677935546875,1.1430270947265626
-0.02301654296875,-0.4239341064453125,1.252884765625
-0.008671015625,-0.328348876953125,1.1808751513671876
-0.0198556640625,-0.181294677734375,1.1705529541015625
0.0482248046875,-0.33545649658203125,1.01989802734375
0.06111146484375,-0.2866835205078125,0.995812900390625
0.05576228515625,-0.21536223388671874,1.1390948291015626
-0.11687033203125,-0.25751777099609374,1.3199790478515625
-0.1307295703125,-0.2690370166015625,1.369378134765625
-0.19419029296875,-0.21560732421875,1.3617593701171875
-0.15285572265625,-0.12909043701171874,1.1997991796875
-0.15528716796875,-0.13889405029296875,1.1754682861328125
-0.09134015625,-0.19526482666015624,1.2388760693359375
-0.004051269531250002,-0.280311171875,1.2312573046875
-0.00842787109375,-0.2347243701171875,1.259274697265625
0.0550328515625,-0.2293323828125,1.162934189453125
0.05065625,-0.2881540625,1.009084296875
-0.024475410156250002,-0.2651155712890625,0.9798380712890625
-0.13802390625,-0.21291133056640624,0.95698177734375
-0.2377131640625,-0.23129310546875,0.905370791015625
-0.2318776953125,-0.24281235107421875,0.8773533984374999
-0.1637972265625,-0.23889090576171876,0.7999369189453125
-0.09450103515625,-0.12933552734375,0.7286646044921875
-0.020341953125,-0.1827652197265625,0.694994580078125
0.0209926171875,-0.159726728515625,0.8667854345703125
0.016616015625,-0.09820905517578125,1.0865007763671874
-0.07845349609375,-0.2136466015625,1.19390078125
0.018318027343749998,-0.20997024658203126,1.20274837890625
-0.0714023046875,-0.15654055419921875,1.2015195458984376
-0.14556138671875,-0.19967645263671874,1.064627548828125
-0.041495527343750005,-0.3800629370117187,0.881777197265625
0.0394716015625,-0.363641884765625,0.765283828125
0.03874216796875,-0.3070260180664062,0.6500192919921874
0.01540029296875,-0.30187912109375,0.56178908203125
0.0029999218749999987,-0.24232217041015625,0.5354920556640625
-0.0159653515625,-0.24085162841796875,0.6067643701171875
0.008349101562499999,-0.14330567626953125,0.80558955078125
-0.066053125,-0.06732767333984375,1.08674654296875
-0.13729447265625,0.1378129345703125,1.27254609375
-0.26154132812499997,0.15619470947265626,1.276969892578125
-0.36633662109375,0.10202974609375,1.1587561572265626
-0.26154132812499997,0.11992134033203125,0.9513291455078126
-0.1399690625,0.099088662109375,0.7529954980468749
-0.1083602734375,0.09198104248046875,0.66206185546875
-0.1788721875,0.059874208984374996,0.625196865234375
-0.113709453125,-0.01487834228515625,0.6524769580078125
-0.08915185546875,-0.048455717773437504,0.8028861181640625
-0.1064151171875,-0.059484782714843754,0.9407611816406249
-0.1278118359375,-0.14134495361328125,0.9874568359375
-0.1005796484375,-0.21977385986328124,0.9913891015625
-0.18349193359375,-0.20972515625,0.973202373046875
-0.146777109375,-0.2572726806640625,0.9911433349609375
-0.30530734375,-0.22908729248046875,0.913235322265625
-0.1433730859375,-0.201882265625,0.727435771484375
0.025612363281249998,-0.19379428466796875,0.8328696435546875
-0.039793515625,-0.20163717529296876,1.118696201171875
-0.18081734375,-0.1827652197265625,1.19291771484375
-0.2357680078125,-0.22345021484375,1.109848603515625
-0.195406015625,-0.1822750390625,0.8073099169921875
-0.0859909765625,-0.21634259521484375,0.579975810546875
0.04846794921875,-0.2141367822265625,0.4951863330078125
0.0171023046875,-0.24918469970703125,0.53426322265625
-0.038091503906250004,-0.26389011962890624,0.5340174560546875
-0.07383375,-0.2668312036132813,0.5644925146484375
-0.10471310546875,-0.24305744140625,0.72497810546875
-0.08477525390625,-0.1866866650390625,0.9046334912109375
-0.052680175781250005,-0.19085320068359374,1.182595517578125
-0.00502384765625,-0.14134495361328125,1.39837859375
-0.02204396484375,-0.037916833496093746,1.6075259716796875
-0.053409609375,0.03119864013671875,1.8798353662109375
-0.14361623046875,0.055462583007812497,1.9540568798828124
-0.30530734375,0.019679394531249998,1.8375635107421875
-0.37606240234375,0.01649322021484375,1.5524742529296875
-0.4511940625,0.0152677685546875,1.446057314453125
-0.49131291015625,-0.07468038330078125,1.347259140625
-0.4808576953125,-0.093062158203125,1.3248943798828126
-0.29096181640625,-0.17247142578125,1.3391488427734375
-0.13778076171875,-0.198941181640625,1.407717724609375
0.032420410156249996,-0.08963089355468751,1.46227791015625
0.02415349609375,-0.22173458251953124,1.5519827197265625
-0.12902755859375,-0.344034658203125,1.7274600732421874
-0.3408064453125,-0.35947534912109375,1.6325941650390625
-0.4176401171875,-0.4317769970703125,1.3411149755859375
-0.33642984375,-0.4455020556640625,1.040050888671875
-0.2318776953125,-0.42074793212890627,0.8259881787109375
-0.15236943359375,-0.414620673828125,0.76036849609375
-0.13024328125,-0.3955036279296875,0.7905977880859375
-0.10422681640625,-0.4504038623046875,0.8065726171875
-0.08526154296874999,-0.4746678051757813,0.7625803955078125
-0.10471310546875,-0.50579427734375,0.875387265625
-0.11079171875,-0.5376560205078125,0.88620099609375
-0.08574783203125,-0.5651061376953125,0.853268271484375
-0.1200312109375,-0.6168201977539063,0.911269189453125
-0.11541146484375,-0.6445154052734375,0.9284728515625
-0.11200744140625,-0.645985947265625,1.0031858984375
-0.081614375,-0.5356952978515624,0.9862280029296875
-0.032499179687500004,-0.35261281982421877,0.95304951171875
-0.07310431640625001,-0.27075264892578127,1.0162115283203126
-0.1725504296875,-0.3374172192382813,0.9881941357421875
-0.16793068359375,-0.3298194189453125,1.0206353271484374
-0.2153438671875,-0.2837424365234375,1.0592206835937499
-0.27685943359375,-0.31241800537109377,1.0506188525390625
-0.2892598046875,-0.28251698486328125,0.9041419580078125
-0.1871391015625,-0.22663638916015624,0.7606142626953125
-0.14312994140625,-0.18448085205078124,0.671400986328125
-0.17619759765625,-0.16781470947265625,0.626179931640625
-0.16501294921875,-0.1513936572265625,0.6313410302734375
-0.1764407421875,-0.1337471533203125,0.6279002978515625
-0.20926525390625,-0.12026718505859375,0.638959794921875
-0.24038775390625,-0.1004148681640625,0.666485654296875
-0.2591098828125,-0.1190417333984375,0.6908165478515624
-0.249870390625,-0.0935523388671875,0.6755790185546875
-0.28123603515625,-0.12761989501953125,0.7257154052734375
-0.30409162109375,-0.0906112548828125,0.754961630859375
-0.2921775390625,-0.092081796875,0.781504423828125
-0.245980078125,-0.1509034765625,0.792318154296875
-0.1424005078125,-0.14232531494140624,0.726452705078125
-0.137051328125,-0.06438658935546875,0.718096640625
-0.06337853515625,-0.096983603515625,0.7974792529296875
-0.16720125,-0.120512275390625,1.0019570654296874
-0.21655958984375,-0.14771730224609375,1.08871267578125
-0.19273142578125,-0.1376685986328125,1.04545775390625
-0.25862359375,-0.1308060693359375,0.8930824609375
-0.20975154296875,-0.1719812451171875,0.6981895458984375
-0.1555303125,-0.1013952294921875,0.62667146484375
-0.1657423828125,-0.19183356201171875,0.6908165478515624
-0.16987583984375,-0.15114856689453124,0.7751144921875
-0.221665625,-0.04723026611328125,0.8264797119140626
-0.17303671874999998,-0.13644314697265625,0.915201455078125
-0.17376615234375,-0.21193096923828125,0.996795966796875
-0.20804953125,-0.09575815185546875,0.98254150390625
-0.20415921875,-0.18350049072265626,0.980083837890625
-0.22725794921875,-0.19845100097656249,1.009084296875
-0.25789416015625,-0.2288422021484375,0.9483799462890625
-0.1988100390625,-0.3077612890625,0.8567090039062499
-0.1978374609375,-0.23545964111328124,0.8284458447265625
-0.189570546875,-0.196980458984375,0.7945300537109374
-0.156502890625,-0.2058037109375,0.8132083154296875
-0.14945169921875,-0.24575343505859376,0.9061080908203125
-0.14361623046875,-0.13105115966796876,1.1368829296875
-0.17425244140625,-0.1141399267578125,1.2678765283203126
-0.27831830078124997,-0.08056255126953125,1.3553694384765624
-0.36293259765625,-0.124433720703125,1.296631220703125
-0.3962433984375,-0.1043363134765625,1.1174673681640626
-0.382141015625,-0.0749254736328125,0.9945840673828125
-0.310170234375,-0.20408807861328124,0.90586232421875
-0.343237890625,-0.25653740966796873,0.7915808544921875
-0.30141703125,-0.2082546142578125,0.6485446923828125
-0.17327986328125,-0.18693175537109374,0.5915268408203125
-0.19346085937500002,-0.13987441162109376,0.6726298193359375
-0.16598552734375,-0.2516356030273437,0.7908435546875
-0.06824142578125,-0.293055869140625,1.000728232421875
-0.19467658203125,-0.2817817138671875,1.1720275537109375
-0.24330548828125,-0.15310928955078124,1.29712275390625
0.00227048828125,-0.18399067138671876,1.304495751953125
0.0715666796875,-0.12909043701171874,1.5800001123046874
0.1785502734375,-0.33202523193359373,1.8525552734375
0.12919193359375,-0.265605751953125,2.129718558349609
-0.1083602734375,-0.1430605859375,2.04818548828125
-0.34591248046875,-0.22737166015625,2.0204138623046877
-0.53848294921875,-0.228352021484375,1.878115
-0.68339708984375,-0.1033559521484375,1.803401953125
-0.6841265234375,-0.2327636474609375,1.669704921875
-0.382141015625,-0.25947849365234377,1.452938779296875
-0.1210037890625,-0.21977385986328124,1.36790353515625
-0.05559791015625,-0.3624164331054687,1.5170838623046876
-0.003808124999999999,-0.46633473388671876,1.7004257470703126
-0.08915185546875,-0.3234470703125,1.63529759765625
-0.190543125,-0.21193096923828125,1.4708797412109376
-0.2746711328125,-0.3317801416015625,1.4345062841796876
-0.36366203125,-0.16928525146484374,1.4748120068359376
-0.310170234375,-0.36731823974609373,1.2506728662109374
-0.21850474609375,-0.39623889892578124,1.0958399072265625
-0.27029453125,-0.373445498046875,0.91077765625
-0.28561263671875,-0.422463564453125,0.68270625
-0.22677166015625,-0.3709945947265625,0.5391785546875
-0.1978374609375,-0.32761360595703126,0.40744765625
-0.14604767578125,-0.310702373046875,0.3143021142578125
-0.15431458984375,-0.3386426708984375,0.332734609375
-0.160393203125,-0.36339679443359374,0.3447771728515625
-0.1686601171875,-0.4317769970703125,0.5561364501953125
-0.15820490234375,-0.49133394775390626,0.630112197265625
-0.100093359375,-0.44084533935546877,0.8141913818359375
-0.1287844140625,-0.27050755859375,0.92945591796875
-0.27637314453125,-0.220509130859375,0.990897568359375
-0.32305689453124997,-0.3391328515625,0.912252255859375
-0.30457791015625,-0.18497103271484375,0.8726838330078125
-0.28901666015625,-0.1259042626953125,0.874895732421875
-0.1151683203125,-0.1808044970703125,0.7807671240234375
-0.10203851562499999,-0.28594824951171877,0.6303579638671875
-0.1424005078125,-0.21977385986328124,0.6256883984375
-0.0543821875,-0.1808044970703125,0.5042796972656249
-0.02496169921875,-0.09134652587890625,0.5880861083984374
-0.08355953125,-0.02909358154296875,0.6745959521484375
-0.08331638671875,0.01600303955078125,0.839505341796875
-0.20148462890625,0.065756376953125,0.9670582080078125
-0.2163164453125,0.03561026611328125,0.9395323486328125
-0.265431640625,0.021640117187500002,0.8805483642578125
-0.28853037109375,0.0652661962890625,0.8608870361328125
-0.3184371484375,0.04786478271484375,0.7935469873046875
-0.32062544921875,0.063795654296875,0.7193254736328125
-0.34542619140624997,0.03928662109375,0.681231650390625
-0.29485212890625,0.0069346972656249995,0.5455684863281249
-0.2328502734375,-0.048455717773437504,0.49494056640625
-0.01815365234375,-0.1170810107421875,0.5345089892578125
0.0032430664062499982,-0.1190417333984375,0.6264256982421875
-0.06970029296875,-0.12614935302734376,0.6898334814453125
-0.179844765625,-0.18423576171875,0.76036849609375
-0.21753216796875,-0.1778634130859375,0.704825244140625
-0.2581373046875,-0.17124597412109374,0.7328426367187499
-0.25157240234375,-0.23447927978515626,0.7969877197265625
-0.22628537109375,-0.2533512353515625,0.7979707861328125
-0.23455228515625,-0.21046042724609376,0.7453767333984375
-0.22579908203125,-0.2327636474609375,0.67385865234375
-0.2717533984375,-0.263645029296875,0.6514938916015625
-0.21996361328125,-0.2957518627929687,0.6976980126953125
-0.0957167578125,-0.31045728271484374,0.793301220703125
-0.07213173828125,-0.296977314453125,0.9469053466796875
-0.08866556640625001,-0.3102121923828125,1.0830600439453124
-0.09839134765625,-0.3268783349609375,1.0896957421875
-0.14799283203125,-0.3288390576171875,1.0874838427734375
-0.1958923046875,-0.23693018310546876,1.10837400390625
-0.13802390625,-0.21536223388671874,1.1091113037109375
-0.14556138671875,-0.20751934326171875,1.2108586767578124
-0.12124693359375,-0.2729584619140625,1.2909785888671874
-0.13291787109375,-0.2567825,1.357581337890625
-0.21704587890625,-0.319525625,1.4059973583984375
-0.34542619140624997,-0.3285939672851563,1.38559873046875
-0.27102396484375,-0.232273466796875,1.2565712646484375
-0.207076953125,-0.14232531494140624,1.2546051318359375
-0.3466419140625,-0.234234189453125,1.4576083447265624
-0.38724705078125,-0.27271337158203124,1.5308467919921875
-0.391866796875,-0.20212735595703124,1.374785
-0.2921775390625,-0.19085320068359374,1.0894499755859375
-0.19613544921875,-0.2268814794921875,0.87440419921875
-0.26567478515625,-0.2562923193359375,0.822793212890625
-0.19905318359375002,-0.25212578369140626,0.8368019091796874
-0.2766162890625,-0.17712814208984376,0.854251337890625
-0.31770771484375,-0.18448085205078124,0.793301220703125
-0.37460353515625,-0.2621744873046875,0.8210728466796875
-0.3009307421875,-0.29673222412109374,0.902913125
-0.27880458984375,-0.2516356030273437,1.1410609619140626
-0.26470220703125,-0.26658611328125,1.28139369140625
-0.19856689453125,-0.30653583740234375,1.2914701220703124
-0.24719580078125,-0.2732035522460938,1.1966042138671875
-0.23795630859375,-0.327368515625,1.0589749169921876
-0.282938046875,-0.28619333984375,1.00613509765625
-0.25400384765625,-0.191098291015625,1.158510390625
-0.29776986328125,-0.1259042626953125,1.2054518115234374
-0.32500205078125,-0.14379585693359376,1.134425263671875
-0.36585033203125,-0.170510703125,1.025304892578125
-0.39745912109375,-0.187176845703125,0.9247863525390625
-0.3378887109375,-0.1543347412109375,0.8694888671875
-0.38043900390625,-0.16732452880859375,0.8952943603515625
-0.3184371484375,-0.11757119140625,0.9793465380859375
-0.3252451953125,-0.186196484375,1.14966279296875
-0.300444453125,-0.24918469970703125,1.203239912109375
-0.3155194140625,-0.1298257080078125,1.1725190869140625
-0.20148462890625,-0.053847705078125,1.01399962890625
-0.174981875,-0.06732767333984375,1.0963314404296876
-0.30068759765624997,-0.08252327392578125,1.2723003271484374
-0.343237890625,-0.1111988427734375,1.3848614306640625
-0.42371873046874997,-0.18791211669921876,1.4064888916015625
-0.46359443359375,-0.16389326416015626,1.28729208984375
-0.4497351953125,-0.11536537841796875,1.1054248046875
-0.4468174609375,-0.11193411376953125,0.9601767431640625
-0.4575158203125,-0.1509034765625,0.9154472216796875
-0.36755234375,-0.2592334033203125,0.9508376123046876
-0.271267109375,-0.2229600341796875,0.9390408154296875
-0.26470220703125,-0.1219828173828125,0.9100403564453124
-0.13243158203125,-0.19036302001953126,0.871455
-0.10179537109375,-0.27712499755859377,0.909303056640625
-0.12805498046875,-0.23349891845703125,1.0575003173828126
-0.38676076171875,-0.1759026904296875,1.158018857421875
-0.44511544921875,-0.183255400390625,1.1528577587890625
-0.4225030078125,-0.18301031005859375,1.11623853515625
-0.3602580078125,-0.1651187158203125,1.0919076416015625
-0.2892598046875,-0.25090033203125,1.0255506591796875
-0.18932740234375,-0.13693332763671875,0.9724650732421874
-0.20683380859375,-0.27663481689453123,0.81738634765625
-0.222638203125,-0.16487362548828124,0.863098935546875
-0.18203306640625,-0.2219796728515625,0.9267524853515625
-0.206104375,-0.2844777075195313,1.0388220556640624
-0.15188314453125001,-0.2455083447265625,0.954032578125
-0.06970029296875,-0.1190417333984375,0.88423486328125
0.02463978515625,-0.1102184814453125,0.91077765625
-0.15869119140625,-0.1611972705078125,1.070525947265625
-0.3456693359375,-0.05311243408203125,1.1368829296875
-0.405482890625,-0.08154291259765625,0.9835245703125
-0.3563676953125,-0.06095532470703125,0.8360646093749999
-0.251815546875,-0.02223105224609375,0.80755568359375
-0.28391062499999997,-0.0425735498046875,0.8087845166015625
-0.30846822265625,-0.1273748046875,0.8205813134765625
-0.3189234375,-0.21536223388671874,0.8053437841796875
-0.32986494140625,-0.16830489013671876,0.7566819970703125
-0.2834243359375,-0.20261753662109375,0.6495277587890624
-0.24379177734375002,-0.23594982177734375,0.5600687158203125
-0.24233291015625,-0.2455083447265625,0.5163222607421875
-0.23844259765625,-0.23006765380859376,0.4824064697265625
-0.2532744140625,-0.18742193603515625,0.4986270654296875
-0.2620276171875,-0.1719812451171875,0.540653154296875
-0.28998923828125,-0.236194912109375,0.6868842822265625
-0.3155194140625,-0.3111925537109375,0.7842078564453125
-0.3033621875,-0.33937794189453124,0.7891231884765625
-0.156502890625,-0.3663378784179688,0.7082659765625
-0.27151025390625,-0.3258979736328125,0.7144101416015625
-0.210967265625,-0.332270322265625,0.6905707812499999
-0.2177753125,-0.25457668701171876,0.818860947265625
-0.31308796875,-0.19232374267578126,0.8616243359375
-0.22288134765625,-0.14673694091796874,0.7989538525390625
-0.24038775390625,-0.1955099169921875,0.7370206689453125
-0.37460353515625,-0.2425672607421875,0.73087650390625
-0.3612305859375,-0.104826494140625,0.8146829150390625
-0.41058892578125,-0.07811164794921875,0.89603166015625
-0.45289607421875,-0.16683434814453124,1.01006736328125
-0.41399294921875,-0.20997024658203126,1.0702801806640625
-0.35904228515625003,-0.10164031982421876,1.082322744140625
-0.37533296875,-0.1700205224609375,1.09854333984375
-0.32791978515625,-0.12909043701171874,1.1135351025390625
-0.3709563671875,-0.095022880859375,1.1762055859375
-0.317950859375,-0.14722712158203125,1.245020234375
-0.39843169921875,-0.22173458251953124,1.4005904931640625
-0.4905834765625,-0.30310457275390623,1.46129484375
-0.5367809375,-0.33251541259765627,1.345784541015625
-0.37703498046875,-0.30898674072265625,1.2560797314453125
-0.39259623046875003,-0.35261281982421877,1.3145721826171874
-0.294608984375,-0.264625390625,1.450972646484375
-0.2552195703125,-0.34329938720703124,1.591551142578125
-0.25935302734375,-0.35065209716796875,1.6915781494140625
-0.36487775390625,-0.34427974853515625,1.7200870751953126
-0.42323244140625,-0.21977385986328124,1.567957548828125
-0.39818855468750003,-0.3638869750976563,1.381174931640625
-0.28391062499999997,-0.27859553955078126,1.4939818017578126
-0.3524773828125,-0.3955036279296875,1.59990720703125
-0.40961634765625,-0.21952876953125,1.6355433642578125
-0.372415234375,-0.4484431396484375,1.4507268798828126
-0.3106565234375,-0.42515955810546874,1.2666476953124999
-0.4555706640625,-0.5109411743164063,1.1420440283203126
-0.2921775390625,-0.5168233422851563,1.0147369287109376
-0.28026345703125,-0.5236858715820313,0.9247863525390625
-0.2921775390625,-0.5521163500976562,0.89603166015625
-0.32986494140625,-0.5810370092773437,0.9562444775390625
-0.35466568359375,-0.6207416430664062,1.0874838427734375
-0.35855599609375,-0.6099576684570313,1.164900322265625
-0.39697283203125,-0.51755861328125,0.9872110693359375
-0.22288134765625,-0.3788374853515625,0.816894814453125
-0.1783858984375,-0.4062876025390625,0.8166490478515624
-0.26713365234374997,-0.3285939672851563,0.8112421826171875
-0.20002576171875,-0.4254046484375,0.77806369140625
-0.26518849609375,-0.39672907958984377,0.8780906982421874
-0.42469130859375,-0.43594353271484376,0.8623616357421875
-0.407428046875,-0.39868980224609374,0.733825703125
-0.4011062890625,-0.30359475341796877,0.6610787890625
-0.34931650390625,-0.22369530517578126,0.623722265625
-0.21072412109375,-0.2881540625,0.6731213525390625
-0.268349375,-0.2607039453125,0.8215643798828125
-0.325731484375,-0.17247142578125,0.84491220703125
-0.3189234375,-0.2111956982421875,0.8441749072265625
-0.391866796875,-0.20849970458984374,0.7591396630859375
-0.33813185546875,-0.17075579345703126,0.666485654296875
-0.35223423828125,-0.1396293212890625,0.6374851953125
-0.31478998046875,-0.08619962890625,0.5802215771484375
-0.234309140625,-0.05360261474609375,0.54802615234375
-0.13972591796875,-0.0004180126953125,0.6293748974609374
-0.1861665234375,-0.0710040283203125,0.727435771484375
-0.2785614453125,-0.23349891845703125,0.8461410400390625
-0.41156150390625,-0.14918784423828124,0.8628531689453125
-0.41058892578125,-0.05360261474609375,0.7488174658203125
-0.39405509765625,-0.08448399658203125,0.7414444677734375
-0.43782111328125,-0.0729647509765625,0.76921609375
-0.40086314453125,-0.0612004150390625,0.68368931640625
-0.27248283203125,-0.01144707763671875,0.60307787109375
-0.13948277343749999,-0.011201987304687501,0.5753062451171875
-0.15042427734375,-0.012672529296875,0.52050029296875
-0.07577890625,-0.06585713134765625,0.5662128808593749
-0.13048642578125,-0.034240478515625,0.7404614013671875
-0.3505322265625,-0.0906112548828125,0.8672769677734375
-0.42080099609375,-0.07664110595703125,0.8928366943359375
-0.4186126953125,-0.02615249755859375,0.8210728466796875
-0.36925435546875,-0.042083369140625,0.8028861181640625
-0.36974064453125,-0.200901904296875,0.7758517919921875
-0.33618669921875,-0.21487205322265626,0.7507835986328125
-0.3894353515625,-0.13154134033203124,0.723503505859375
-0.36633662109375,-0.24575343505859376,0.5841538427734375
-0.2873146484375,-0.2893795141601562,0.45365177734375
-0.1686601171875,-0.34133866455078127,0.4052357568359375
-0.17376615234375,-0.296977314453125,0.4145748876953125
-0.2309051171875,-0.1562954638671875,0.4209648193359375
-0.2746711328125,-0.2553119580078125,0.5556449169921875
-0.3656071875,-0.29281077880859374,0.757419296875
-0.50979189453125,-0.27026246826171874,0.92355751953125
-0.56474255859375,-0.25874322265625,0.8653108349609375
-0.545534140625,-0.1317864306640625,0.873912666015625
-0.45921783203125,-0.006790361328125,0.96877857421875
-0.41885583984375,0.03413972412109375,0.9778719384765625
-0.44511544921875,0.01012087158203125,0.9955671337890625
-0.32791978515625,0.018699033203125,0.97467697265625
-0.27296912109375,-0.00409436767578125,0.97271083984375
-0.37144265625,-0.13595296630859374,0.9638632421875
-0.4614061328125,-0.14183513427734376,0.8859552294921875
-0.42760904296875,-0.120512275390625,0.7424275341796875
-0.415208671875,-0.15286419921875,0.73874103515625
-0.374360390625,-0.13791368896484374,0.8363103759765624
-0.51514107421875,-0.10727739746093751,0.906353857421875
-0.52194912109375,-0.208744794921875,0.9233117529296875
-0.36974064453125,-0.24183198974609374,0.9375662158203125
-0.434660234375,-0.2739388232421875,0.922082919921875
-0.38919220703125,-0.2528610546875,0.805098017578125
-0.22701480468750002,-0.26585084228515626,0.6962234130859375
-0.203186640625,-0.32663324462890625,0.722520439453125
-0.16160892578125,-0.330309599609375,0.737266435546875
-0.10860341796875,-0.2643803002929688,0.7896147216796875
-0.13632189453125,-0.11193411376953125,0.9301932177734376
-0.37606240234375,-0.201882265625,0.977134638671875
-0.46942990234375,-0.23644000244140626,1.0014655322265624
-0.54285955078125,-0.26585084228515626,1.0196522607421874
-0.5664445703125,-0.26143921630859374,1.021372626953125
-0.49714837890625,-0.1195319140625,1.001711298828125
-0.35126166015625,-0.1631579931640625,1.109848603515625
-0.3456693359375,-0.19918627197265626,1.251410166015625
-0.18154677734375,-0.1396293212890625,1.3283351123046876
-0.152612578125,-0.28619333984375,1.3767511328125
-0.24962724609375,-0.24109671875,1.47014244140625
-0.3748466796875,-0.23594982177734375,1.5136431298828126
-0.36682291015625,-0.36682805908203125,1.5441181884765625
-0.41350666015625,-0.27442900390625,1.6979680810546876
-0.5596365234375,-0.3151139990234375,1.748350234375
-0.48547744140625,-0.3964839892578125,1.793079755859375
-0.38821962890625,-0.22075422119140625,1.87123353515625
-0.3252451953125,-0.40261124755859373,1.7638335302734376
-0.2202067578125,-0.50971572265625,1.65495892578125
-0.31138595703125,-0.3374172192382813,1.65692505859375
-0.2425760546875,-0.3866803759765625,1.69034931640625
-0.36633662109375,-0.39084691162109375,1.8604198046875
-0.53410634765625,-0.48741250244140627,1.862877470703125
-0.439523125,-0.48202051513671873,1.699688447265625
-0.35272052734375,-0.5741744799804688,1.4826765380859375
-0.39697283203125,-0.39672907958984377,1.2226554736328126
-0.39648654296875,-0.3631517041015625,1.095594140625
-0.4283384765625,-0.38594510498046875,1.185544716796875
-0.58419412109375,-0.29183041748046873,1.2934362548828124
-0.5440752734375,-0.4719718115234375,1.2017653125
-0.2561921484375,-0.4249144677734375,1.1538408251953125
-0.22944625,-0.4332475390625,1.070525947265625
-0.2561921484375,-0.562655234375,1.0383305224609374
-0.1530988671875,-0.5089804516601563,0.9562444775390625
-0.02885201171875,-0.3624164331054687,0.9926179345703126
-0.02544798828125,-0.42932609375,1.088221142578125
-0.09109701171875,-0.5844682739257813,1.0712632470703125
-0.32548833984375003,-0.5905955322265625,0.99827056640625
-0.47818310546875,-0.4445216943359375,0.80362341796875
-0.45240978515625,-0.3562891748046875,0.64338359375
-0.40329458984375,-0.326388154296875,0.686638515625
-0.2299325390625,-0.042083369140625,0.81345408203125
-0.339347578125,0.011346323242187501,0.8839890966796875
-0.4978778125,-0.15065838623046876,0.7389868017578125
-0.41350666015625,-0.06585713134765625,0.6495277587890624
-0.3267040625,-0.03203466552734375,0.589806474609375
-0.2659179296875,0.0231106591796875,0.6293748974609374
-0.25740787109375,0.04712951171875,0.679265517578125
-0.36925435546875,0.032424091796875,0.717605107421875
-0.4390368359375,-0.0210056005859375,0.7296476708984375
-0.4604335546875,-0.026397587890625,0.6854096826171875
-0.44171142578125,0.008405239257812499,0.7094948095703125
-0.45143720703125,0.0012976196289062499,0.6910623144531249
-0.46164927734375,-0.00801581298828125,0.667468720703125
-0.4745359375,-0.1190417333984375,0.561297548828125
-0.27540056640625,-0.19477464599609376,0.517059560546875
-0.15577345703125,-0.2709977392578125,0.5345089892578125
-0.09741876953125,-0.24183198974609374,0.5077204296875
-0.09425789062500001,-0.2842326171875,0.5748147119140625
-0.24087404296875,-0.35016191650390627,0.5797300439453125
-0.33083751953125,-0.332270322265625,0.4819149365234375
-0.32694720703125,-0.30310457275390623,0.369599599609375
-0.29290697265625,-0.30653583740234375,0.3108613818359375
-0.27515742187500003,-0.3334957739257812,0.28923392089843747
-0.24670951171875,-0.33692703857421874,0.293903486328125
-0.28391062499999997,-0.34427974853515625,0.39073552734375
-0.34639876953125,-0.2920755078125,0.452177177734375
-0.40815748046875,-0.22026404052734375,0.5718655126953125
-0.41788326171875,-0.2004117236328125,0.6352732958984375
-0.4526529296875,-0.15114856689453124,0.6701721533203124
-0.34348103515625,-0.01781942626953125,0.7942842871093749
-0.1540714453125,-0.030073942871093752,0.866048134765625
-0.11468203125,-0.13105115966796876,1.0049062646484375
-0.3116291015625,-0.126394443359375,1.137374462890625
-0.486206875,-0.24869451904296874,1.001219765625
-0.494960078125,-0.293055869140625,0.7279273046875
-0.43757796875,-0.26658611328125,0.509195029296875
-0.220693046875,-0.336191767578125,0.399583125
-0.04465640625,-0.3053103857421875,0.47921150390625
-0.006239570312500001,-0.24183198974609374,0.4322700830078125
-0.0665394140625,-0.048945898437499996,0.65026505859375
-0.2075632421875,-0.06928839599609375,0.8913620947265625
-0.337402421875,-0.26094903564453126,1.023338759765625
-0.47088876953125003,-0.2386458154296875,1.2477236669921874
-0.60315939453125,-0.10360104248046875,1.3248943798828126
-0.55939337890625,-0.26830174560546877,1.14376439453125
-0.47842625,-0.14477621826171874,1.01203349609375
-0.42590703125,-0.08301345458984374,0.9061080908203125
-0.3952708203125,-0.10727739746093751,0.784453623046875
-0.42590703125,-0.13791368896484374,0.748080166015625
-0.31989601562500003,-0.2406065380859375,0.598654072265625
-0.27199654296875,-0.34035830322265626,0.61487466796875
-0.31284482421875,-0.16487362548828124,0.846386806640625
-0.32475890625,-0.03644629150390625,0.9542783447265625
-0.3476144921875,-0.05556333740234375,1.1218911669921874
-0.31697828125,-0.09085634521484375,1.168832587890625
-0.33910443359375,-0.14820748291015626,1.2629611962890626
-0.214857578125,-0.118551552734375,1.4669474755859375
-0.3427516015625,-0.17369687744140624,1.56451681640625
-0.5382398046875,-0.2660959326171875,1.6139159033203125
-0.5557462109375,-0.41388540283203124,1.4320486181640626
-0.5445615625,-0.457756572265625,1.17129025390625
-0.36755234375,-0.347956103515625,1.0186691943359376
-0.13291787109375,-0.24869451904296874,1.12606919921875
-0.12416466796875,-0.27124282958984375,1.3307927783203124
-0.1851939453125,-0.30580056640625,1.4359808837890624
-0.25886673828125,-0.20776443359375,1.4217264208984375
-0.41156150390625,-0.17173615478515625,1.3361996435546875
-0.30166017578125,-0.2729584619140625,1.290732822265625
-0.3291355078125,-0.23987126708984374,1.4399131494140625
-0.5601228125,-0.2111956982421875,1.55468615234375
-0.63719962890625,-0.2582530419921875,1.3180129150390625
-0.55550306640625,-0.25506686767578124,1.0592206835937499
-0.5713074609375,-0.353838271484375,0.8653108349609375
-0.50347013671875,-0.338152490234375,0.79379275390625
-0.2571647265625,-0.18644157470703124,0.805098017578125
-0.265431640625,-0.0955130615234375,0.8368019091796874
-0.30068759765624997,-0.13791368896484374,0.79182662109375
-0.19832375,-0.1631579931640625,0.876861865234375
-0.39843169921875,-0.2268814794921875,1.047915419921875
-0.5912453125,-0.2406065380859375,1.1243488330078124
-0.6145871875,-0.1082577587890625,0.9877026025390625
-0.57106431640625,-0.134237333984375,0.915201455078125
-0.57106431640625,-0.19036302001953126,0.8662939013671875
-0.37022693359375003,-0.15212892822265625,0.765283828125
-0.18349193359375,-0.12026718505859375,0.7596311962890625
-0.13948277343749999,-0.1866866650390625,0.8191067138671875
-0.138996484375,-0.1523740185546875,0.978117705078125
-0.14167107421875,-0.1710008837890625,1.172764853515625
-0.2099946875,-0.12565917236328125,1.3981328271484375
-0.36487775390625,0.030463369140625002,1.4846426708984375
-0.36366203125,-0.09722869384765626,1.2560797314453125
-0.389921640625,-0.1259042626953125,1.1096028369140625
-0.45630009765625,-0.16879507080078124,0.8785822314453124
-0.46991619140625,-0.1621776318359375,0.7397241015625
-0.506631015625,-0.1484525732421875,0.638959794921875
-0.47404964843749997,-0.2121760595703125,0.6079932031249999
-0.3952708203125,-0.1876670263671875,0.6224934326171875
-0.14264365234375,-0.1023755908203125,0.7129355419921874
-0.058272500000000005,-0.0955130615234375,0.810013349609375
-0.13875333984375,-0.244037802734375,0.861132802734375
-0.170118984375,-0.2308029248046875,0.84097994140625
-0.20926525390625,-0.01781942626953125,0.9842618701171875
-0.34153587890625,-0.1572758251953125,1.06708521484375
-0.41545181640625,-0.24869451904296874,0.9739396728515625
-0.44292714843750003,-0.2180582275390625,0.840488408203125
-0.44292714843750003,-0.25457668701171876,0.568179013671875
-0.3194097265625,-0.29526168212890624,0.387786328125
-0.263486484375,-0.25604722900390625,0.4661858740234375
-0.2143712890625,-0.16928525146484374,0.5005931982421875
-0.2882872265625,-0.0494360791015625,0.7851909228515626
-0.327676640625,-0.0332601171875,1.0621698828125
