ax,ay,az
-0.3767918359375,-0.03154448486328125,0.889641728515625
-0.21899103515625,-0.04036773681640625,0.9166760546875
-0.36487775390625,0.08756941650390625,0.9284728515625
-0.33667298828125003,-0.01144707763671875,0.930930517578125
-0.19832375,-0.020515419921875,0.8930824609375
-0.37119951171875,-0.0513968017578125,0.8908705615234375
-0.28391062499999997,0.0623251123046875,0.9380577490234375
-0.37411724609375,0.04149243408203125,0.8490902392578125
-0.24719580078125,0.0789912548828125,0.9100403564453124
-0.28196546875,0.1000690234375,0.942727314453125
-0.28585578125,0.1231075146484375,1.0530765185546875
-0.354908828125,0.150067451171875,1.0653648486328124
-0.2921775390625,0.0917359521484375,1.03366095703125
-0.35855599609375,0.1642826904296875,1.0732293798828125
-0.30871136718750003,0.04884514404296875,0.9596852099609375
-0.30506419921875,0.01796376220703125,0.9242948193359375
-0.27418484375,0.0809519775390625,0.9267524853515625
-0.296554140625,-0.03105430419921875,0.94125271484375
-0.25059982421875,-0.038161923828125,0.9650920751953125
-0.33910443359375,-0.02958376220703125,0.916184521484375
-0.3344846875,-0.00409436767578125,0.8498275390625
-0.27296912109375,-0.0866898095703125,0.7792925244140625
-0.33715927734375,-0.04379900146484375,0.7812586572265625
-0.25497642578125,-0.0621807763671875,0.827708544921875
-0.2960678515625,-0.0259074072265625,0.884726396484375
-0.3281629296875,0.05105095703125,0.9587021435546875
-0.29582470703125,0.01845394287109375,0.9827872705078124
-0.2834243359375,0.0387964404296875,0.9719735400390626
-0.33521412109375,-0.0063001806640625,0.8962774267578125
-0.24695265625,0.0417375244140625,0.9818042041015624
-0.284883203125,-0.023456503906250002,0.999745166015625
-0.4244481640625,-0.068553125,0.917167587890625
-0.224583359375,-0.02762303955078125,0.8579378369140624
-0.3874901953125,-0.0219859619140625,0.8616243359375
-0.3291355078125,-0.02125069091796875,0.915201455078125
-0.25789416015625,0.0294830078125,0.8923451611328125
-0.331566953125,-0.09379742919921875,0.957473310546875
-0.360744296875,-0.09379742919921875,1.0019570654296874
-0.28755779296875,0.0035034326171875,0.928964384765625
-0.28658521484375,-0.006790361328125,0.9036504248046875
-0.42590703125,0.011346323242187501,0.9166760546875
-0.251815546875,-0.1023755908203125,0.9129895556640625
-0.3855450390625,-0.1533543798828125,0.896523193359375
-0.26761994140625,-0.03742665283203125,0.9827872705078124
-0.3631757421875,-0.18840229736328126,0.9945840673828125
-0.33570041015625,-0.15163874755859374,1.0280083251953125
-0.28998923828125,-0.0886505322265625,0.99237216796875
-0.44608802734374997,-0.11095375244140625,0.906845390625
-0.26470220703125,-0.04698517578125,0.9196252539062499
-0.41010263671875,-0.06291604736328126,0.9144641552734375
-0.389921640625,-0.08252327392578125,0.9685328076171875
-0.17036212890625,-0.03301502685546875,0.9601767431640625
-0.3777644140625,0.00791505859375,1.0584833837890626
-0.3184371484375,0.0505607763671875,1.0928907080078125
-0.38481560546875,0.0368357177734375,0.9832788037109375
-0.34250845703125,0.05619785400390625,0.929947451171875
-0.22044990234375,-0.0415931884765625,0.8989808593749999
-0.337402421875,0.00325834228515625,0.9513291455078126
-0.3213548828125,0.06011929931640625,1.078390478515625
-0.35126166015625,-0.03350520751953125,1.0181776611328126
-0.33326896484375,0.010611052246093749,0.9985163330078125
-0.32743349609375,0.014777587890624999,0.91176072265625
-0.27515742187500003,0.03610044677734375,0.8599039697265625
-0.41034578125,-0.04723026611328125,0.89013326171875
-0.23066197265625,0.048109873046875,0.9434646142578125
-0.4127772265625,-0.0690433056640625,0.824759345703125
-0.1530988671875,-0.09134652587890625,0.7950215869140624
-0.31308796875,-0.123453359375,0.816894814453125
-0.31138595703125,-0.1484525732421875,0.7871570556640625
-0.16549923828125,-0.083258544921875,0.83508154296875
-0.30895451171875,-0.0406128271484375,0.9321593505859375
-0.40937320312500003,-0.123453359375,0.9429730810546875
-0.2099946875,-0.028113220214843748,1.0228472265625
-0.33229638671875,-0.0219859619140625,0.954524111328125
-0.3476144921875,-0.00605509033203125,1.0240760595703124
-0.166228671875,-0.05311243408203125,0.963371708984375
-0.3563676953125,0.06796218994140625,0.972219306640625
-0.3583128515625,0.1142842626953125,0.993846767578125
-0.2523018359375,0.0010525292968750002,0.8957858935546875
-0.181789921875,0.155949619140625,0.9827872705078124
-0.25254498046875,-0.01193725830078125,0.99237216796875
-0.24476435546875,0.01110123291015625,1.094119541015625
-0.3826273046875,0.08805959716796875,1.2133163427734375
-0.2824517578125,0.04149243408203125,1.07888201171875
-0.2912049609375,0.05374695068359375,1.1287726318359375
-0.430769921875,0.012816865234374999,1.156052724609375
-0.31624884765625,0.0976181201171875,1.109848603515625
-0.3972159765625,0.09835339111328124,1.1322133642578125
-0.3719289453125,-0.0827683642578125,1.0589749169921876
-0.30700935546875,-0.03154448486328125,0.978117705078125
-0.286828359375,-0.07860182861328124,0.8269712451171874
-0.28609892578125,-0.0592396923828125,0.704825244140625
-0.10471310546875,-0.10948321044921874,0.7448852001953125
-0.35272052734375,-0.08227818359375,0.901438525390625
-0.36876806640625,0.021640117187500002,0.9940925341796875
-0.3417790234375,-0.07419020263671874,1.016457294921875
-0.36196001953125,-0.0680629443359375,1.0597122167968749
-0.366579765625,0.02286556884765625,1.0936280078125
-0.34785763671875003,0.05570767333984375,1.1132893359375
-0.21753216796875,0.077520712890625,1.0530765185546875
-0.37144265625,-0.0097314453125,1.0334151904296875
-0.2464663671875,0.02776737548828125,1.115747001953125
-0.354908828125,-0.15997181884765624,1.120662333984375
-0.41156150390625,-0.0180645166015625,1.1852989501953124
-0.4526529296875,-0.10213050048828125,1.02776255859375
-0.3223274609375,-0.15457983154296875,0.9002096923828125
-0.32500205078125,-0.17173615478515625,0.7802755908203125
-0.3067662109375,-0.1430605859375,0.7753602587890625
-0.3563676953125,-0.032279755859375,0.7468513330078125
-0.14458880859375,-0.0317895751953125,0.8235305126953125
-0.32159802734375,0.028257556152343752,1.0226014599609374
-0.41788326171875,-0.01732924560546875,1.02186416015625
-0.356853984375,-0.1249239013671875,0.9065996240234375
-0.25473328125,0.0740894482421875,0.9614055761718749
-0.39016478515624997,-0.0523771630859375,0.9827872705078124
-0.45411179687500003,-0.0288484912109375,0.8879213623046875
-0.27783201171875,-0.03889719482421875,0.686146982421875
-0.26421591796875,-0.05899460205078125,0.673367119140625
-0.2289599609375,-0.09036616455078125,0.75840236328125
-0.2318776953125,0.05227640869140625,0.9434646142578125
-0.339347578125,0.06894255126953125,0.985982236328125
-0.4088869140625,0.07874616455078125,0.9380577490234375
-0.11735662109375,0.063795654296875,0.8825144970703125
-0.26616107421875,0.00668960693359375,0.865065068359375
-0.41642439453125,0.1084020947265625,0.98942296875
-0.12951384765625001,0.1123235400390625,1.0668394482421875
-0.30020130859375,0.0922261328125,1.118696201171875
-0.48012826171875,0.11403917236328125,1.155069658203125
-0.30141703125,0.12482314697265626,1.0653648486328124
-0.40086314453125,0.0829127001953125,0.8422087744140625
-0.240144609375,0.0917359521484375,0.892590927734375
-0.1550440234375,0.01845394287109375,0.98450763671875
-0.3466419140625,-0.00581,1.16735798828125
-0.2007551953125,0.130460224609375,1.262223896484375
-0.39940427734375,-0.00581,1.2133163427734375
-0.3680386328125,-0.046740085449218746,1.1636714892578124
-0.35344996093750003,-0.046740085449218746,1.0471781201171875
-0.3952708203125,0.0037485229492187503,1.0329236572265625
-0.3242726171875,-0.02419177490234375,1.0604495166015624
-0.39697283203125,-0.2102153369140625,0.9660751416015625
-0.408400625,-0.1484525732421875,0.86064126953125
-0.3602580078125,-0.1901179296875,0.6726298193359375
-0.2022140625,-0.159726728515625,0.576535078125
-0.25838044921875,-0.00850599365234375,0.671400986328125
-0.24136033203125,-0.024436865234375,0.8105048828125
-0.3339983984375,0.03953171142578125,1.0137538623046876
-0.3991611328125,0.10325519775390625,1.2290454052734374
-0.42590703125,0.13413657958984376,1.2745122265625
-0.401592578125,0.03364954345703125,1.0759328125
-0.36147373046875,0.022620478515625,0.875387265625
-0.21461443359375,-0.1641383544921875,0.7237492724609375
-0.11492517578125,-0.19771572998046874,0.7539785644531249
-0.234309140625,-0.21242114990234376,0.99237216796875
-0.41545181640625,-0.151883837890625,1.24010490234375
-0.486206875,-0.14477621826171874,1.25190169921875
-0.36463460937500003,0.06747200927734374,1.0727378466796875
-0.347128203125,-0.048945898437499996,0.8655566015625
-0.1569891796875,-0.083258544921875,0.8746499658203125
-0.19613544921875,0.1280093212890625,0.9891772021484375
-0.3057936328125,0.1417343798828125,1.04742388671875
-0.368524921875,0.0966377587890625,0.9660751416015625
-0.28464005859375,0.0451687890625,0.8299204443359375
-0.12562353515625,0.00178780029296875,0.8225474462890625
-0.224583359375,-0.05752406005859375,0.977134638671875
-0.34421046875,-0.03399538818359375,1.0609410498046874
-0.343237890625,-0.0332601171875,0.9547698779296875
-0.35904228515625003,0.0074248779296875,0.830657744140625
-0.40572603515625,0.05227640869140625,0.8230389794921875
-0.22579908203125,0.05913893798828125,0.9110234228515625
-0.37363095703125,0.14418528320312501,0.98942296875
-0.3339983984375,0.09590248779296875,0.9665666748046875
-0.15820490234375,0.14295983154296876,0.9061080908203125
-0.304334765625,0.02090484619140625,0.8930824609375
-0.1385101953125,-0.03399538818359375,0.9709904736328125
-0.162338359375,-0.042328459472656246,0.930930517578125
-0.36925435546875,0.05668803466796875,0.9621428759765625
-0.2756437109375,0.11403917236328125,1.0407881884765624
-0.3967296875,0.02531647216796875,1.0395593554687501
-0.29144810546875,0.056933125,1.192426181640625
-0.3583128515625,0.00963069091796875,1.2590289306640625
-0.43101306640625,-0.03301502685546875,1.173747919921875
-0.312115390625,0.026541923828125,1.034152490234375
-0.356853984375,-0.09183670654296874,0.85277673828125
-0.0621628125,-0.057278969726562504,0.8603955029296875
-0.19710802734375,-0.076396015625,0.9537868115234375
-0.34445361328125,0.03021827880859375,1.1548238916015625
-0.16647181640625,-0.0016434643554687498,1.2064348779296874
-0.38700390625000003,-0.0180645166015625,1.0776531787109376
-0.31478998046875,0.06796218994140625,1.04152548828125
-0.28804408203125,-0.004829638671875,1.067576748046875
-0.43927998046875,-0.0082609033203125,1.0717547802734375
-0.43344451171875,0.011346323242187501,0.9641090087890625
-0.2805066015625,-0.07271966064453125,0.845403740234375
-0.30020130859375,-0.0945327001953125,0.8812856640625
-0.28464005859375,-0.0072805419921875,0.8825144970703125
-0.224583359375,-0.0749254736328125,0.9714820068359376
-0.393811953125,-0.046740085449218746,1.158018857421875
-0.2834243359375,-0.07566074462890625,1.1010010058593749
-0.3495596484375,-0.139139140625,0.8785822314453124
-0.214857578125,-0.06242586669921875,0.77019916015625
-0.27685943359375,-0.13742350830078126,0.7080202099609375
-0.2600824609375,-0.0999246875,0.772656826171875
-0.37508982421875,-0.12614935302734376,0.7055625439453125
-0.30117388671875,-0.04477936279296875,0.699909912109375
-0.21558701171875,-0.1200220947265625,0.6859012158203125
-0.31770771484375,-0.128355166015625,0.7212916064453125
-0.27783201171875,0.142224560546875,0.8938197607421875
-0.32986494140625,0.09149086181640625,0.94125271484375
-0.39575710937499997,0.2054578662109375,0.95698177734375
-0.2396583203125,0.21795747314453126,0.8839890966796875
-0.345183046875,0.15864561279296874,0.860149736328125
-0.30530734375,0.2417312353515625,0.9206083203125
-0.23844259765625,0.17482157470703125,0.7969877197265625
-0.24768208984375,-0.02272123291015625,0.746114033203125
-0.191515703125,0.03659062744140625,0.8466325732421875
-0.3077387890625,0.0848734228515625,1.0103131298828125
-0.30020130859375,0.177517568359375,1.1862820166015624
-0.4978778125,0.09933375244140626,1.2865547900390626
-0.4147223828125,0.0593840283203125,1.11427240234375
-0.29728357421875,0.02531647216796875,1.05725455078125
-0.3349709765625,0.055462583007812497,1.090187275390625
-0.345183046875,0.0162481298828125,1.0570087841796876
-0.265431640625,0.0936966748046875,1.000728232421875
-0.39502767578125,-0.050661530761718754,0.8918536279296875
-0.31697828125,-0.04428918212890625,0.8023945849609375
-0.23455228515625,0.019434304199218752,0.7773263916015625
-0.2941226953125,-0.04330882080078125,0.7345630029296875
-0.27053767578125,-0.01438816162109375,0.8599039697265625
-0.2824517578125,-0.07958218994140626,0.950591845703125
-0.3446967578125,-0.1327667919921875,0.986965302734375
-0.450221484375,-0.0788469189453125,1.0422627880859374
-0.32864921874999997,-0.124433720703125,0.929947451171875
-0.30506419921875,-0.0798272802734375,1.0088385302734375
-0.34250845703125,0.0025230712890624996,1.14179826171875
-0.44317029296875,0.0319339111328125,1.098051806640625
-0.29509527343749997,-0.0371815625,0.8687515673828125
-0.23990146484375,-0.07370002197265625,0.8191067138671875
-0.21072412109375,-0.07909200927734375,0.931913583984375
-0.222638203125,-0.20384298828125,1.016948828125
-0.34056330078125,-0.11291447509765624,1.174730986328125
-0.32864921874999997,-0.046249904785156254,1.0619241162109374
-0.2878009375,-0.1053166748046875,0.8603955029296875
-0.30700935546875,0.04737460205078125,0.9144641552734375
-0.407428046875,0.023845930175781252,0.9429730810546875
-0.3729015234375,0.10178465576171875,0.978117705078125
-0.46894361328125,0.1280093212890625,0.8677685009765626
-0.2999581640625,0.0770305322265625,0.702859111328125
-0.19419029296875,0.06502110595703126,0.635027529296875
-0.28585578125,0.120656611328125,0.63256986328125
-0.15042427734375,0.103010107421875,0.733825703125
-0.14021220703125,-0.023456503906250002,0.96484630859375
-0.24768208984375,0.07850107421875,1.300071953125
-0.34980279296875,0.04247279541015625,1.4851342041015625
-0.421044140625,0.05913893798828125,1.3755222998046874
-0.5061447265625,0.12947986328125,1.1329506640625
-0.47404964843749997,0.12335260498046875,0.878827998046875
-0.339347578125,-0.05017135009765625,0.7448852001953125
-0.27613,0.126538779296875,0.766758427734375
-0.22677166015625,0.01183650390625,0.725961171875
-0.1725504296875,-0.1298257080078125,0.7984623193359375
-0.2333365625,-0.05801424072265625,0.9080742236328125
-0.30457791015625,-0.11561046875,1.008592763671875
-0.32208431640625,0.04320806640625,1.1754682861328125
-0.39575710937499997,0.0642858349609375,1.3573355712890625
-0.40183572265625,0.05668803466796875,1.460803310546875
-0.28172232421875,-0.0332601171875,1.3996074267578125
-0.459947265625,0.02678701416015625,1.2688595947265624
-0.37411724609375,-0.05262225341796875,1.0402966552734374
-0.2406308984375,7.216796875000007e-05,0.92945591796875
-0.37508982421875,0.00276816162109375,0.9557529443359375
-0.356853984375,-0.17418705810546875,0.9778719384765625
-0.2678630859375,-0.2043331689453125,0.842454541015625
-0.25351755859375,-0.15801109619140624,0.7266984716796875
-0.20780638671875,-0.08840544189453126,0.6800028173828125
-0.1385101953125,-0.15703073486328126,0.8043607177734375
-0.154557734375,0.0294830078125,1.0609410498046874
-0.36974064453125,-0.0180645166015625,1.2231470068359376
-0.38384302734375,0.0809519775390625,1.3779799658203125
-0.512466484375,0.012816865234374999,1.40132779296875
-0.38141158203125003,0.065756376953125,1.194392314453125
-0.4108320703125,0.15570452880859376,1.0304659912109375
-0.34810078125,-0.0749254736328125,0.9852449365234375
-0.20148462890625,0.02923791748046875,0.97369390625
-0.28123603515625,0.03266918212890625,0.8028861181640625
-0.1929745703125,0.0451687890625,0.778555224609375
-0.1336473046875,0.036345537109375,0.86457353515625
-0.29363640625,0.1829095556640625,1.0395593554687501
-0.35466568359375,0.1397736572265625,1.1651460888671874
-0.44560173828125,0.06453092529296875,1.2332234375
-0.37022693359375003,0.21795747314453126,1.24600330078125
-0.510521328125,0.1436951025390625,0.9788550048828125
-0.38141158203125003,0.103010107421875,0.7851909228515626
-0.19370400390625,0.118695888671875,0.7989538525390625
-0.378250703125,0.09247122314453125,0.868014267578125
-0.22677166015625,0.01575794921875,0.9822957373046874
-0.17133470703125,0.009140510253906251,1.1002637060546876
-0.1706052734375,-0.05801424072265625,1.0938737744140625
-0.21753216796875,-0.1004148681640625,1.1617053564453126
-0.221665625,-0.1719812451171875,1.1238572998046874
-0.43490337890624997,-0.179333955078125,1.067576748046875
-0.40864376953125,-0.19330410400390624,0.993355234375
-0.345183046875,-0.173451787109375,0.8309035107421875
-0.38335673828125,-0.17761832275390624,0.7611057958984375
-0.41642439453125,-0.13938423095703126,0.7908435546875
-0.26178447265625,-0.16046199951171874,0.7606142626953125
-0.23406599609375,-0.09036616455078125,0.689096181640625
-0.2289599609375,-0.12418863037109375,0.645841259765625
-0.08088494140625,-0.11242429443359375,0.7031048779296875
-0.1793584765625,0.00766996826171875,0.9070911572265625
-0.33521412109375,0.00227798095703125,1.1368829296875
-0.185680234375,-0.05458297607421875,1.2324861376953125
-0.3145468359375,0.0495804150390625,1.209138310546875
-0.2717533984375,-0.09771887451171875,1.0896957421875
-0.20488865234375,-0.02149578125,1.08871267578125
-0.4059691796875,0.04320806640625,1.0014655322265624
-0.44511544921875,0.11305881103515625,0.979100771484375
-0.496905234375,0.1113431787109375,0.8879213623046875
-0.37557611328125,0.10913736572265625,0.7964961865234375
-0.2309051171875,0.182419375,0.820827080078125
-0.27977716796875,0.07041309326171875,0.8778449316406249
-0.14458880859375,0.17874302001953124,0.956490244140625
-0.1667149609375,0.0838930615234375,0.86850580078125
-0.3033621875,0.10913736572265625,0.945676513671875
-0.2464663671875,0.1348718505859375,1.0385762890625
-0.2484115234375,0.008405239257812499,1.0987891064453126
-0.4079143359375,0.0623251123046875,1.098051806640625
-0.38043900390625,-0.085219267578125,0.9655836083984375
-0.377278125,-0.02713285888671875,0.8301662109375
-0.450221484375,-0.0072805419921875,0.705808310546875
-0.34493990234375,0.04100225341796875,0.6854096826171875
-0.2766162890625,0.02335574951171875,0.785436689453125
-0.34007701171875,-0.06193568603515625,0.886692529296875
-0.23455228515625,-0.1337471533203125,0.9587021435546875
-0.22190876953125,-0.14330567626953125,0.9665666748046875
-0.32548833984375003,-0.05213207275390625,0.8694888671875
-0.24184662109375,0.02433611083984375,0.748080166015625
-0.337402421875,0.030463369140625002,0.7979707861328125
-0.22871681640625,0.1642826904296875,0.9139726220703125
-0.27296912109375,0.06011929931640625,0.9638632421875
-0.1827625,0.093206494140625,1.1872650830078124
-0.38700390625000003,0.06624655761718751,1.3003177197265625
-0.53605150390625,-0.06928839599609375,1.1464678271484374
-0.3485870703125,0.0486000537109375,0.9994993994140625
-0.44511544921875,-0.1337471533203125,0.969761640625
-0.51368220703125,-0.2249207568359375,0.915201455078125
-0.42080099609375,-0.27712499755859377,0.741690234375
-0.148722265625,-0.23055783447265624,0.5708824462890625
-0.10301109375,-0.21977385986328124,0.547534619140625
-0.08866556640625001,-0.059729873046875,0.68958771484375
-0.1764407421875,0.00963069091796875,0.8741584326171875
-0.38287044921875,0.13805802490234376,1.153103525390625
-0.40767119140625,0.26158355224609375,1.2860632568359376
-0.4448723046875,0.1784979296875,1.1916888818359375
-0.41010263671875,0.0946770361328125,1.1027213720703124
-0.28415376953125,-0.02517213623046875,1.0157199951171876
-0.4614061328125,-0.03546593017578125,0.93732044921875
-0.392839375,0.09982393310546875,0.9567360107421875
-0.360744296875,-0.05213207275390625,0.9056165576171875
-0.2834243359375,0.07065818359375,1.03562708984375
-0.2873146484375,0.02776737548828125,0.9665666748046875
-0.24038775390625,-0.06683749267578125,0.8122252490234375
-0.11152115234375,0.0037485229492187503,0.7974792529296875
-0.2416034765625,-0.050661530761718754,0.880794130859375
-0.1774133203125,-0.01046671630859375,0.937811982421875
-0.28318119140625,0.073599267578125,0.97664310546875
-0.36439146484375,0.134381669921875,0.9690243408203125
-0.4721044921875,0.02090484619140625,0.98057537109375
-0.22701480468750002,0.0633054736328125,1.1700614208984375
-0.36293259765625,0.07286399658203124,1.366428935546875
-0.43490337890624997,0.01796376220703125,1.40722619140625
-0.36390517578125,0.00963069091796875,1.1762055859375
-0.31089966796875,0.0338946337890625,0.9970417333984375
-0.33521412109375,-0.05703387939453125,0.9395323486328125
-0.15869119140625,-0.06928839599609375,0.9080742236328125
-0.221665625,-0.06879821533203125,0.9582106103515625
-0.2814791796875,-0.052867343750000004,1.0874838427734375
-0.36828177734375,-0.087179990234375,0.9832788037109375
-0.286828359375,-0.04919098876953125,0.7842078564453125
-0.2668905078125,-0.1023755908203125,0.736283369140625
-0.411318359375,0.02360083984375,0.7463597998046875
-0.24670951171875,-0.05311243408203125,0.7561904638671875
-0.335457265625,-0.11291447509765624,0.8535140380859375
-0.2192341796875,0.106931552734375,1.02383029296875
-0.07748091796875001,-0.0013983740234375002,1.166866455078125
-0.2795340234375,-0.02737794921875,1.402310859375
-0.35806970703125,-0.14869766357421876,1.3725731005859374
-0.1633109375,-0.14526639892578125,1.17718865234375
-0.3446967578125,-0.1513936572265625,1.0157199951171876
-0.24865466796875,-0.0371815625,0.8358188427734374
-0.1151683203125,-0.05115171142578125,0.6932742138671875
-0.24670951171875,-0.02713285888671875,0.703842177734375
-0.3485870703125,0.15472416748046874,1.0009739990234374
-0.3913805078125,0.19050735595703125,1.1592476904296876
-0.483289140625,0.2020266015625,1.1346710302734375
-0.3213548828125,0.14148928955078124,0.9326508837890625
-0.23503857421875,0.10129447509765625,0.809030283203125
-0.07067287109375,0.0035034326171875,0.9835245703125
-0.25205869140625,0.0770305322265625,1.17718865234375
-0.330594375,-0.07026875732421875,1.2629611962890626
-0.39162365234375,-0.12271808837890624,1.204222978515625
-0.42858162109375,-0.0935523388671875,1.0481611865234375
-0.35393625,0.0466393310546875,0.8783364648437499
-0.42128728515625,-0.0190448779296875,0.6377309619140625
-0.16720125,-0.05899460205078125,0.53328015625
-0.19370400390625,0.019679394531249998,0.5866115087890625
-0.37922328125,-0.091101435546875,0.650756591796875
-0.35515197265625,-0.0964934228515625,0.7498005322265625
-0.34931650390625,0.016738310546875,0.93338818359375
-0.45168035156249997,0.00178780029296875,0.929947451171875
-0.29631099609375,0.0633054736328125,0.92650671875
-0.29169125,0.06257020263671875,0.995812900390625
-0.27102396484375,-0.030319033203124998,1.026287958984375
-0.2328502734375,-0.0028689160156250004,1.0923991748046875
-0.3330258203125,0.075559990234375,1.11427240234375
-0.37338781249999997,-0.1641383544921875,1.0137538623046876
-0.20099833984375,-0.0641414990234375,0.980083837890625
-0.3111428125,-0.15408965087890625,0.8903790283203125
-0.22920310546875,-0.120512275390625,0.9390408154296875
-0.28269490234375,-0.09379742919921875,0.93928658203125
-0.44535859375,-0.02664267822265625,0.9547698779296875
-0.38238416015625,-0.01928996826171875,0.8117337158203125
-0.30530734375,-0.011201987304687501,0.7257154052734375
-0.19419029296875,-0.00703545166015625,0.6908165478515624
-0.19321771484375,0.06796218994140625,0.7439021337890624
-0.1900568359375,0.07727562255859374,1.0093300634765625
-0.28853037109375,0.07261890625,1.2570627978515625
-0.34737134765625,0.267710810546875,1.31285181640625
-0.2678630859375,0.1584005224609375,1.1880023828125
-0.3408064453125,0.2123203955078125,1.0747039794921875
-0.38335673828125,0.0936966748046875,0.9410069482421874
-0.31187224609374997,0.00791505859375,0.863098935546875
-0.31965287109375,0.0020328906249999995,0.7817501904296875
-0.3057936328125,0.10080429443359375,0.7158847412109375
-0.27442798828125,0.05374695068359375,0.64043439453125
-0.29533841796875,-0.02615249755859375,0.6800028173828125
-0.2610550390625,0.03536517578125,0.89209939453125
-0.28561263671875,-0.0254172265625,0.9842618701171875
-0.28998923828125,-0.011201987304687501,0.961897109375
-0.201241484375,-0.08938580322265625,0.9783634716796875
-0.29971501953125,-0.14330567626953125,1.13098453125
-0.3505322265625,-0.0141430712890625,1.22240970703125
-0.32305689453124997,-0.07811164794921875,1.008592763671875
-0.35417939453125,-0.13056097900390626,1.0024485986328124
-0.26761994140625,-0.10703230712890625,1.04939001953125
-0.378250703125,-0.18301031005859375,0.95796484375
-0.2955815625,-0.060710234375,0.88816712890625
-0.20877896484375,-0.19403937500000001,0.8151744482421874
-0.3019033203125,-0.0700236669921875,0.764792294921875
-0.3330258203125,-0.05899460205078125,0.82721701171875
-0.2814791796875,-0.0504164404296875,0.9690243408203125
-0.26154132812499997,0.036345537109375,0.9901602685546875
-0.27345541015625,0.030463369140625002,1.0044147314453125
-0.27807515625,0.1417343798828125,1.0633987158203124
-0.292663828125,0.09198104248046875,1.0388220556640624
-0.2056180859375,0.19933060791015625,1.16932412109375
-0.38505875,0.106931552734375,1.2005364794921876
-0.2065906640625,0.028257556152343752,1.1892312158203124
-0.39356880859375,0.10913736572265625,1.082322744140625
-0.3301080859375,0.0378160791015625,0.912252255859375
-0.28196546875,0.030463369140625002,0.828200078125
-0.2892598046875,-0.01953505859375,0.89996392578125
-0.28123603515625,-0.0504164404296875,0.95796484375
-0.3155194140625,0.00865032958984375,0.7773263916015625
-0.3184371484375,0.03512008544921875,0.6495277587890624
-0.057543066406249996,0.07139345458984375,0.742181767578125
-0.251815546875,0.16158669677734375,0.9685328076171875
-0.36536404296875,0.25766210693359376,1.23027423828125
-0.32889236328125,0.17727247802734375,1.292698955078125
-0.33910443359375,0.14639109619140625,1.0732293798828125
-0.172064140625,0.05570767333984375,0.9306847509765624
-0.2338228515625,0.03659062744140625,0.981066904296875
-0.33253953125,-0.0347306591796875,1.1430270947265626
-0.43295822265625,0.02972809814453125,1.229782705078125
-0.415208671875,-0.14134495361328125,1.0759328125
-0.347128203125,-0.2293323828125,0.927981318359375
-0.29971501953125,-0.20384298828125,0.7994453857421875
-0.1881116796875,-0.01389798095703125,0.6824604833984375
-0.11978806640625,-0.08693489990234375,0.7055625439453125
-0.376305546875,-0.0006631030273437505,0.938795048828125
-0.32086859375,0.0064445166015625,1.1902142822265624
-0.41447923828125,-0.068553125,1.230765771484375
-0.3349709765625,-0.011201987304687501,1.1341794970703125
-0.19419029296875,-0.08840544189453126,1.0216183935546874
-0.24306234375,-0.1847259423828125,1.1096028369140625
-0.34056330078125,-0.03889719482421875,1.228799638671875
-0.43587595703125,-0.0435539111328125,1.2332234375
-0.49520322265625,-0.01169216796875,1.0464408203125
-0.3485870703125,-0.060710234375,0.92355751953125
-0.190543125,-0.0435539111328125,0.8183694140625
-0.21801845703125,-0.0925719775390625,0.741690234375
-0.08380267578125,0.0446786083984375,0.83901380859375
-0.273212265625,0.0760501708984375,0.9847534033203125
-0.27491427734375,0.099088662109375,1.1258234326171874
-0.28658521484375,0.11599989501953126,1.22044357421875
-0.33959072265625,0.1427147412109375,1.2226554736328126
-0.2824517578125,0.08242251953125,1.138357529296875
-0.37071322265625,0.05276658935546875,0.9990078662109375
-0.175954453125,0.0907555908203125,1.04349162109375
-0.366579765625,0.0613447509765625,1.0747039794921875
-0.33521412109375,-0.0425735498046875,1.002694365234375
-0.2177753125,-0.028358310546875,0.89209939453125
-0.2834243359375,-0.0411030078125,0.7709364599609375
-0.1550440234375,-0.0455146337890625,0.7144101416015625
-0.19516287109375,-0.02517213623046875,0.7502920654296875
-0.30457791015625,-0.0200252392578125,0.786419755859375
-0.20294349609375,0.0142874072265625,0.79379275390625
-0.2892598046875,-0.018554697265625,0.7842078564453125
-0.24306234375,0.112813720703125,0.8834975634765625
-0.15820490234375,0.09688284912109375,0.94911724609375
-0.28998923828125,-0.025662316894531252,1.0503730859375
-0.32597462890625,0.03536517578125,1.2280623388671874
-0.34226531250000003,-0.00360418701171875,1.2098756103515624
-0.25983931640625,0.00816014892578125,1.0778989453125
-0.31187224609374997,-0.10654212646484375,0.9818042041015624
-0.25497642578125,-0.0955130615234375,0.9523122119140625
-0.17619759765625,-0.16389326416015626,0.821810146484375
-0.27053767578125,-0.1043363134765625,0.71121517578125
-0.1827625,-0.0121823486328125,0.738249501953125
-0.08963814453125,-0.07320984130859375,0.8097675830078125
-0.1988100390625,-0.11144393310546875,0.9245405859375
-0.26178447265625,0.00717978759765625,1.056271484375
-0.25351755859375,0.07041309326171875,1.0909245751953125
-0.389921640625,0.07678544189453125,1.0909245751953125
-0.30749564453125,0.1329111279296875,1.1032129052734374
-0.2581373046875,0.0858537841796875,1.044966220703125
-0.26178447265625,-0.10286577148437501,0.9709904736328125
-0.1205175,-0.169530341796875,1.0250591259765625
-0.21558701171875,-0.08203309326171875,0.9537868115234375
-0.1083602734375,0.024091020507812498,0.9704989404296875
-0.28658521484375,-0.0759058349609375,1.1312302978515625
-0.53848294921875,0.016738310546875,1.174239453125
-0.27685943359375,0.1329111279296875,0.931913583984375
-0.30141703125,0.14516564453125,0.725961171875
-0.40767119140625,0.0765403515625,0.78592822265625
-0.12951384765625001,-0.03522083984375,0.87931953125
-0.17327986328125,-0.0288484912109375,0.762826162109375
-0.035903203125000005,0.0069346972656249995,0.76430076171875
-0.06143337890625,-0.09869923583984375,0.928964384765625
-0.31722142578125,-0.04428918212890625,1.0896957421875
-0.4127772265625,0.10276501708984374,1.1523662255859375
-0.41302037109375,0.10276501708984374,1.222901240234375
-0.47137505859375,0.07065818359375,1.1081282373046875
-0.308225078125,0.0623251123046875,0.938795048828125
-0.1997826171875,0.10570610107421875,0.9547698779296875
-0.3242726171875,-0.04526954345703125,0.9478884130859375
-0.13024328125,0.05570767333984375,0.910286123046875
-0.19467658203125,0.09492212646484376,0.7987080859375
-0.154557734375,-0.05213207275390625,0.806081083984375
-0.25351755859375,-0.02615249755859375,0.888658662109375
-0.247925234375,0.05962911865234375,1.0088385302734375
-0.30311904296875003,-0.11291447509765624,0.9832788037109375
-0.29631099609375,-0.0386521044921875,1.0992806396484376
-0.27613,0.06845237060546874,1.1258234326171874
-0.33959072265625,-0.059729873046875,1.113780869140625
-0.31770771484375,-0.03595611083984375,1.076424345703125
-0.2386857421875,-0.06634731201171876,0.9616513427734374
-0.1064151171875,-0.00703545166015625,0.776589091796875
-0.19078626953125,-0.0180645166015625,0.7345630029296875
-0.0752926171875,0.06502110595703126,0.945676513671875
-0.007455292968749999,-0.01291761962890625,1.11525546875
-0.22288134765625,0.0162481298828125,1.3420980419921875
-0.26421591796875,0.08021670654296875,1.5278975927734375
-0.41253408203124997,-0.013407800292968751,1.3248943798828126
-0.55428734375,-0.02272123291015625,1.0294829248046875
-0.35661083984374997,0.00717978759765625,0.95894791015625
-0.29679728515625,-0.01928996826171875,0.9365831494140625
-0.1424005078125,0.04541387939453125,0.9169218212890625
-0.11930177734375,-0.15507001220703126,0.6829520166015625
-0.15382830078125,-0.20384298828125,0.641908994140625
-0.058272500000000005,-0.18644157470703124,0.8058353173828126
-0.057056777343750004,-0.24869451904296874,0.9542783447265625
-0.32791978515625,0.08634396484375,1.173747919921875
-0.28026345703125,0.10766682373046875,1.2258504394531249
-0.3320532421875,0.13340130859375,1.3317758447265624
-0.45630009765625,0.1485969091796875,1.0825685107421874
-0.2561921484375,0.05619785400390625,0.888658662109375
-0.34104958984375,0.07727562255859374,0.6976980126953125
-0.16136578125,0.00619942626953125,0.65419732421875
-0.10301109375,0.01845394287109375,0.8638362353515625
-0.3077387890625,-0.04085791748046875,1.1916888818359375
-0.25983931640625,0.128499501953125,1.279919091796875
-0.35223423828125,0.04198261474609375,1.103458671875
-0.22920310546875,0.0530116796875,0.9528037451171875
-0.21753216796875,0.17776265869140626,0.946168046875
-0.29485212890625,-0.00850599365234375,1.0149826953125
-0.42517759765625,0.064776015625,1.0307117578125
-0.17960162109375,0.06257020263671875,0.872929599609375
-0.35563826171875,-0.01978014892578125,0.8471241064453126
-0.3189234375,-0.07468038330078125,0.944693447265625
-0.33253953125,0.04639424072265625,1.0137538623046876
-0.343237890625,-0.030073942871093752,1.0073639306640625
-0.38287044921875,-0.045024453125,1.037101689453125
-0.22871681640625,-0.0376717431640625,1.053813818359375
-0.26154132812499997,-0.06585713134765625,1.071509013671875
-0.33472783203125,0.03561026611328125,1.0688055810546875
-0.43538966796875,0.11305881103515625,1.0122792626953125
-0.47259078125,0.03021827880859375,0.9139726220703125
-0.2853694921875,-0.05213207275390625,0.848352939453125
-0.2464663671875,-0.06659240234375,0.7751144921875
-0.2698082421875,-0.08595453857421875,0.7601227294921875
-0.22774423828125,-0.1053166748046875,0.760860029296875
-0.30311904296875003,-0.130315888671875,0.740215634765625
-0.3189234375,0.00766996826171875,0.8151744482421874
-0.1633109375,-0.08423890625,0.8436833740234375
-0.28074974609375003,-0.0180645166015625,0.948625712890625
-0.1190586328125,-0.08693489990234375,1.0171945947265626
-0.20051205078125,0.0025230712890624996,1.0395593554687501
-0.2289599609375,0.13952856689453125,1.1135351025390625
-0.4759948046875,0.04884514404296875,0.977134638671875
-0.24184662109375,0.00766996826171875,0.84884447265625
-0.035903203125000005,0.1044806494140625,1.0727378466796875
-0.4108320703125,0.10178465576171875,1.268613828125
-0.27394169921875,0.0809519775390625,1.378225732421875
-0.33424154296874997,0.13903838623046874,1.3632339697265625
-0.387976484375,0.1446754638671875,1.108865537109375
-0.19224513671875,0.026541923828125,0.9346170166015625
-0.13875333984375,0.0074248779296875,0.8205813134765625
-0.26761994140625,0.0466393310546875,0.87931953125
-0.16720125,-0.01193725830078125,0.9149556884765625
-0.2756437109375,0.03119864013671875,0.9992536328125
-0.2873146484375,-0.0759058349609375,1.064136015625
-0.27394169921875,0.0270321044921875,1.01989802734375
-0.290718671875,0.02090484619140625,0.9847534033203125
-0.343237890625,0.021885207519531248,0.9542783447265625
-0.28901666015625,-0.02860340087890625,0.89504859375
-0.10860341796875,-0.00948635498046875,1.0457035205078125
-0.28196546875,-0.02468195556640625,1.213562109375
-0.35101851562499997,-0.1509034765625,1.21257904296875
-0.2955815625,-0.02076051025390625,1.001711298828125
-0.21947732421875,-0.0268877685546875,0.810996416015625
-0.1866528125,0.01306195556640625,0.7960046533203124
-0.252788125,-0.08227818359375,0.8972604931640625
-0.27540056640625,0.00570924560546875,1.1366371630859375
-0.2591098828125,0.028502646484374998,1.0447204541015624
-0.41423609375,-0.010711806640625,0.8692431005859375
-0.3057936328125,-0.047965537109375,0.8608870361328125
-0.2386857421875,-0.120512275390625,0.757910830078125
-0.236254296875,-0.09085634521484375,0.660587255859375
-0.0850183984375,0.03315936279296875,0.80067421875
-0.2099946875,0.0294830078125,1.0339067236328126
-0.3670660546875,0.17040994873046875,1.1730106201171875
-0.39308251953125,0.24589777099609375,1.198324580078125
-0.28707150390625,0.18021356201171876,1.35807287109375
-0.5654719921875,0.22947671875,1.309411083984375
-0.55793451171875,0.12286242431640625,0.98647376953125
-0.34737134765625,-0.01487834228515625,0.7783094580078125
-0.2999581640625,-0.0425735498046875,0.5873488085937499
-0.2406308984375,-0.0915916162109375,0.4892879345703125
-0.16209521484375,-0.1847259423828125,0.5460600195312499
-0.31673513671875,-0.13742350830078126,0.6138916015625
-0.32281375,0.08462833251953125,0.7783094580078125
-0.29971501953125,0.06158984130859375,0.855234404296875
-0.4667553125,-0.02076051025390625,0.9542783447265625
-0.299471875,0.05815857666015625,0.9891772021484375
-0.36755234375,0.06845237060546874,0.9442019140625
-0.35417939453125,0.10202974609375,0.9449392138671875
-0.34396732421875,0.010856142578125,0.96681244140625
-0.27515742187500003,0.019434304199218752,1.0019570654296874
-0.36876806640625,-0.03203466552734375,1.00023669921875
-0.2785614453125,-0.08448399658203125,1.036118623046875
-0.2688356640625,0.01845394287109375,1.1189419677734376
-0.29874244140625,0.04982550537109375,1.09952640625
-0.148722265625,0.06257020263671875,1.025304892578125
-0.28609892578125,-0.030319033203124998,1.047915419921875
-0.366579765625,0.097127939453125,1.110831669921875
-0.30798193359375,0.03512008544921875,0.9921264013671875
-0.3072525,0.0152677685546875,0.8874298291015625
-0.27588685546875,0.099088662109375,0.830657744140625
-0.32013916015625,-0.139139140625,0.77019916015625
-0.24695265625,-0.087179990234375,0.855234404296875
-0.29728357421875,-0.0023787353515625003,0.954032578125
-0.38821962890625,-0.042328459472656246,1.055779951171875
-0.22336763671875,0.004973974609375,1.2423168017578126
-0.27977716796875,0.0044837939453125,1.243545634765625
-0.290718671875,-0.00360418701171875,1.120662333984375
-0.338375,0.0221302978515625,0.9520664453125
-0.3690112109375,0.0799716162109375,0.8490902392578125
-0.38724705078125,0.085363603515625,0.73677490234375
-0.403537734375,0.0030132519531249997,0.688113115234375
-0.23503857421875,0.056933125,0.7812586572265625
-0.33910443359375,0.03928662109375,0.790352021484375
-0.44462916015625,0.099088662109375,0.6750874853515625
-0.35806970703125,-0.049926259765625,0.5438481201171875
-0.17133470703125,0.0887948681640625,0.743164833984375
-0.384086171875,-0.010711806640625,0.8731753662109375
-0.30263275390625,-0.067572763671875,0.9822957373046874
-0.28998923828125,-0.10703230712890625,1.137374462890625
-0.4536255078125,-0.11830646240234374,1.1017383056640626
-0.41593810546875,0.0289928271484375,0.9847534033203125
-0.29096181640625,0.1142842626953125,0.9808211376953125
-0.42615017578125003,0.12188206298828125,0.897506259765625
-0.28026345703125,0.1054610107421875,0.9557529443359375
-0.39089421875,0.0780108935546875,1.0560257177734376
-0.33229638671875,0.128499501953125,0.935845849609375
-0.21753216796875,0.0780108935546875,0.8048522509765625
-0.288773515625,0.0731090869140625,0.8068183837890625
-0.27685943359375,0.11305881103515625,1.09067880859375
-0.38335673828125,-0.01193725830078125,1.269105361328125
-0.41447923828125,-0.01487834228515625,1.35217447265625
-0.37144265625,0.07874616455078125,1.1331964306640625
-0.29631099609375,-0.03301502685546875,0.98254150390625
-0.3033621875,-0.04306373046875,0.9127437890625
-0.3427516015625,-0.04428918212890625,0.8726838330078125
-0.2892598046875,-0.06340622802734375,0.8893959619140624
-0.2999581640625,0.0103659619140625,0.969270107421875
-0.3242726171875,-0.00581,1.0604495166015624
-0.29631099609375,0.12874459228515625,1.1115689697265625
-0.28974609375,-0.02909358154296875,1.014491162109375
-0.345183046875,0.0142874072265625,1.0425085546875
-0.37849384765625,0.02090484619140625,1.101984072265625
-0.31041337890625,0.0201695751953125,1.0063808642578125
-0.35344996093750003,-0.047965537109375,0.9149556884765625
-0.29679728515625,-0.0033590966796874996,0.978117705078125
-0.32086859375,0.07065818359375,1.05135615234375
-0.34542619140624997,-0.0043394580078125,1.056763017578125
-0.32840607421875,0.09394176513671874,0.979100771484375
-0.32257060546875,0.06600146728515625,0.8692431005859375
-0.28950294921874997,-0.00703545166015625,0.8572005371093749
-0.304334765625,0.021640117187500002,0.9852449365234375
-0.34493990234375,0.01698340087890625,0.9891772021484375
-0.36876806640625,0.00619942626953125,0.9815584374999999
-0.339347578125,0.0407571630859375,0.9818042041015624
-0.37703498046875,-0.034240478515625,0.985982236328125
-0.31722142578125,-0.0170841552734375,1.0584833837890626
-0.3485870703125,0.04198261474609375,1.1415524951171876
-0.43441708984375,-0.0646316796875,1.089204208984375
-0.31989601562500003,0.0133070458984375,1.04939001953125
-0.29509527343749997,-0.016593974609375,0.9513291455078126
-0.39454138671875,-0.025662316894531252,0.925032119140625
-0.35199109375,0.0358553564453125,0.9901602685546875
-0.3019033203125,-0.01683906494140625,0.9336339501953125
-0.36220316406249997,0.0495804150390625,0.8500733056640625
-0.310170234375,0.00865032958984375,0.7952673535156249
-0.27734572265625,-0.024436865234375,0.7193254736328125
-0.27831830078124997,0.077520712890625,0.897506259765625
-0.3417790234375,0.08364797119140625,1.089204208984375
-0.2960678515625,0.057913486328125,1.12017080078125
-0.34737134765625,0.06404074462890624,1.1007552392578126
-0.356853984375,0.024581201171875,1.0678225146484375
-0.30603677734375,-0.03497574951171875,1.075441279296875
-0.28950294921874997,-0.05458297607421875,1.094119541015625
-0.38773333984375,-0.048945898437499996,1.0899415087890625
-0.29387955078125,-0.0063001806640625,1.0034316650390624
-0.34737134765625,-0.06536695068359374,0.9218371533203125
-0.41496552734375003,0.044188427734375,0.9316678173828125
-0.27588685546875,0.0780108935546875,0.9080742236328125
-0.252788125,0.05521749267578125,0.83311541015625
-0.33278267578125,0.01551285888671875,0.84097994140625
-0.2882872265625,-0.015368522949218751,0.8525309716796875
-0.28196546875,-0.0001729223632812504,0.7920723876953125
-0.42517759765625,-0.0063001806640625,0.812962548828125
-0.30263275390625,-0.00752563232421875,0.9056165576171875
-0.29096181640625,0.024581201171875,0.9552614111328125
-0.312115390625,-0.03129939453125,1.0260421923828125
-0.38967849609375,0.06404074462890624,1.0806023779296874
-0.32402947265625,0.0436982470703125,0.964354775390625
-0.3164919921875,0.0294830078125,0.9405154150390624
-0.3777644140625,0.05570767333984375,1.0240760595703124
-0.2279873828125,0.02286556884765625,1.002694365234375
-0.35563826171875,-0.01953505859375,0.9370746826171875
-0.3835998828125,0.0005623486328125002,0.9768888720703125
-0.327676640625,0.04443351806640625,0.9709904736328125
-0.34542619140624997,0.01453249755859375,0.934862783203125
-0.39089421875,0.02678701416015625,0.9729566064453125
-0.2921775390625,0.046149150390625,0.962388642578125
-0.35855599609375,-0.047965537109375,0.8510563720703125
-0.33618669921875,0.05178622802734375,0.912252255859375
-0.32791978515625,0.03144373046875,0.9360916162109375
-0.3378887109375,-0.0063001806640625,0.8638362353515625
-0.24306234375,0.0740894482421875,0.9449392138671875
-0.35977171875,-0.08423890625,0.92748978515625
-0.323786328125,0.0623251123046875,1.0609410498046874
-0.29971501953125,0.06281529296875,0.9877026025390625
-0.335457265625,0.0466393310546875,0.901438525390625
-0.3203823046875,-0.02076051025390625,0.92748978515625
-0.41618125,-0.01781942626953125,1.0019570654296874
-0.41618125,0.07261890625,1.073475146484375
-0.228473671875,-0.00311400634765625,0.956490244140625
-0.428824765625,-0.0337502978515625,0.930438984375
-0.31673513671875,0.02090484619140625,0.9464138134765625
-0.2834243359375,-0.02713285888671875,0.8254966455078125
-0.36876806640625,0.014777587890624999,0.875387265625
-0.24962724609375,0.03536517578125,0.8451579736328125
-0.312115390625,-0.1298257080078125,0.763809228515625
-0.294608984375,0.0329142724609375,0.8559717041015625
-0.28123603515625,0.01747358154296875,0.8677685009765626
-0.33035123046875,-0.01487834228515625,0.9186421875
-0.37144265625,0.0829127001953125,1.0388220556640624
-0.32743349609375,0.04002189208984375,1.056271484375
-0.42955419921875,-0.057769150390625,0.9604225097656249
-0.18932740234375,0.0858537841796875,0.9429730810546875
-0.34834392578125,-0.04772044677734375,0.92355751953125
-0.34785763671875003,0.00987578125,1.024813359375
-0.28123603515625,0.052031318359375,1.0191607275390624
-0.3709563671875,-0.05409279541015625,0.9449392138671875
-0.23455228515625,0.0191892138671875,0.9360916162109375
-0.28974609375,-0.05556333740234375,0.9414984814453125
-0.37265837890625,0.0270321044921875,0.961897109375
-0.29874244140625,0.013552136230468751,0.912252255859375
-0.3155194140625,0.12825441162109374,0.9331424169921875
-0.32500205078125,0.046149150390625,0.9852449365234375
-0.2805066015625,-0.05360261474609375,1.0452119873046875
-0.30141703125,0.093206494140625,1.0968229736328126
-0.44025255859375,0.0878145068359375,1.0835515771484374
-0.41204779296875,-0.02419177490234375,1.0093300634765625
-0.24670951171875,0.06796218994140625,0.883251796875
-0.3359435546875,0.026296833496093748,0.8141913818359375
-0.2566784375,0.03413972412109375,1.0201437939453124
-0.39843169921875,-0.02958376220703125,1.045949287109375
-0.31916658203125,0.05668803466796875,1.02088109375
-0.302389609375,-0.01928996826171875,0.8672769677734375
-0.35199109375,-0.0229663232421875,0.864082001953125
-0.222638203125,0.036345537109375,0.9616513427734374
-0.3738741015625,-0.049926259765625,1.0174403613281249
-0.3690112109375,0.03144373046875,1.0516019189453125
-0.2027003515625,-0.0097314453125,0.9916348681640625
-0.33667298828125003,-0.0033590966796874996,0.9734481396484375
-0.2775888671875,0.026296833496093748,1.0486527197265625
-0.32402947265625,0.030708459472656248,1.0294829248046875
-0.34591248046875,0.0005623486328125002,0.968287041015625
-0.20586123046875,0.008895419921875,0.8812856640625
-0.23747001953125,-0.0229663232421875,0.8834975634765625
-0.280992890625,0.01208159423828125,1.022355693359375
-0.21266927734375,0.0319339111328125,1.0103131298828125
-0.29582470703125,-0.00801581298828125,0.9405154150390624
-0.21947732421875,0.06624655761718751,0.9820499707031249
-0.23795630859375,-0.0327699365234375,0.98647376953125
-0.269321953125,0.02580665283203125,0.9921264013671875
-0.257651015625,0.073599267578125,1.0130165625
-0.23747001953125,-0.05115171142578125,0.9994993994140625
-0.26421591796875,0.03904153076171875,1.024321826171875
-0.3476144921875,-0.0018885546875000003,1.0700344140625
-0.2464663671875,0.0525214990234375,1.0501273193359375
-0.240144609375,0.12139188232421876,1.09264494140625
-0.32889236328125,0.057668395996093746,1.0621698828125
-0.31965287109375,0.0309535498046875,1.028254091796875
-0.286828359375,0.04124734375,1.0029401318359374
-0.29047552734375,0.0780108935546875,0.9238032861328125
-0.2386857421875,0.00472888427734375,0.8530225048828125
-0.2411171875,0.0368357177734375,0.852285205078125
-0.32937865234375,-0.02027032958984375,0.802148818359375
-0.3631757421875,-0.04183827880859375,0.8984893261718749
-0.34883021484375,-0.06487677001953125,0.985982236328125
-0.32402947265625,-0.0474753564453125,0.9223286865234375
-0.27394169921875,0.01404231689453125,0.9380577490234375
-0.35369310546875,0.014777587890624999,0.8891501953125
-0.3349709765625,-0.0612004150390625,0.8348357763671875
-0.2931501171875,0.038306259765625,0.9105318896484375
-0.40062,0.00791505859375,0.92945591796875
-0.271267109375,-0.03987755615234375,0.9493630126953125
-0.26081189453125,0.00816014892578125,0.9916348681640625
-0.3884627734375,0.0348749951171875,0.988931435546875
-0.273212265625,-0.00850599365234375,0.8852179296875
-0.263486484375,0.015022678222656249,0.8692431005859375
-0.37338781249999997,0.0054641552734375,0.97369390625
-0.237226875,0.03659062744140625,1.0589749169921876
-0.30506419921875,-0.0141430712890625,0.9793465380859375
-0.33035123046875,-0.00360418701171875,0.97369390625
-0.2552195703125,0.07776580322265625,1.0031858984375
-0.30919765625,0.06502110595703126,0.9931094677734374
-0.3096839453125,0.02360083984375,1.0162115283203126
-0.24038775390625,0.00987578125,1.05332228515625
-0.205131796875,0.0137972265625,1.0284998583984375
-0.32840607421875,-0.0768861962890625,0.994829833984375
-0.2571647265625,-0.051886982421875,0.963371708984375
-0.216802734375,0.010856142578125,0.9395323486328125
-0.31673513671875,-0.0553182470703125,0.9149556884765625
-0.24816837890625,0.038306259765625,0.96877857421875
-0.15188314453125001,0.021640117187500002,0.9739396728515625
-0.20780638671875,-0.01953505859375,0.94911724609375
-0.20099833984375,0.016738310546875,0.989914501953125
-0.26227076171875,0.0280124658203125,0.981066904296875
-0.28998923828125,0.03561026611328125,1.030220224609375
-0.32743349609375,0.0294830078125,1.08478041015625
-0.31381740234375,-0.0621807763671875,1.0176861279296876
-0.2532744140625,0.00472888427734375,1.009575830078125
-0.2454937890625,0.02286556884765625,0.9719735400390626
-0.2036729296875,-0.07051384765625,0.97271083984375
-0.24622322265625,-0.03056412353515625,0.98647376953125
-0.29922873046875,-0.0621807763671875,0.9196252539062499
-0.1793584765625,-0.03252484619140625,0.91077765625
-0.22628537109375,-0.03595611083984375,0.866048134765625
-0.25692158203125,-0.03448556884765625,0.7940385205078125
-0.174009296875,0.02923791748046875,0.9075826904296875
-0.2931501171875,0.03364954345703125,1.06905134765625
-0.3057936328125,0.01575794921875,1.082322744140625
-0.21899103515625,0.00865032958984375,1.0648733154296874
-0.347128203125,0.030463369140625002,1.136391396484375
-0.35977171875,0.053992041015625,1.11034013671875
-0.22920310546875,0.04688442138671875,0.988931435546875
-0.288773515625,0.01306195556640625,0.9837703369140625
-0.31746457031249997,-0.0072805419921875,1.0044147314453125
-0.19127255859375,-0.07835673828125,0.9547698779296875
-0.226528515625,-0.0011532836914062497,0.90782845703125
-0.16841697265625,-0.0170841552734375,0.851302138671875
-0.23503857421875,-0.10899302978515625,0.859166669921875
-0.29242068359375,0.02335574951171875,0.9783634716796875
-0.1949197265625,-0.03546593017578125,0.957473310546875
-0.2357680078125,-0.0249270458984375,0.9994993994140625
-0.226528515625,0.0103659619140625,1.0766701123046876
-0.34421046875,-0.06144550537109375,1.0879753759765625
-0.28901666015625,0.04590406005859375,1.158510390625
-0.27685943359375,0.0436982470703125,1.072000546875
-0.3126016796875,-0.093062158203125,0.992863701171875
-0.27345541015625,-0.012427438964843749,0.9198710205078124
-0.26324333984375,0.09443194580078125,0.7783094580078125
-0.1735230078125,-0.010711806640625,0.70924904296875
-0.1793584765625,0.01992448486328125,0.7279273046875
-0.20197091796875,-0.05311243408203125,0.798216552734375
-0.24622322265625,-0.1121792041015625,0.839505341796875
-0.26956509765625,-0.03105430419921875,0.9351085498046875
-0.22434021484375,-0.04085791748046875,0.989914501953125
-0.23503857421875,-0.03129939453125,0.9754142724609375
-0.29509527343749997,-0.0621807763671875,1.0049062646484375
-0.27880458984375,0.06257020263671875,1.1329506640625
-0.30603677734375,0.05962911865234375,1.1211538671875
-0.294608984375,-0.01046671630859375,1.0299744580078125
-0.15674603515625,0.0603643896484375,1.0840431103515624
-0.221665625,-0.03252484619140625,1.061678349609375
-0.23455228515625,-0.03301502685546875,0.975168505859375
-0.2474389453125,0.06011929931640625,0.92650671875
-0.19953947265625,0.00766996826171875,0.909303056640625
-0.11468203125,0.04712951171875,0.8943112939453125
-0.1443456640625,0.02482629150390625,0.9363373828125
-0.232363984375,0.00399361328125,1.033169423828125
-0.17862904296875,0.021885207519531248,1.0781447119140626
-0.21655958984375,-0.07222947998046875,0.9931094677734374
-0.25205869140625,0.0012976196289062499,1.037101689453125
-0.23747001953125,0.026051743164062502,0.9709904736328125
-0.14458880859375,-0.1239435400390625,0.938795048828125
-0.3583128515625,-0.0371815625,0.9609140429687499
-0.14507509765624998,-0.11585555908203125,0.8970147265625
-0.0743200390625,-0.12418863037109375,0.9380577490234375
-0.2644590625,-0.0332601171875,1.0221099267578124
-0.2357680078125,-0.08595453857421875,0.938795048828125
-0.221665625,0.00766996826171875,0.8672769677734375
-0.185680234375,0.0044837939453125,0.831640810546875
-0.2022140625,-0.0631611376953125,0.7733941259765625
-0.255705859375,0.079481435546875,0.9442019140625
-0.25935302734375,0.03855135009765625,0.989914501953125
-0.257651015625,0.00766996826171875,0.9832788037109375
-0.3573402734375,-0.0474753564453125,0.994829833984375
-0.29363640625,0.023845930175781252,1.021372626953125
-0.2834243359375,-0.0009081933593750001,0.9444476806640625
-0.33181009765625,0.03757098876953125,0.9444476806640625
-0.22774423828125,0.07972652587890625,0.9424815478515625
-0.280992890625,-0.03154448486328125,0.8854636962890625
-0.207076953125,0.10178465576171875,0.9950756005859375
-0.1404553515625,0.05497240234375,0.997779033203125
-0.17911533203125,0.07457962890625,1.135408330078125
-0.27540056640625,0.12825441162109374,1.221426640625
-0.40937320312500003,0.10129447509765625,1.1317218310546875
-0.28658521484375,0.0897752294921875,1.1007552392578126
-0.3456693359375,0.04124734375,1.073475146484375
-0.36220316406249997,0.05105095703125,1.0152284619140626
-0.2503566796875,0.016738310546875,1.0063808642578125
-0.21510072265625,-0.0700236669921875,0.9065996240234375
-0.2561921484375,-0.06732767333984375,0.8908705615234375
-0.22434021484375,-0.17320669677734374,0.859166669921875
-0.27345541015625,-0.1602169091796875,0.8102591162109375
-0.1910294140625,-0.040122646484374996,0.7807671240234375
-0.2824517578125,-0.040122646484374996,0.8427003076171875
-0.28634207031250003,-0.0621807763671875,0.9046334912109375
-0.3106565234375,-0.05262225341796875,0.962388642578125
-0.38919220703125,-0.01438816162109375,1.0122792626953125
-0.315033125,0.0476196923828125,1.0820769775390624
-0.31624884765625,0.03610044677734375,1.0661021484375
-0.30992708984375,0.07065818359375,1.1381117626953126
-0.38821962890625,0.081442158203125,1.128526865234375
-0.46845732421874997,-0.1038461328125,1.0417712548828124
-0.30020130859375,-0.02223105224609375,0.9424815478515625
-0.30652306640625,-0.07443529296875,0.777080625
-0.30919765625,-0.07271966064453125,0.777572158203125
-0.321841171875,-0.1023755908203125,0.824759345703125
-0.33959072265625,-0.042083369140625,0.838522275390625
-0.2717533984375,0.0740894482421875,0.843929140625
-0.26859251953125,0.10202974609375,0.9950756005859375
-0.1803310546875,0.093206494140625,1.1447474609375
-0.27807515625,0.14933218017578126,1.2639442626953126
-0.28974609375,0.18315464599609374,1.3357081103515624
-0.333512109375,0.09418685546875,1.226833505859375
-0.41058892578125,0.1079119140625,1.1081282373046875
-0.39089421875,0.12678386962890625,1.154086591796875
-0.37460353515625,-0.01585870361328125,1.0818312109375
-0.4118046484375,0.0574233056640625,1.06315294921875
-0.26129818359375,0.00423870361328125,0.954524111328125
-0.115654609375,-0.0641414990234375,0.9090572900390625
-0.1939471484375,-0.057278969726562504,1.0643817822265624
-0.3009307421875,-0.10752248779296875,0.98057537109375
-0.143859375,-0.051886982421875,0.9105318896484375
-0.2610550390625,-0.03693647216796875,1.03366095703125
-0.2775888671875,-0.18742193603515625,1.1454847607421874
-0.19248828125,-0.091101435546875,1.18308705078125
-0.46164927734375,-0.05360261474609375,1.07494974609375
-0.31965287109375,-0.14134495361328125,0.8146829150390625
-0.19321771484375,-0.159726728515625,0.725961171875
-0.2999581640625,-0.1710008837890625,0.7222746728515625
-0.17084841796875,-0.2190385888671875,0.8879213623046875
-0.206104375,-0.1268846240234375,1.029237158203125
-0.26640421875,-0.081297822265625,1.07494974609375
-0.33813185546875,-0.0504164404296875,1.0191607275390624
-0.31430369140625003,-0.00850599365234375,0.9739396728515625
-0.20926525390625,0.04198261474609375,0.9532952783203125
-0.31430369140625003,0.12139188232421876,0.9940925341796875
-0.27540056640625,-0.046740085449218746,0.98647376953125
-0.26470220703125,-0.0646316796875,0.8687515673828125
-0.37338781249999997,-0.08840544189453126,0.7109694091796875
-0.18495080078125,-0.1259042626953125,0.68270625
-0.18446451171875,-0.01978014892578125,0.73874103515625
-0.34421046875,0.1157548046875,0.8785822314453124
-0.3408064453125,0.10570610107421875,1.014491162109375
-0.37606240234375,0.23535888671875,1.1577730908203125
-0.46481015625,0.24491740966796874,1.172764853515625
-0.39308251953125,0.01183650390625,1.091170341796875
-0.31916658203125,0.19393862060546874,1.001219765625
-0.2347954296875,0.1652630517578125,0.8874298291015625
-0.2756437109375,0.1466361865234375,0.87931953125
-0.338375,-0.016593974609375,0.9768888720703125
-0.25983931640625,0.0250713818359375,1.0953483740234375
-0.3962433984375,0.024581201171875,1.1710444873046875
-0.2970404296875,-0.10752248779296875,1.1010010058593749
-0.37557611328125,-0.01953505859375,0.9896687353515625
-0.27491427734375,0.00472888427734375,0.8948028271484375
-0.330594375,-0.02468195556640625,0.8849721630859375
-0.40937320312500003,-0.010221625976562499,0.9950756005859375
-0.26178447265625,-0.02370159423828125,1.053813818359375
-0.30530734375,-0.12026718505859375,1.13000146484375
-0.38530189453125,-0.00507472900390625,1.1056705712890624
-0.222638203125,-0.1562954638671875,0.850319072265625
-0.0957167578125,-0.17320669677734374,0.8220559130859375
-0.44511544921875,-0.200901904296875,0.827708544921875
-0.20464550781250002,-0.21046042724609376,0.8422087744140625
-0.19516287109375,-0.23349891845703125,0.7672499609375
-0.3670660546875,-0.2337440087890625,0.70924904296875
-0.24719580078125,-0.01585870361328125,0.694994580078125
-0.25497642578125,-0.04772044677734375,0.7232577392578124
-0.339347578125,0.07923634521484375,0.6957318798828125
-0.197351171875,0.206928408203125,0.8156659814453124
-0.24816837890625,0.14516564453125,0.970253173828125
-0.2561921484375,0.085363603515625,1.069542880859375
-0.23601115234375,0.2583973779296875,1.14769666015625
-0.28998923828125,0.11649007568359375,1.1567900244140625
-0.38821962890625,0.169674677734375,1.088221142578125
-0.34542619140624997,0.13266603759765624,1.040050888671875
-0.38457246093749997,0.079481435546875,1.00515203125
-0.4828028515625,0.13315621826171875,0.938303515625
-0.33715927734375,0.05962911865234375,0.8082929833984375
-0.21558701171875,-0.063651318359375,0.6770536181640625
-0.2328502734375,0.07041309326171875,0.6008659716796875
-0.1151683203125,0.05717821533203125,0.599637138671875
-0.17230728515625,-0.10703230712890625,0.7065456103515625
-0.33715927734375,-0.05311243408203125,0.9503460791015625
-0.331566953125,-0.126394443359375,1.1341794970703125
-0.263486484375,-0.06193568603515625,1.1410609619140626
-0.2513292578125,-0.061690595703125004,1.13393373046875
-0.43247193359375,0.103010107421875,1.0747039794921875
-0.392839375,0.089285048828125,1.1100943701171875
-0.4283384765625,0.1270289599609375,1.137374462890625
-0.4511940625,0.06502110595703126,1.11034013671875
-0.29096181640625,-0.067572763671875,0.9174133544921875
-0.20099833984375,-0.06879821533203125,0.761843095703125
-0.27880458984375,-0.15654055419921875,0.66402798828125
-0.1258666796875,-0.12933552734375,0.6451039599609375
-0.31746457031249997,0.01649322021484375,0.636010595703125
-0.41593810546875,-0.02125069091796875,0.68368931640625
-0.0782103515625,-0.12541408203125,0.850319072265625
-0.386031328125,0.0191892138671875,1.1604765234375
-0.58565298828125,0.103010107421875,1.110831669921875
-0.299471875,-0.1038461328125,0.9542783447265625
-0.32475890625,0.17506666503906249,1.0457035205078125
-0.3388612890625,0.0446786083984375,1.2069264111328124
-0.28123603515625,0.08168724853515624,1.340869208984375
-0.35977171875,0.15227326416015624,1.420497587890625
-0.3485870703125,0.1397736572265625,1.1907058154296875
-0.3116291015625,0.05962911865234375,0.9621428759765625
-0.24914095703125,0.091245771484375,0.980083837890625
-0.28026345703125,0.15521434814453125,1.08871267578125
-0.31430369140625003,-0.0631611376953125,1.040542421875
-0.42590703125,-0.08546435791015625,1.0545511181640626
-0.2902323828125,-0.0001729223632812504,0.9501003125
-0.27296912109375,-0.081297822265625,0.810013349609375
-0.2192341796875,0.00791505859375,0.9562444775390625
-0.2882872265625,-0.05899460205078125,1.08478041015625
-0.352963671875,-0.03497574951171875,1.19684998046875
-0.42177357421875,0.0486000537109375,1.178663251953125
-0.52340798828125,-0.11683592041015625,1.0889584423828125
-0.368524921875,-0.067572763671875,1.0393135888671874
-0.3699837890625,-0.0945327001953125,0.7635634619140625
-0.2143712890625,-0.1396293212890625,0.6800028173828125
-0.34202216796875,-0.22075422119140625,0.6111881689453125
-0.29290697265625,-0.2082546142578125,0.4730673388671875
-0.20829267578125,0.06624655761718751,0.4750334716796875
-0.1375376171875,0.0005623486328125002,0.52443255859375
-0.1044699609375,0.0010525292968750002,0.653705791015625
-0.2873146484375,0.11992134033203125,0.89799779296875
-0.426879609375,0.10913736572265625,1.2123332763671875
-0.45727267578124997,0.0515411376953125,1.41410765625
-0.53313376953125,0.12188206298828125,1.46031177734375
-0.42201671875,0.06747200927734374,1.2993346533203125
-0.19078626953125,-0.0337502978515625,1.2885209228515624
-0.31527626953125,0.10766682373046875,1.1390948291015626
-0.3563676953125,-0.0386521044921875,1.009084296875
-0.18640966796875,0.0103659619140625,1.023338759765625
-0.411318359375,-0.09134652587890625,0.867522734375
-0.23917203125,-0.020515419921875,0.8269712451171874
-0.16136578125,0.01698340087890625,0.752012431640625
-0.30214646484375,-0.063651318359375,0.7534870312499999
-0.1404553515625,0.00399361328125,0.80165728515625
-0.14556138671875,-0.01781942626953125,1.003677431640625
-0.349073359375,0.09737302978515625,1.3256316796875
-0.58151953125,-0.0018885546875000003,1.492261435546875
-0.413263515625,0.0059543359375,1.4099296240234376
-0.44803318359375,0.07139345458984375,1.2472321337890624
-0.3155194140625,-0.05482806640625,1.136391396484375
-0.36390517578125,0.0731090869140625,1.11623853515625
-0.30700935546875,0.13903838623046874,1.103458671875
-0.32475890625,0.055952763671875,0.867031201171875
-0.2177753125,0.079481435546875,0.7566819970703125
-0.105928828125,-0.07860182861328124,0.67385865234375
-0.06240595703125,-0.0955130615234375,0.693028447265625
-0.07067287109375,7.216796875000007e-05,0.8928366943359375
-0.3417790234375,-0.09624833251953124,1.1427813281249999
-0.4278521875,-0.036201201171875,1.3548779052734374
-0.40864376953125,0.0044837939453125,1.3676577685546876
-0.50760359375,-0.09477779052734375,1.232731904296875
-0.5071173046875,0.00472888427734375,1.1644087890625
-0.48012826171875,-0.06928839599609375,1.0307117578125
-0.401592578125,0.06011929931640625,0.955507177734375
-0.20342978515625,0.0201695751953125,0.920116787109375
-0.18251935546875,-0.0023787353515625003,0.977134638671875
-0.15528716796875,-0.069533486328125,0.8662939013671875
-0.17279357421875,-0.08497417724609375,0.787402822265625
-0.13413359375,0.028257556152343752,0.7660211279296875
-0.39940427734375,-0.05090662109375,0.78592822265625
-0.13291787109375,0.024581201171875,0.897506259765625
-0.2231244921875,-0.04968116943359375,1.0162115283203126
-0.53556521484375,0.0985984814453125,1.17129025390625
-0.42517759765625,0.167713955078125,1.0402966552734374
-0.44535859375,0.01845394287109375,1.11230626953125
-0.4186126953125,0.2231043701171875,1.2113502099609375
-0.362689453125,-0.046004814453125,1.0997721728515626
-0.2488978125,-0.03522083984375,1.0975602734375
-0.24306234375,0.02286556884765625,0.968287041015625
-0.09523046875,0.02776737548828125,0.7168678076171875
-0.09839134765625,-0.03938737548828125,0.7011387451171875
-0.117599765625,-0.00703545166015625,0.7969877197265625
-0.159420625,-0.01879978759765625,0.89406552734375
-0.32208431640625,-0.01879978759765625,0.9862280029296875
-0.3680386328125,0.04982550537109375,0.8225474462890625
-0.28853037109375,0.03144373046875,0.7173593408203125
-0.288773515625,0.0956573974609375,0.7940385205078125
-0.39478453125,0.18045865234375,0.9414984814453125
-0.45630009765625,0.1260485986328125,1.00220283203125
-0.31381740234375,-0.00605509033203125,1.0373474560546876
-0.21899103515625,0.05619785400390625,1.0152284619140626
-0.1521262890625,-0.09477779052734375,1.02972869140625
-0.1229489453125,-0.14109986328125,1.0815854443359374
-0.259596171875,-0.10065995849609374,0.9385492822265625
-0.15358515625,-0.15359947021484374,0.8348357763671875
-0.1842213671875,-0.16536380615234375,0.7552073974609375
-0.1608794921875,-0.05997496337890625,0.755944697265625
-0.25011353515625,-0.110708662109375,0.7340714697265625
-0.21412814453125,-0.00703545166015625,0.749063232421875
-0.2488978125,0.04884514404296875,0.7512751318359375
-0.35126166015625,0.0652661962890625,0.81345408203125
-0.2309051171875,0.222614189453125,0.9188879541015624
-0.26859251953125,0.19246807861328125,1.158018857421875
-0.49082662109375,0.089285048828125,1.3612678369140625
-0.25497642578125,0.13560712158203125,1.37576806640625
-0.24306234375,-0.00777072265625,1.074458212890625
-0.2377131640625,0.0838930615234375,0.8616243359375
-0.16987583984375,0.06649164794921875,0.716622041015625
-0.037362070312499995,-0.0759058349609375,0.7021218115234376
-0.0091573046875,-0.026397587890625,0.7910893212890625
-0.3281629296875,-0.029338671875,0.8694888671875
-0.3096839453125,-0.02517213623046875,0.9414984814453125
-0.2785614453125,-0.0504164404296875,1.0063808642578125
-0.2766162890625,0.0613447509765625,1.106899404296875
-0.37508982421875,0.061834931640625,1.113780869140625
-0.37922328125,0.05472731201171875,1.075441279296875
-0.45678638671875,0.10178465576171875,1.03759322265625
-0.36585033203125,0.10031411376953125,0.92159138671875
-0.1900568359375,0.07825598388671876,0.851793671875
-0.23892888671875,-0.0268877685546875,0.7994453857421875
-0.061676523437500005,-0.013407800292968751,0.7561904638671875
-0.07407689453124999,-0.07320984130859375,0.694994580078125
-0.18251935546875,0.0137972265625,0.7989538525390625
-0.183735078125,0.0191892138671875,0.8419630078125
-0.30214646484375,0.07482471923828125,0.91372685546875
-0.35393625,0.12335260498046875,1.040542421875
-0.43004048828125,0.012816865234374999,1.0511103857421875
-0.39454138671875,0.2083989501953125,1.1422897949218749
-0.29776986328125,-0.0376717431640625,1.1233657666015624
-0.41812640624999997,0.01306195556640625,1.1277895654296874
-0.23212083984375,-0.08619962890625,1.092153408203125
-0.14556138671875,-0.0553182470703125,1.1093570703125
-0.3933256640625,0.157910341796875,1.0071181640625
-0.31041337890625,0.0280124658203125,0.738249501953125
-0.07602205078125,0.063795654296875,0.6564092236328125
-0.14167107421875,0.15913579345703124,0.6927826806640625
-0.13000013671875,0.04051207275390625,0.7797840576171875
-0.09012443359375,0.05619785400390625,0.9940925341796875
-0.25449013671875,-0.01978014892578125,1.0584833837890626
-0.18786853515625002,-0.100905048828125,1.0324321240234375
-0.1550440234375,0.03904153076171875,1.0373474560546876
-0.34639876953125,-0.0396324658203125,1.1086197705078125
-0.39575710937499997,-0.018554697265625,1.205697578125
-0.3126016796875,-0.03056412353515625,1.098051806640625
-0.168173828125,-0.04919098876953125,1.0068723974609375
-0.1151683203125,-0.09183670654296874,1.0196522607421874
-0.12829812499999999,-0.04968116943359375,1.0609410498046874
-0.0276362890625,-0.04723026611328125,1.0452119873046875
-0.009643593750000002,0.0003172583007812497,1.1958669140625
-0.16355408203125,0.10570610107421875,1.2339607373046875
-0.23260712890625002,0.0476196923828125,1.1690783544921874
-0.21412814453125,0.0878145068359375,1.08379734375
-0.23990146484375,0.07580508056640625,1.060695283203125
-0.2007551953125,-0.0268877685546875,1.1081282373046875
-0.28658521484375,-0.00997653564453125,1.110831669921875
-0.22434021484375,0.11452935302734375,1.0466865869140625
-0.32257060546875,-0.059729873046875,0.86457353515625
-0.23357970703125,0.01747358154296875,0.8510563720703125
-0.1579617578125,-0.08154291259765625,0.8834975634765625
-0.2202067578125,-0.11364974609375,0.9891772021484375
-0.16890326171875,-0.05115171142578125,1.083305810546875
-0.22531279296875,-0.02321141357421875,1.0938737744140625
-0.2017277734375,0.0515411376953125,0.921099853515625
-0.07504947265625,-0.0945327001953125,0.7537327978515624
-0.20804953125,0.0731090869140625,0.8766160986328125
-0.107873984375,-0.012427438964843749,0.9105318896484375
-0.2177753125,-0.139139140625,1.1017383056640626
-0.3884627734375,0.15864561279296874,1.33546234375
-0.54334583984375,0.06943273193359376,1.1892312158203124
-0.4332013671875,0.1064413720703125,1.0181776611328126
-0.1920019921875,0.222614189453125,0.8717007666015625
-0.133161015625,-0.01291761962890625,0.803131884765625
-0.07602205078125,0.06796218994140625,0.86260740234375
-0.15625974609374998,-0.01487834228515625,0.923065986328125
-0.16136578125,-0.068553125,1.0982975732421876
-0.3009307421875,-0.03840701416015625,1.10444173828125
-0.23260712890625002,-0.08546435791015625,1.0629071826171874
-0.20342978515625,0.0799716162109375,1.00613509765625
-0.34445361328125,0.05717821533203125,0.906353857421875
-0.354908828125,0.06673673828125,0.925032119140625
-0.29363640625,0.14443037353515625,0.8780906982421874
-0.389921640625,0.0760501708984375,0.9046334912109375
-0.19370400390625,-0.034240478515625,0.992863701171875
-0.19808060546875,-0.04477936279296875,0.9835245703125
-0.1365650390625,-0.04281864013671875,0.98942296875
-0.16355408203125,-0.030073942871093752,0.9287186181640625
-0.17717017578125,-0.008996174316406251,0.9513291455078126
-0.20099833984375,0.06355056396484375,1.03366095703125
-0.3033621875,0.04737460205078125,1.11427240234375
-0.27151025390625,0.030708459472656248,1.1715360205078125
-0.2736985546875,0.00227798095703125,1.079373544921875
-0.28391062499999997,-0.04575972412109375,0.99827056640625
-0.2902323828125,0.019434304199218752,0.8952943603515625
-0.18397822265625,-0.030319033203124998,0.765775361328125
-0.25497642578125,-0.0004180126953125,0.87047193359375
-0.213885,0.0319339111328125,1.0535680517578125
-0.18543708984375,-0.00948635498046875,1.0142453955078126
-0.23114826171875,-0.0494360791015625,1.0149826953125
-0.12343523437500001,0.008895419921875,1.0117877294921875
-0.10106593750000001,-0.013162709960937501,0.9481341796875
-0.12562353515625,0.0407571630859375,1.03759322265625
-0.22579908203125,0.11599989501953126,1.0936280078125
-0.23260712890625002,0.04982550537109375,1.0621698828125
-0.2386857421875,-0.01046671630859375,1.0584833837890626
-0.24233291015625,0.07580508056640625,1.0211268603515624
-0.2989855859375,0.0044837939453125,0.8977520263671875
-0.2800203125,-0.0347306591796875,0.879811064453125
-0.20245720703125,0.0020328906249999995,0.835573076171875
-0.28901666015625,-0.0768861962890625,0.719571240234375
-0.1866528125,-0.0945327001953125,0.6908165478515624
-0.133161015625,-0.1043363134765625,0.7615973291015625
-0.24427806640625,-0.04085791748046875,0.8812856640625
-0.129270703125,-0.055073156738281254,0.9410069482421874
-0.1667149609375,-0.01781942626953125,1.0122792626953125
-0.2192341796875,0.0417375244140625,1.119679267578125
-0.15431458984375,0.0003172583007812497,0.9911433349609375
-0.22823052734375,0.07041309326171875,0.888658662109375
-0.29874244140625,0.08634396484375,0.9414984814453125
-0.20415921875,-0.018554697265625,1.085271943359375
-0.3203823046875,0.067717099609375,1.230765771484375
-0.33861814453125,-0.01978014892578125,1.1762055859375
-0.22093619140625,0.0294830078125,1.0525849853515625
-0.2814791796875,0.0299731884765625,0.927981318359375
-0.21412814453125,0.05864875732421875,0.94715111328125
-0.20002576171875,0.01159141357421875,0.9547698779296875
-0.24573693359375,-0.0288484912109375,0.965337841796875
-0.183735078125,-0.050661530761718754,0.974185439453125
-0.1939471484375,-0.07271966064453125,0.9685328076171875
-0.21364185546875,0.0231106591796875,0.9936010009765625
-0.2766162890625,0.030463369140625002,0.9759058056640625
-0.26859251953125,-0.0092412646484375,0.993846767578125
-0.30214646484375,0.0686974609375,1.0894499755859375
-0.29825615234375,-0.008996174316406251,1.0936280078125
-0.21996361328125,-0.010221625976562499,1.08478041015625
-0.24695265625,-0.02468195556640625,1.056763017578125
-0.28950294921874997,-0.02149578125,1.010558896484375
-0.23528171875,0.06281529296875,1.01989802734375
-0.376305546875,0.00178780029296875,0.9803296044921875
-0.168173828125,0.0074248779296875,0.958456376953125
-0.115654609375,0.0012976196289062499,0.9557529443359375
-0.27491427734375,0.00227798095703125,1.002694365234375
-0.08988128906250001,-0.046740085449218746,1.019406494140625
-0.27151025390625,-0.0817880029296875,0.9990078662109375
-0.26567478515625,0.05913893798828125,1.064136015625
-0.35977171875,0.0451687890625,1.0250591259765625
-0.28950294921874997,-0.0063001806640625,1.009084296875
-0.26032560546875,0.0466393310546875,1.14769666015625
-0.26616107421875,-0.0009081933593750001,1.197833046875
-0.21899103515625,-0.0038492773437499997,1.1277895654296874
-0.28901666015625,0.05031568603515625,1.0393135888671874
-0.31965287109375,0.0133070458984375,0.9242948193359375
-0.22190876953125,-0.036201201171875,0.784453623046875
-0.07796720703125,-0.0631611376953125,0.8365561425781249
-0.218747890625,-0.02664267822265625,0.9557529443359375
-0.2099946875,-0.0759058349609375,1.0570087841796876
-0.28853037109375,0.02580665283203125,1.080356611328125
-0.29387955078125,0.00717978759765625,1.022355693359375
-0.23066197265625,0.033404453125,0.9827872705078124
-0.28901666015625,-0.00213364501953125,0.933879716796875
-0.29169125,-0.0680629443359375,0.9815584374999999
-0.27005138671875,-0.0298288525390625,1.0589749169921876
-0.32354318359375,-0.04968116943359375,0.9626344091796875
-0.19224513671875,-0.0151234326171875,0.9759058056640625
-0.19321771484375,0.01600303955078125,1.010558896484375
-0.310170234375,-0.059484782714843754,1.0727378466796875
-0.1744955859375,-0.05115171142578125,1.0668394482421875
-0.17571130859375,-0.05311243408203125,0.8928366943359375
-0.1385101953125,-0.013407800292968751,0.9009469921875
-0.15431458984375,-0.01487834228515625,0.9972875
-0.3660934765625,-0.057769150390625,0.9862280029296875
-0.26372962890625,0.0103659619140625,1.0363643896484376
-0.2678630859375,-0.0190448779296875,1.00613509765625
-0.29509527343749997,-0.0337502978515625,0.99630443359375
-0.26421591796875,-0.04183827880859375,0.99040603515625
-0.23601115234375,0.03266918212890625,0.9913891015625
-0.2065906640625,-0.0018885546875000003,0.8572005371093749
-0.1910294140625,-0.01732924560546875,0.92748978515625
-0.22823052734375,0.04835496337890625,0.9872110693359375
-0.25303126953125,-0.14575657958984375,0.9402696484374999
-0.2255559375,-0.02272123291015625,1.0019570654296874
-0.21072412109375,-0.09012107421875,0.995812900390625
-0.26810623046875,-0.09477779052734375,0.922082919921875
-0.22336763671875,0.0530116796875,0.9365831494140625
-0.20683380859375,-0.038161923828125,0.87931953125
-0.2989855859375,0.02531647216796875,0.935845849609375
-0.15966376953125,0.06502110595703126,1.009575830078125
-0.34591248046875,-0.018554697265625,0.918150654296875
-0.16720125,-0.00581,0.993846767578125
-0.2503566796875,0.03217900146484375,1.062661416015625
-0.27394169921875,-0.0651218603515625,0.9837703369140625
-0.14069849609375001,0.07237381591796875,0.922082919921875
-0.27734572265625,-0.0680629443359375,0.8422087744140625
-0.2099946875,-0.0006631030273437505,0.870963466796875
-0.23406599609375,-0.00581,0.87931953125
-0.24379177734375002,-0.03914228515625,0.897506259765625
-0.10228166015625,-0.0376717431640625,0.9994993994140625
-0.35661083984374997,0.0231106591796875,1.0663479150390625
-0.33326896484375,-0.11389483642578124,1.0142453955078126
-0.31965287109375,-0.04379900146484375,0.9567360107421875
-0.33083751953125,0.06943273193359376,0.870963466796875
-0.19248828125,-0.0298288525390625,0.81345408203125
-0.19516287109375,0.04590406005859375,0.958456376953125
-0.30871136718750003,0.0740894482421875,1.0142453955078126
-0.25740787109375,-0.0001729223632812504,1.0417712548828124
-0.2250696484375,-0.055808427734375,0.9886856689453125
-0.26251390625,-0.045024453125,0.9341254833984375
-0.23649744140625,0.00276816162109375,0.9559987109375
-0.2396583203125,0.046149150390625,0.9179048876953125
-0.26664736328125,-0.0327699365234375,0.8687515673828125
-0.3038484765625,0.010856142578125,0.9065996240234375
-0.28269490234375,-0.010221625976562499,0.91569298828125
-0.26470220703125,-0.02174087158203125,0.8970147265625
-0.20683380859375,0.049090234375,0.925032119140625
-0.26129818359375,-0.09967959716796874,0.8510563720703125
-0.19467658203125,-0.03742665283203125,0.891607861328125
-0.22531279296875,-0.042328459472656246,0.92945591796875
-0.3203823046875,-0.013652890625,0.93338818359375
-0.263486484375,-0.022476142578125,0.927981318359375
-0.27394169921875,-0.022476142578125,0.9127437890625
-0.2299325390625,-0.00703545166015625,0.9223286865234375
-0.29047552734375,0.0319339111328125,1.0280083251953125
-0.2659179296875,-0.02174087158203125,1.0334151904296875
-0.28998923828125,0.1054610107421875,0.94223578125
-0.2022140625,0.14197947021484375,0.9198710205078124
-0.23260712890625002,-0.0562986083984375,0.9324051171875
-0.33278267578125,0.059874208984374996,1.0648733154296874
-0.37460353515625,0.040266982421875,1.1209081005859376
-0.30603677734375,0.01012087158203125,1.0756870458984376
-0.28366748046875,0.04002189208984375,1.014491162109375
-0.2153438671875,-0.02125069091796875,0.987948369140625
-0.22725794921875,-0.01046671630859375,0.88423486328125
-0.2532744140625,0.0010525292968750002,0.8397511083984375
-0.23844259765625,0.03512008544921875,0.8918536279296875
-0.16160892578125,0.02286556884765625,1.0457035205078125
-0.40961634765625,-0.00581,1.2516559326171874
-0.32086859375,0.09100068115234375,1.328089345703125
-0.3135742578125,-0.08448399658203125,1.095594140625
-0.29290697265625,0.04541387939453125,1.00810123046875
-0.32281375,-0.04772044677734375,0.83311541015625
-0.17862904296875,-0.0366913818359375,0.8033776513671875
-0.20877896484375,-0.00703545166015625,0.7778179248046875
-0.29728357421875,-0.17639287109375001,0.8589209033203125
-0.21412814453125,-0.08227818359375,0.9287186181640625
-0.29047552734375,-0.07664110595703125,0.933879716796875
-0.24476435546875,-0.00507472900390625,0.98647376953125
-0.189570546875,-0.0371815625,1.0491442529296875
-0.35126166015625,-0.022476142578125,0.9886856689453125
-0.315033125,-0.0121823486328125,0.9331424169921875
-0.28123603515625,0.01453249755859375,0.8972604931640625
-0.30627992187499997,0.023845930175781252,0.970253173828125
-0.24865466796875,0.0152677685546875,1.11623853515625
-0.2955815625,0.05105095703125,1.1880023828125
-0.35393625,0.0397768017578125,1.135408330078125
-0.27029453125,-0.02958376220703125,1.01006736328125
-0.2542469921875,-0.01732924560546875,0.9287186181640625
-0.17571130859375,-0.07958218994140626,0.7851909228515626
-0.05997451171875,-0.048455717773437504,0.77216529296875
-0.18251935546875,-0.0837487255859375,0.824759345703125
-0.23212083984375,-0.03693647216796875,0.9992536328125
-0.16355408203125,0.1505576318359375,1.26566462890625
-0.294608984375,0.12531332763671876,1.4979140673828124
-0.34591248046875,0.14394019287109375,1.51339736328125
-0.46894361328125,0.10815700439453126,1.307444951171875
-0.30457791015625,0.17727247802734375,1.134425263671875
-0.3194097265625,-0.059729873046875,0.840488408203125
-0.14215736328125,-0.0170841552734375,0.798216552734375
-0.13389044921874999,-0.034240478515625,0.7758517919921875
-0.10544253906250001,-0.08742508056640624,0.76430076171875
-0.11152115234375,0.02360083984375,0.9316678173828125
-0.2177753125,-0.0719843896484375,1.0943653076171875
-0.28172232421875,-0.00654527099609375,1.1769428857421875
-0.42469130859375,0.0373258984375,1.0835515771484374
-0.41982841796875,0.00423870361328125,0.876861865234375
-0.25497642578125,-0.13546278564453124,0.7330884033203124
-0.25886673828125,-0.22271494384765625,0.7478343994140625
-0.22944625,-0.220509130859375,0.716622041015625
-0.2027003515625,-0.10556176513671875,0.5949675732421875
-0.1540714453125,-0.06585713134765625,0.56768748046875
-0.10811712890625,-0.17467723876953126,0.6500192919921874
-0.1375376171875,-0.03914228515625,0.90782845703125
-0.2153438671875,0.12384278564453124,1.2157740087890625
-0.3972159765625,0.08511851318359374,1.336936943359375
-0.40280830078125,0.030708459472656248,1.24207103515625
-0.29047552734375,0.08511851318359374,1.04545775390625
-0.37314466796875,-0.08203309326171875,0.906353857421875
-0.315033125,0.0574233056640625,0.8923451611328125
-0.21461443359375,0.0010525292968750002,0.8830060302734375
-0.21315556640625,0.02923791748046875,0.802148818359375
-0.1219763671875,0.04296297607421875,0.86653966796875
-0.20488865234375,0.0505607763671875,1.027271025390625
-0.32840607421875,-0.0308092138671875,1.1213996337890624
-0.376305546875,0.06109966064453125,0.92748978515625
-0.2873146484375,-0.08203309326171875,0.666485654296875
-0.214857578125,-0.1151202880859375,0.6060270703125
-0.06435111328125,-0.02419177490234375,0.828200078125
-0.07213173828125,-0.0945327001953125,1.229782705078125
-0.3690112109375,0.16648850341796875,1.522736494140625
-0.60218681640625,0.295160927734375,1.4121415234375
-0.39478453125,0.1211467919921875,1.007609697265625
-0.2610550390625,0.05619785400390625,0.8505648388671875
-0.31819400390625,-0.015368522949218751,0.7279273046875
-0.097175625,-0.00360418701171875,0.5807131103515625
-0.09741876953125,-0.05017135009765625,0.5438481201171875
-0.028122578125000002,-0.1023755908203125,0.6052897705078125
-0.041738671875,-0.05874951171875,0.91569298828125
-0.228473671875,-0.051886982421875,1.2069264111328124
-0.26178447265625,-0.0945327001953125,1.4807104052734374
-0.28974609375,0.02482629150390625,1.7554774658203125
-0.5615816796875,-0.05899460205078125,1.564025283203125
-0.39502767578125,-0.079337099609375,1.19095158203125
-0.22871681640625,-0.1111988427734375,0.93732044921875
-0.370470078125,-0.095022880859375,0.7729025927734375
-0.27491427734375,-0.01389798095703125,0.6313410302734375
0.018561171875,-0.081297822265625,0.52639869140625
0.047009082031249996,-0.07370002197265625,0.5099323291015625
0.045793359374999995,-0.0435539111328125,0.6436293603515625
0.055519140625,-0.0886505322265625,0.8800568310546875
0.059166308593749994,-0.165608896484375,1.109848603515625
-0.18470765625,0.02090484619140625,1.4866088037109375
-0.33667298828125003,0.07065818359375,1.7156632763671875
-0.45143720703125,0.1133039013671875,1.857962138671875
-0.59100216796875,0.21967310546875,1.5495250537109375
-0.6004848046875,0.081442158203125,1.1607222900390626
-0.483289140625,-0.04085791748046875,0.7714279931640625
-0.28950294921874997,-0.09575815185546875,0.5060000634765625
-0.11200744140625,-0.075415654296875,0.34158220703125
0.00421564453125,-0.1053166748046875,0.306683349609375
0.01150998046875,-0.092081796875,0.3344549755859375
-0.004537558593750001,-0.0974737841796875,0.5114069287109375
0.018318027343749998,-0.10311086181640625,0.8220559130859375
-0.07991236328125,-0.06193568603515625,1.28532595703125
-0.294608984375,0.08168724853515624,1.7417145361328126
-0.3952708203125,0.331434296875,1.9968202685546874
