ax,ay,az
-0.485234296875,0.016738310546875,1.0683140478515625
-0.4604335546875,-0.0376717431640625,1.03661015625
-0.37922328125,-0.01953505859375,0.9513291455078126
-0.36536404296875,0.008405239257812499,1.0044147314453125
-0.33910443359375,0.01306195556640625,1.0599579833984376
-0.30166017578125,0.0044837939453125,1.109848603515625
-0.314060546875,-0.07517056396484376,1.1656376220703124
-0.30141703125,-0.0876701708984375,1.11034013671875
-0.3116291015625,-0.10850284912109374,1.099034873046875
-0.397702265625,-0.06830803466796875,1.12312
-0.41399294921875,-0.08497417724609375,1.16539185546875
-0.44317029296875,-0.065612041015625,1.254359365234375
-0.48839517578125,-0.025662316894531252,1.337920009765625
-0.53264748046875,0.04982550537109375,1.3145721826171874
-0.50444271484375,0.08609887451171874,1.29515662109375
-0.6007279492187501,0.15276344482421875,1.2993346533203125
-0.5927041796875,0.1927131689453125,1.283851357421875
-0.56376998046875,0.2093793115234375,1.279919091796875
-0.5224354101562501,0.2711420751953125,1.2801648583984375
-0.53459263671875,0.148106728515625,1.326123212890625
-0.5664445703125,0.06355056396484375,1.3671662353515626
-0.53653779296875,-0.1082577587890625,1.347259140625
-0.387976484375,-0.2004117236328125,1.3268605126953126
-0.37217208984375,-0.27246828125,1.3956751611328124
-0.45581380859375,-0.20997024658203126,1.4639982763671875
-0.349073359375,-0.0347306591796875,1.502092099609375
-0.4400094140625,0.0535018603515625,1.54288935546875
-0.46262185546875,-0.07026875732421875,1.47604083984375
-0.4186126953125,-0.2893795141601562,1.4168110888671874
-0.37363095703125,-0.30310457275390623,1.2285538720703124
-0.42274615234375,-0.25090033203125,1.0894499755859375
-0.486206875,-0.22369530517578126,0.9360916162109375
-0.44317029296875,-0.22859711181640624,0.8655566015625
-0.41034578125,-0.259723583984375,0.8510563720703125
-0.360744296875,-0.189137568359375,0.769707626953125
-0.38141158203125003,-0.2641352099609375,0.749063232421875
-0.41496552734375003,-0.24575343505859376,0.6672229541015625
-0.4341739453125,-0.2376654541015625,0.60504400390625
-0.45873154296875,-0.24109671875,0.6023405712890625
-0.42274615234375,-0.09967959716796874,0.62470533203125
-0.25400384765625,0.04688442138671875,0.7552073974609375
-0.31722142578125,0.0378160791015625,0.84786140625
-0.37898013671874997,0.0010525292968750002,0.871946533203125
-0.44073884765625,0.00668960693359375,0.8441749072265625
-0.47648109375000003,0.04394333740234375,0.7650380615234375
-0.4122909375,0.024581201171875,0.712689775390625
-0.458002109375,0.00423870361328125,0.76233462890625
-0.40621232421875,0.02752228515625,0.8019030517578125
-0.37995271484375,0.0010525292968750002,0.800182685546875
-0.2600824609375,0.06845237060546874,0.838522275390625
-0.19346085937500002,0.1064413720703125,0.9311762841796875
-0.148722265625,0.097127939453125,0.994829833984375
-0.13024328125,-0.02517213623046875,1.040542421875
-0.08039865234375,-0.05899460205078125,1.0130165625
-0.092312734375,-0.0739451123046875,0.88816712890625
-0.232363984375,-0.11438501708984375,0.766758427734375
-0.218747890625,0.010611052246093749,0.7615973291015625
-0.37800755859375,-0.065612041015625,0.805098017578125
-0.47866939453125,-0.163648173828125,0.7736398925781249
-0.49277177734375,-0.159726728515625,0.7222746728515625
-0.22920310546875,-0.01487834228515625,0.661570322265625
-0.08915185546875,-0.12075736572265625,0.6768078515625
-0.189570546875,-0.14379585693359376,0.7021218115234376
-0.138996484375,-0.0009081933593750001,0.6873758154296875
-0.27345541015625,-0.12075736572265625,0.66402798828125
-0.33278267578125,-0.21952876953125,0.7026133447265624
-0.4419545703125,-0.16585398681640626,0.7301392041015625
-0.481343984375,-0.046249904785156254,0.71514744140625
-0.4823165625,-0.008996174316406251,0.6495277587890624
-0.459947265625,-0.0013983740234375002,0.6335529296875
-0.42225986328125,0.0373258984375,0.565229814453125
-0.43927998046875,-0.06634731201171876,0.4735588720703125
-0.40572603515625,-0.02860340087890625,0.3934389599609375
-0.35417939453125,0.0495804150390625,0.3897524609375
-0.32889236328125,0.08364797119140625,0.3369126416015625
-0.29728357421875,0.05105095703125,0.3020137841796875
-0.2800203125,-0.01585870361328125,0.308649482421875
-0.35952857421875,0.04443351806640625,0.3383872412109375
-0.36730919921875,0.03144373046875,0.3496925048828125
-0.40621232421875,0.05031568603515625,0.3904897607421875
-0.42931105468749997,0.08364797119140625,0.497398232421875
-0.421044140625,0.1564397998046875,0.6131543017578125
-0.38967849609375,0.238299970703125,0.8537598046875
-0.43830740234375,0.31060161865234376,0.9650920751953125
-0.48693630859375,0.38118763427734376,1.0909245751953125
-0.57300947265625,0.38657962158203124,1.2487067333984374
-0.6491137109375,0.35692369140625,1.172764853515625
-0.4166675390625,0.2544759326171875,1.0171945947265626
-0.43636224609375,0.1633023291015625,0.8962774267578125
-0.352963671875,0.132420947265625,0.9075826904296875
-0.405482890625,0.04933532470703125,1.0226014599609374
-0.5119801953125,0.122617333984375,1.0614325830078124
-0.57300947265625,0.153988896484375,1.0425085546875
-0.60364568359375,0.14124419921875,1.079373544921875
-0.52511,0.1603612451171875,1.109848603515625
-0.46845732421874997,0.09688284912109375,1.1336879638671875
-0.3111428125,0.05276658935546875,1.2575543310546875
-0.4122909375,0.0010525292968750002,1.32464861328125
-0.3553951171875,-0.01953505859375,1.3583186376953125
-0.38384302734375,-0.06389640869140625,1.264190029296875
-0.3038484765625,-0.12124754638671875,1.1486797265625
-0.30846822265625,-0.16462853515625,1.150154326171875
-0.25254498046875,-0.20604880126953126,1.177680185546875
-0.15382830078125,-0.18938265869140625,1.3099026171875
-0.11784291015625001,-0.1131595654296875,1.44654884765625
-0.1355924609375,-0.06438658935546875,1.58712734375
-0.205131796875,-0.06683749267578125,1.8645978369140626
-0.3077387890625,-0.08448399658203125,2.0980761083984376
-0.424934453125,0.1446754638671875,2.129718558349609
-0.374360390625,0.2819260498046875,2.0223799951171877
-0.36220316406249997,0.38045236328125,1.6778152197265626
-0.268349375,0.424568623046875,1.536499423828125
-0.356853984375,0.41108865478515627,1.6365264306640626
-0.465782734375,0.299082373046875,1.742943369140625
-0.39113736328125,0.3390320971679687,1.8149529833984375
-0.32791978515625,0.314768154296875,1.58221201171875
-0.32086859375,0.3927068798828125,1.36790353515625
-0.2649453515625,0.18830154296875,1.0992806396484376
-0.32597462890625,0.08119706787109375,1.0778989453125
-0.39502767578125,-0.00752563232421875,0.9793465380859375
-0.4049966015625,-0.0494360791015625,0.933879716796875
-0.35199109375,-0.10801266845703125,0.897506259765625
-0.35977171875,-0.14673694091796874,0.862115869140625
-0.3709563671875,-0.1729616064453125,0.7556989306640625
-0.25254498046875,-0.1822750390625,0.662553388671875
-0.16793068359375,-0.14722712158203125,0.6544430908203125
-0.17327986328125,-0.18840229736328126,0.662553388671875
-0.23649744140625,-0.24869451904296874,0.7183424072265625
-0.25497642578125,-0.26536066162109373,0.7478343994140625
-0.30798193359375,-0.280311171875,0.806081083984375
-0.29193439453125003,-0.2668312036132813,0.755944697265625
-0.19953947265625,-0.075415654296875,0.7296476708984375
-0.31138595703125,0.053992041015625,0.6888504150390625
-0.37703498046875,-0.03448556884765625,0.6151204345703125
-0.20026890625,-0.1327667919921875,0.58931494140625
-0.12756869140625,-0.0161037939453125,0.5930014404296875
-0.14702025390625,-0.05605351806640625,0.5998829052734375
-0.21753216796875,-0.21193096923828125,0.6492819921874999
-0.2644590625,-0.18938265869140625,0.6642737548828125
-0.30944080078125,-0.05458297607421875,0.5576110498046875
-0.33813185546875,-0.013652890625,0.561297548828125
-0.31333111328125,0.01257177490234375,0.5470430859375
-0.3126016796875,0.021885207519531248,0.513618828125
-0.35612455078125,-0.03938737548828125,0.428583583984375
-0.17765646484375,-0.0582593310546875,0.37893873046875
-0.174009296875,-0.1053166748046875,0.3192174462890625
-0.19467658203125,-0.11732610107421874,0.30422568359375
-0.2960678515625,-0.07173929931640625,0.3020137841796875
-0.308225078125,-0.0631611376953125,0.30815794921875
-0.16185207031249998,-0.09845414550781251,0.3904897607421875
-0.09401474609375,-0.08938580322265625,0.4971524658203125
-0.082586953125,-0.12271808837890624,0.6210188330078125
-0.1088465625,-0.20310771728515625,0.764792294921875
-0.19321771484375,-0.32957432861328123,0.9041419580078125
-0.28464005859375,-0.3798178466796875,0.9886856689453125
-0.18543708984375,-0.3447699291992187,0.9414984814453125
-0.100093359375,-0.234234189453125,0.9183964208984375
-0.031769746093749995,-0.18104958740234375,0.8456495068359375
-0.002106113281250002,-0.16389326416015626,0.8078014501953125
-0.006239570312500001,-0.2136466015625,0.731368037109375
-0.02885201171875,-0.255802138671875,0.7527497314453125
-0.0466015625,-0.2170778662109375,0.7119524755859374
0.010537402343749998,-0.186196484375,0.757419296875
0.0171023046875,-0.186196484375,0.83901380859375
0.03290669921875,-0.1822750390625,0.88226873046875
0.02123576171875,-0.198941181640625,0.9424815478515625
-0.05365275390625,-0.14918784423828124,1.074458212890625
-0.10617197265625,-0.1906081103515625,1.03366095703125
-0.1103054296875,-0.0719843896484375,1.0039231982421875
-0.13680818359375,-0.01169216796875,0.934862783203125
-0.11930177734375,-0.013652890625,0.9636174755859375
-0.11735662109375,-0.0018885546875000003,0.9970417333984375
-0.18203306640625,0.0373258984375,1.016457294921875
-0.2523018359375,0.0838930615234375,0.9960586669921875
-0.2406308984375,0.1162449853515625,0.8805483642578125
-0.1939471484375,0.1397736572265625,0.7881401220703125
-0.24281919921875,0.11403917236328125,0.8058353173828126
-0.21655958984375,-0.012672529296875,0.9095488232421876
-0.2873146484375,-0.006790361328125,1.0417712548828124
-0.24719580078125,-0.07713128662109375,1.0597122167968749
-0.203186640625,-0.136198056640625,1.11034013671875
-0.14702025390625,-0.13987441162109376,1.1169758349609376
-0.27248283203125,-0.04526954345703125,1.1317218310546875
-0.39016478515624997,-0.0327699365234375,1.159001923828125
-0.41885583984375,-0.01732924560546875,1.2233927734375
-0.41836955078125,0.021885207519531248,1.2934362548828124
-0.3991611328125,0.0012976196289062499,1.3701154345703126
-0.31430369140625003,-0.02419177490234375,1.4753035400390626
-0.25789416015625,0.0035034326171875,1.45244724609375
-0.26056875,0.09590248779296875,1.3917428955078126
-0.28196546875,0.03168882080078125,1.3185044482421875
-0.2717533984375,0.150067451171875,1.453921845703125
-0.25789416015625,0.10374537841796876,1.5814747119140624
-0.3466419140625,0.089285048828125,1.6915781494140625
-0.3111428125,0.09100068115234375,1.6517639599609375
-0.3476144921875,0.11649007568359375,1.6787982861328126
-0.46456701171875,0.07090327392578125,1.5930257421875
-0.49593265625,0.0525214990234375,1.3597932373046875
-0.48304599609375,0.0765403515625,1.2963854541015625
-0.35272052734375,0.0789912548828125,1.3052330517578126
-0.3164919921875,0.13952856689453125,1.357581337890625
-0.3184371484375,0.13462676025390624,1.3332504443359374
-0.3515048046875,0.06257020263671875,1.2791817919921875
-0.41447923828125,-0.01144707763671875,1.109848603515625
-0.48790888671875,-0.042328459472656246,1.0412797216796874
-0.4594609765625,-0.06193568603515625,0.9621428759765625
-0.39162365234375,-0.132276611328125,0.8731753662109375
-0.36366203125,-0.128355166015625,0.843929140625
-0.33764556640625,-0.20163717529296876,0.7881401220703125
-0.30117388671875,-0.263645029296875,0.8380307421875
-0.366579765625,-0.25874322265625,0.899472392578125
-0.442440859375,-0.2082546142578125,0.910286123046875
-0.46553958984375,-0.1837455810546875,0.7942842871093749
-0.46748474609375,-0.195019736328125,0.7203085400390625
-0.4040240234375,-0.18693175537109374,0.646824326171875
-0.265431640625,-0.2058037109375,0.594721806640625
-0.121490078125,-0.218548408203125,0.63060373046875
-0.18859796875,-0.25653740966796873,0.740215634765625
-0.31041337890625,-0.20163717529296876,0.871455
-0.3694975,-0.24575343505859376,0.9542783447265625
-0.27005138671875,-0.14109986328125,1.0078554638671875
-0.16598552734375,-0.1749223291015625,1.0103131298828125
-0.18738224609375,-0.159726728515625,1.11525546875
-0.31770771484375,-0.1229631787109375,1.1054248046875
-0.30652306640625,-0.1494329345703125,0.952557978515625
-0.3096839453125,-0.18202994873046874,0.839996875
-0.2260422265625,-0.11242429443359375,0.7928096875
-0.15042427734375,-0.096983603515625,0.80952181640625
-0.11006228515625,-0.189137568359375,0.9818042041015624
-0.15066742187499998,-0.055073156738281254,1.119679267578125
-0.19856689453125,-0.08056255126953125,1.067576748046875
-0.1851939453125,-0.07762146728515625,1.0117877294921875
-0.372415234375,-0.044534272460937496,0.9183964208984375
-0.40475345703125,-0.038161923828125,0.777572158203125
-0.20391607421875,-0.026397587890625,0.6682060205078125
-0.12173322265625,0.011346323242187501,0.7198170068359375
-0.2338228515625,-0.07222947998046875,0.677299384765625
-0.2571647265625,0.02923791748046875,0.6868842822265625
-0.2882872265625,0.0348749951171875,0.6775451513671875
-0.20488865234375,-0.15605037353515624,0.6942572802734375
-0.18592337890625,-0.0798272802734375,0.75447009765625
-0.1744955859375,0.00570924560546875,0.7242408056640625
-0.040279804687500004,-0.120512275390625,0.6937657470703125
-0.08526154296874999,-0.16046199951171874,0.75447009765625
-0.09595990234375,-0.122472998046875,0.776589091796875
-0.05657048828125,-0.08252327392578125,0.8898874951171875
-0.14702025390625,-0.042328459472656246,1.0597122167968749
-0.0932853125,-0.032279755859375,1.1518746923828125
-0.08307324218750001,0.0535018603515625,1.2678765283203126
-0.19419029296875,0.08953013916015624,1.2914701220703124
-0.15917748046875,0.0054641552734375,1.2452660009765626
-0.1735230078125,-0.01978014892578125,1.245511767578125
-0.2955815625,-0.0023787353515625003,1.220935107421875
-0.25108611328125,-0.10972830078125,1.1184504345703126
-0.05511162109375,-0.10997339111328125,1.0865007763671874
-0.16185207031249998,-0.159726728515625,1.0506188525390625
-0.0621628125,-0.18252012939453124,1.0953483740234375
-0.050491875000000006,-0.16634416748046876,1.1739936865234375
-0.072861171875,-0.19330410400390624,1.16932412109375
-0.1555303125,-0.18301031005859375,1.120662333984375
-0.17327986328125,-0.233253828125,1.0597122167968749
-0.2099946875,-0.23251855712890626,1.0417712548828124
-0.195406015625,-0.16830489013671876,0.9547698779296875
-0.1317021484375,-0.2249207568359375,0.95108337890625
-0.137051328125,-0.1278649853515625,1.02776255859375
-0.21996361328125,-0.071494208984375,1.0658563818359374
-0.26664736328125,-0.05409279541015625,1.1454847607421874
-0.315033125,-0.010711806640625,1.134916796875
-0.32013916015625,0.0005623486328125002,0.9832788037109375
-0.1920019921875,-0.038161923828125,0.9311762841796875
-0.26154132812499997,-0.01561361328125,0.868997333984375
-0.14191421875,0.0012976196289062499,0.9247863525390625
-0.199296328125,-0.06634731201171876,0.99433830078125
-0.1939471484375,-0.0788469189453125,1.0896957421875
-0.27831830078124997,-0.0602200537109375,1.1725190869140625
-0.3889490625,0.00717978759765625,1.1656376220703124
-0.36633662109375,0.0574233056640625,1.153103525390625
-0.32013916015625,-0.0151234326171875,1.08478041015625
-0.3816547265625,0.00816014892578125,0.954032578125
-0.249870390625,-0.0219859619140625,0.789368955078125
0.01199626953125,-0.1102184814453125,0.814928681640625
-0.02107138671875,-0.03546593017578125,0.9245405859375
-0.2532744140625,-0.03840701416015625,0.9975332666015625
-0.300444453125,-0.09330724853515625,1.006626630859375
-0.315033125,-0.0425735498046875,0.9316678173828125
-0.33108066406250003,0.0495804150390625,0.8544971044921875
-0.3203823046875,0.07286399658203124,0.9139726220703125
-0.32937865234375,0.1329111279296875,1.033169423828125
-0.39891798828125,0.10570610107421875,1.051847685546875
-0.38505875,0.06845237060546874,0.8259881787109375
-0.36196001953125,0.0436982470703125,0.726452705078125
-0.36050115234375,-0.01683906494140625,0.6682060205078125
-0.36439146484375,-0.07419020263671874,0.5993913720703125
-0.32791978515625,-0.07958218994140626,0.5477803857421875
-0.25449013671875,-0.03840701416015625,0.453160244140625
-0.2707808203125,-0.03644629150390625,0.4750334716796875
-0.3301080859375,-0.0690433056640625,0.5005931982421875
-0.331566953125,-0.05164189208984375,0.62273919921875
-0.38141158203125003,-0.09722869384765626,0.7468513330078125
-0.39210994140625,-0.03448556884765625,0.8653108349609375
-0.35369310546875,0.06109966064453125,0.9331424169921875
-0.36730919921875,0.05864875732421875,1.08674654296875
-0.368524921875,0.07041309326171875,1.22240970703125
-0.29825615234375,0.0633054736328125,1.2020110791015626
-0.32743349609375,0.04737460205078125,1.194392314453125
-0.41034578125,-0.02615249755859375,1.0624156494140624
-0.38821962890625,-0.0964934228515625,0.9407611816406249
-0.38627447265625,-0.0592396923828125,0.8461410400390625
-0.33108066406250003,-0.13717841796875,0.713672841796875
-0.15431458984375,-0.16830489013671876,0.651739658203125
-0.12829812499999999,-0.16487362548828124,0.7812586572265625
-0.39697283203125,-0.1352176953125,0.998762099609375
-0.40183572265625,-0.16536380615234375,1.1132893359375
-0.325731484375,-0.1033559521484375,1.1941465478515625
-0.2542469921875,0.0486000537109375,1.11034013671875
-0.17303671874999998,-0.11830646240234374,1.0801108447265624
-0.16136578125,-0.089140712890625,1.2054518115234374
-0.181789921875,-0.044534272460937496,1.2816394580078125
-0.226528515625,-0.08963089355468751,1.4546591455078124
-0.36925435546875,-0.1092381201171875,1.5008632666015624
-0.45095091796875,-0.10727739746093751,1.3597932373046875
-0.28634207031250003,-0.1817848583984375,1.1341794970703125
-0.19175884765625,-0.1710008837890625,1.07494974609375
-0.2099946875,-0.11634573974609375,1.2133163427734375
-0.31308796875,-0.2160975048828125,1.3199790478515625
-0.3583128515625,-0.2425672607421875,1.33251314453125
-0.44292714843750003,-0.177373232421875,1.182595517578125
-0.36293259765625,-0.30310457275390623,1.0747039794921875
-0.187625390625,-0.30016348876953125,1.04742388671875
-0.12829812499999999,-0.2690370166015625,1.154086591796875
-0.20391607421875,-0.29477150146484377,1.2231470068359376
-0.14021220703125,-0.24477307373046875,1.303512685546875
-0.34810078125,-0.245998525390625,1.2344522705078125
-0.40280830078125,-0.1866866650390625,1.135408330078125
-0.33642984375,-0.31388854736328126,1.0206353271484374
-0.16938955078125,-0.24526325439453125,1.008592763671875
-0.033714902343750006,-0.11683592041015625,1.079865078125
-0.14750654296875,-0.27369373291015625,1.3086737841796876
-0.308225078125,-0.20065681396484375,1.3828952978515625
-0.2834243359375,-0.07173929931640625,1.2241300732421876
-0.40913005859375,-0.14036459228515624,1.17718865234375
-0.47648109375000003,-0.140119501953125,0.9739396728515625
-0.39016478515624997,-0.060710234375,0.80165728515625
-0.34396732421875,-0.01830960693359375,0.68368931640625
-0.15577345703125,-0.0759058349609375,0.62077306640625
-0.15164,-0.11634573974609375,0.705808310546875
-0.164283515625,-0.034240478515625,0.720554306640625
-0.1540714453125,-0.01928996826171875,0.7910893212890625
-0.23917203125,-0.11928682373046876,0.8146829150390625
-0.181789921875,-0.03914228515625,0.787402822265625
-0.2182616015625,-0.0053198193359375,0.7891231884765625
-0.2454937890625,-0.0533575244140625,0.7384952685546875
-0.1083602734375,-0.02419177490234375,0.6868842822265625
-0.20586123046875,-0.09330724853515625,0.734317236328125
-0.253760703125,-0.06536695068359374,0.7896147216796875
-0.2756437109375,0.030463369140625002,0.8795652978515625
-0.27807515625,0.0005623486328125002,0.941744248046875
-0.20586123046875,0.07457962890625,0.991880634765625
-0.21023783203125002,0.14394019287109375,1.0265337255859375
-0.1424005078125,0.10913736572265625,1.056763017578125
-0.21193984375,0.1044806494140625,1.1381117626953126
-0.2114535546875,0.11501953369140624,1.13393373046875
-0.24938410156250002,0.00276816162109375,1.03661015625
-0.24330548828125,0.03659062744140625,0.9677955078125
-0.152612578125,0.01453249755859375,0.8380307421875
-0.20488865234375,-0.0023787353515625003,0.7463597998046875
-0.2202067578125,-0.0876701708984375,0.6932742138671875
-0.22531279296875,-0.077376376953125,0.65223119140625
-0.205131796875,-0.079337099609375,0.5826792431640625
-0.10568568359375,-0.1445311279296875,0.549500751953125
-0.06410796875,-0.04134809814453125,0.592755673828125
-0.19637859375,0.07188363525390624,0.6991726123046875
-0.19856689453125,-0.01193725830078125,0.978117705078125
-0.31333111328125,0.0191892138671875,1.227816572265625
-0.18835482421875,0.122617333984375,1.16735798828125
-0.14896541015625,0.0123266845703125,1.1054248046875
-0.23017568359375,0.05521749267578125,0.9773804052734375
-0.221665625,0.0020328906249999995,0.767741494140625
-0.29825615234375,-0.01169216796875,0.76233462890625
-0.214857578125,-0.12614935302734376,0.718096640625
-0.1599069140625,-0.19967645263671874,0.8301662109375
-0.16160892578125,-0.10311086181640625,0.9414984814453125
-0.1968648828125,-0.1543347412109375,1.022355693359375
-0.20877896484375,-0.16462853515625,1.1105859033203125
-0.22944625,-0.0974737841796875,1.19881611328125
-0.2639727734375,-0.047965537109375,1.19684998046875
-0.255705859375,-0.05556333740234375,1.17915478515625
-0.3009307421875,-0.089140712890625,1.1312302978515625
-0.3072525,-0.1121792041015625,1.0678225146484375
-0.273212265625,-0.07713128662109375,0.9931094677734374
-0.2435486328125,-0.10703230712890625,0.8441749072265625
-0.18592337890625,-0.092081796875,0.785436689453125
-0.14629082031250001,-0.122472998046875,0.8267254785156251
-0.17473873046875,-0.163648173828125,1.0088385302734375
-0.19613544921875,-0.09820905517578125,1.14769666015625
-0.28512634765625,-0.175412509765625,1.12017080078125
-0.30652306640625,-0.046004814453125,1.0412797216796874
-0.21996361328125,-0.06438658935546875,0.9862280029296875
-0.29387955078125,-0.06585713134765625,1.032677890625
-0.17522501953125,0.03659062744140625,1.15556119140625
-0.236254296875,0.0044837939453125,1.31875021484375
-0.29339326171875,-0.0396324658203125,1.36397126953125
-0.29339326171875,-0.05213207275390625,1.301546552734375
-0.28391062499999997,-0.095022880859375,1.1211538671875
-0.30506419921875,-0.03938737548828125,1.034152490234375
-0.28512634765625,-0.186196484375,0.899472392578125
-0.162338359375,-0.14109986328125,0.8790737646484375
-0.13389044921874999,-0.075415654296875,0.8446664404296875
-0.24525064453125,-0.08252327392578125,0.9419900146484375
-0.25643529296875,-0.193059013671875,1.0987891064453126
-0.349073359375,-0.12614935302734376,1.1592476904296876
-0.33472783203125,-0.05409279541015625,1.0284998583984375
-0.27272597656249997,-0.09526797119140624,0.948625712890625
-0.29509527343749997,-0.14379585693359376,0.8564632373046875
-0.21850474609375,-0.03522083984375,0.8795652978515625
-0.216802734375,-0.1053166748046875,0.9346170166015625
-0.3189234375,-0.06291604736328126,0.9778719384765625
-0.268349375,-0.046249904785156254,0.9233117529296875
-0.17473873046875,-0.068553125,0.9405154150390624
-0.10860341796875,0.05619785400390625,0.9788550048828125
-0.15139685546875,-0.07443529296875,1.0174403613281249
-0.2513292578125,-0.11732610107421874,1.11230626953125
-0.36220316406249997,-0.12149263671875,1.0378389892578126
-0.36828177734375,0.00325834228515625,0.9773804052734375
-0.403537734375,-0.02125069091796875,0.9449392138671875
-0.24914095703125,-0.06340622802734375,0.9877026025390625
-0.21315556640625,-0.08448399658203125,1.1504000927734375
-0.29193439453125003,-0.15065838623046876,1.174239453125
-0.1278118359375,-0.076396015625,1.166866455078125
-0.18008791015625,-0.1195319140625,1.2290454052734374
-0.288773515625,-0.153844560546875,1.3081822509765626
-0.36974064453125,-0.1308060693359375,1.3165383154296875
-0.40062,-0.17271651611328126,1.132459130859375
-0.3656071875,-0.08546435791015625,0.9813126708984374
-0.2104809765625,-0.144040947265625,0.842454541015625
-0.23941517578125,-0.13448242431640625,0.728418837890625
-0.21704587890625,-0.187176845703125,0.6686975537109375
-0.11638404296875,-0.1759026904296875,0.70924904296875
-0.18495080078125,-0.09134652587890625,0.7596311962890625
-0.29752671875000003,-0.07370002197265625,0.783470556640625
-0.33108066406250003,-0.091101435546875,0.842454541015625
-0.29582470703125,-0.04723026611328125,0.862115869140625
-0.2416034765625,0.0373258984375,0.97664310546875
-0.19516287109375,0.06943273193359376,1.1007552392578126
-0.2124261328125,0.0250713818359375,1.2256046728515626
-0.358799140625,0.009140510253906251,1.272054560546875
-0.335457265625,-0.03056412353515625,1.16932412109375
-0.4122909375,-0.05752406005859375,1.03661015625
-0.29144810546875,-0.10752248779296875,0.9690243408203125
-0.1978374609375,-0.104826494140625,0.8313950439453125
-0.1579617578125,-0.10850284912109374,0.8038691845703125
-0.1949197265625,-0.14673694091796874,0.8230389794921875
-0.21996361328125,-0.1886473876953125,0.8741584326171875
-0.27491427734375,-0.12663953369140624,0.9931094677734374
-0.2255559375,-0.1111988427734375,0.9881941357421875
-0.2177753125,-0.09085634521484375,0.952557978515625
-0.2649453515625,-0.10752248779296875,0.9547698779296875
-0.1667149609375,-0.0455146337890625,0.9739396728515625
-0.29533841796875,-0.130315888671875,0.938795048828125
-0.316005703125,-0.07566074462890625,0.998762099609375
-0.24719580078125,-0.00311400634765625,0.96877857421875
-0.3111428125,-0.06487677001953125,0.8780906982421874
-0.23552486328125,-0.013162709960937501,0.8117337158203125
-0.23844259765625,-0.0925719775390625,0.721537373046875
-0.25497642578125,-0.050661530761718754,0.6913080810546874
-0.16987583984375,-0.06144550537109375,0.6569007568359375
-0.14604767578125,-0.00777072265625,0.7792925244140625
-0.2192341796875,-0.03914228515625,0.948625712890625
-0.298499296875,-0.02664267822265625,1.1445016943359374
-0.31989601562500003,-0.02370159423828125,1.2968769873046875
-0.5061447265625,0.0137972265625,1.2855717236328126
-0.417153828125,0.03119864013671875,1.05135615234375
-0.294608984375,-0.03889719482421875,0.9124980224609375
-0.18203306640625,-0.08007237060546875,0.8977520263671875
-0.2260422265625,-0.06487677001953125,1.0179318945312499
-0.23309341796875,-0.08938580322265625,1.1447474609375
-0.2172890234375,-0.1121792041015625,1.1302472314453125
-0.312115390625,-0.0464949951171875,1.0235845263671874
-0.33375525390625,-0.11193411376953125,0.8412257080078125
-0.25449013671875,-0.067572763671875,0.81345408203125
-0.23163455078125,-0.07762146728515625,0.8520394384765625
-0.245980078125,-0.08105273193359375,0.9813126708984374
-0.288773515625,-0.17026561279296876,1.0358728564453126
-0.32159802734375,-0.16095218017578125,1.0383305224609374
-0.3077387890625,-0.17957904541015626,0.9326508837890625
-0.34445361328125,-0.13056097900390626,0.849336005859375
-0.25205869140625,-0.08056255126953125,0.8141913818359375
-0.2124261328125,-0.12614935302734376,0.8844806298828125
-0.1200312109375,0.00570924560546875,1.12017080078125
-0.17814275390625,-0.01438816162109375,1.237155703125
-0.300444453125,0.05374695068359375,1.2954023876953125
-0.3719289453125,-0.12467881103515625,1.0801108447265624
-0.30798193359375,-0.03399538818359375,0.94223578125
-0.2834243359375,-0.09967959716796874,0.8299204443359375
-0.0772377734375,-0.11977700439453125,0.8014115185546875
-0.2143712890625,-0.08154291259765625,0.906353857421875
-0.2581373046875,-0.122472998046875,0.7660211279296875
-0.15358515625,-0.1504132958984375,0.779538291015625
-0.18300564453125,-0.18399067138671876,0.941744248046875
-0.24233291015625,-0.1435507666015625,1.18898544921875
-0.245980078125,-0.10703230712890625,1.204222978515625
-0.17668388671875,-0.03154448486328125,1.1671122216796874
-0.2411171875,-0.12026718505859375,0.995812900390625
-0.21315556640625,-0.02517213623046875,0.9503460791015625
-0.2416034765625,-0.06267095703125,0.909303056640625
-0.09401474609375,-0.07075893798828126,1.013508095703125
-0.2561921484375,-0.09624833251953124,1.107882470703125
-0.21169669921875,-0.047965537109375,1.0592206835937499
-0.1171134765625,-0.055808427734375,1.0019570654296874
-0.20415921875,-0.096983603515625,0.9788550048828125
-0.2022140625,-0.011201987304687501,1.065610615234375
-0.24768208984375,-0.0759058349609375,1.1562984912109375
-0.23066197265625,-0.0406128271484375,1.192426181640625
-0.21558701171875,-0.0724745703125,1.1764513525390625
-0.22750109375,-0.11095375244140625,1.1435186279296874
-0.30214646484375,-0.13301188232421876,1.0189149609375
-0.14556138671875,-0.12026718505859375,0.91077765625
-0.13243158203125,-0.08154291259765625,0.9680412744140625
-0.1803310546875,-0.1700205224609375,1.1341794970703125
-0.21510072265625,-0.0749254736328125,1.1631799560546874
-0.30798193359375,-0.09869923583984375,0.9837703369140625
-0.1929745703125,-0.10286577148437501,0.810996416015625
-0.2255559375,-0.18104958740234375,0.694011513671875
-0.22628537109375,-0.14134495361328125,0.6657483544921875
-0.11200744140625,-0.16634416748046876,0.6215103662109375
-0.070916015625,-0.224430576171875,0.6947488134765625
-0.06775513671875,-0.23938108642578126,0.788385888671875
-0.0743200390625,-0.2136466015625,0.967303974609375
-0.1453182421875,-0.09526797119140624,1.0604495166015624
-0.31673513671875,-0.0798272802734375,1.1032129052734374
-0.32062544921875,0.04737460205078125,0.9911433349609375
-0.2172890234375,0.09688284912109375,0.889641728515625
-0.16452666015625,-0.03350520751953125,0.867522734375
-0.11200744140625,-0.055808427734375,0.9940925341796875
-0.1424005078125,0.00668960693359375,1.0879753759765625
-0.2085358203125,0.02752228515625,1.0643817822265624
-0.170118984375,-0.0455146337890625,1.1302472314453125
-0.1414279296875,-0.051886982421875,1.1297556982421875
-0.22920310546875,-0.05360261474609375,1.1730106201171875
-0.3485870703125,-0.0376717431640625,1.2194605078125
-0.339347578125,-0.0523771630859375,1.1919346484375
-0.28561263671875,-0.046004814453125,1.0678225146484375
-0.36876806640625,-0.0710040283203125,1.05233921875
-0.282938046875,-0.1876670263671875,0.9936010009765625
-0.25254498046875,-0.08007237060546875,0.8672769677734375
-0.2571647265625,-0.0337502978515625,0.7711822265625
-0.16525609375,-0.1190417333984375,0.810013349609375
-0.162338359375,0.01796376220703125,1.080356611328125
-0.2027003515625,-0.00752563232421875,1.325140146484375
-0.26956509765625,-0.1710008837890625,1.4571168115234374
-0.35466568359375,-0.02860340087890625,1.310394150390625
-0.3991611328125,-0.05874951171875,0.955507177734375
-0.3991611328125,-0.13252170166015625,0.796741953125
-0.2766162890625,-0.212666240234375,0.7121982421874999
-0.1744955859375,-0.1876670263671875,0.6288833642578124
-0.11054857421875,-0.1906081103515625,0.588823408203125
-0.131215859375,-0.24134180908203126,0.6033236376953125
-0.05948822265625,-0.18889247802734374,0.68172318359375
-0.1647698046875,-0.170510703125,0.9159387548828125
-0.27345541015625,-0.0690433056640625,1.1223827001953124
-0.41982841796875,0.05497240234375,1.1936550146484375
-0.368524921875,0.1358522119140625,1.0604495166015624
-0.3116291015625,0.14148928955078124,0.993355234375
-0.26518849609375,0.04982550537109375,0.895540126953125
-0.269321953125,0.0564429443359375,0.8825144970703125
-0.2882872265625,-0.09869923583984375,0.8068183837890625
-0.1725504296875,-0.09428760986328125,0.6677144873046875
-0.081614375,-0.0376717431640625,0.6313410302734375
-0.10422681640625,-0.1013952294921875,0.7507835986328125
-0.21218298828125,0.04884514404296875,0.932896650390625
-0.345183046875,0.05423713134765625,1.110831669921875
-0.3904079296875,-0.02713285888671875,1.232731904296875
-0.3072525,0.0319339111328125,1.296631220703125
-0.29485212890625,-0.00311400634765625,1.1248403662109374
-0.28974609375,0.04345315673828125,0.9164302880859375
-0.22823052734375,-0.1626678125,0.861132802734375
-0.13923962890625,-0.1744321484375,0.9095488232421876
-0.10714455078125,-0.049926259765625,1.0457035205078125
-0.166228671875,-0.2121760595703125,1.2413337353515626
-0.1686601171875,-0.124433720703125,1.3642170361328125
-0.37508982421875,-0.1435507666015625,1.1626884228515626
-0.25862359375,-0.10065995849609374,0.962388642578125
-0.2912049609375,-0.26241957763671875,1.0019570654296874
-0.30020130859375,-0.07320984130859375,1.0592206835937499
-0.41034578125,-0.1043363134765625,1.064627548828125
-0.24476435546875,-0.21242114990234376,1.0228472265625
-0.17036212890625,-0.10458140380859375,1.02972869140625
-0.12854126953125,-0.11561046875,1.0098215966796875
-0.30457791015625,-0.02713285888671875,1.0565172509765626
-0.3923530859375,0.04443351806640625,1.043000087890625
-0.45192349609375,-0.09379742919921875,1.009575830078125
-0.35028908203125,-0.10752248779296875,0.8884128955078126
-0.18543708984375,-0.04821062744140625,0.8132083154296875
-0.15042427734375,-0.10752248779296875,0.8731753662109375
-0.2800203125,-0.22663638916015624,0.8412257080078125
-0.34931650390625,-0.06487677001953125,0.75840236328125
-0.2834243359375,-0.1935491943359375,0.6886046484375
-0.20780638671875,-0.183255400390625,0.7281730712890625
-0.296554140625,-0.05899460205078125,0.8360646093749999
-0.17717017578125,-0.09722869384765626,0.9719735400390626
-0.33229638671875,-0.03546593017578125,1.0201437939453124
-0.39867484375,-0.0670825830078125,0.7999369189453125
-0.22288134765625,-0.0729647509765625,0.7149016748046875
-0.16355408203125,-0.048945898437499996,0.8549886376953125
-0.1866528125,0.026541923828125,1.091170341796875
-0.12951384765625001,0.085363603515625,1.27352916015625
-0.13583560546875,-0.0043394580078125,1.4514641796875
-0.286828359375,-0.1141399267578125,1.4261502197265625
-0.34785763671875003,-0.1239435400390625,1.0919076416015625
-0.35417939453125,-0.0817880029296875,0.851302138671875
-0.33424154296874997,-0.17467723876953126,0.74857169921875
-0.19832375,-0.1572758251953125,0.6981895458984375
-0.14215736328125,-0.10752248779296875,0.750046298828125
-0.0801555078125,-0.16070708984375,0.7593854296875
-0.14993798828125,-0.18840229736328126,0.9301932177734376
-0.20245720703125,-0.18815720703125,1.082322744140625
-0.189570546875,-0.093062158203125,1.257308564453125
-0.17182099609375,0.015022678222656249,1.278936025390625
-0.3067662109375,0.04541387939453125,1.1902142822265624
-0.41545181640625,0.07433453857421875,0.9065996240234375
-0.343237890625,-0.0317895751953125,0.690079248046875
-0.05802935546875,-0.0724745703125,0.655180390625
-0.026420566406250002,0.0608545703125,0.7429190673828125
-0.25205869140625,-0.00703545166015625,0.8161575146484374
-0.30749564453125,-0.08938580322265625,0.8065726171875
-0.07602205078125,-0.09771887451171875,0.9110234228515625
-0.046358417968749996,-0.04134809814453125,1.1715360205078125
-0.24768208984375,-0.013652890625,1.4664559423828125
-0.24914095703125,-0.0881603515625,1.362496669921875
-0.2678630859375,-0.11536537841796875,1.032677890625
-0.07893978515625,-0.19330410400390624,0.8348357763671875
-0.13340416015625,-0.068553125,0.84884447265625
-0.2445212109375,-0.08301345458984374,0.89996392578125
-0.3281629296875,-0.07762146728515625,0.929947451171875
-0.2065906640625,-0.046740085449218746,0.7109694091796875
-0.09985021484375001,-0.11536537841796875,0.7065456103515625
0.02415349609375,-0.10360104248046875,0.8348357763671875
-0.06678255859375,-0.0837487255859375,1.010558896484375
-0.11638404296875,-0.05801424072265625,1.0818312109375
-0.22750109375,-0.08007237060546875,0.987948369140625
-0.24695265625,0.01012087158203125,0.9614055761718749
-0.25400384765625,0.04002189208984375,0.9046334912109375
-0.220693046875,-0.00360418701171875,0.8294289111328125
-0.10179537109375,0.0515411376953125,0.79182662109375
-0.05511162109375,-0.08056255126953125,0.859658203125
0.02853009765625,-0.09085634521484375,1.0599579833984376
-0.18349193359375,0.00570924560546875,1.296631220703125
-0.20926525390625,-0.17614778076171875,1.27156302734375
-0.2795340234375,-0.07075893798828126,1.2526389990234374
-0.14312994140625,-0.0082609033203125,1.028745625
0.074970703125,-0.06732767333984375,1.1459762939453124
-0.06483740234375,-0.036201201171875,1.347750673828125
-0.4088869140625,0.06011929931640625,1.441141982421875
-0.45727267578124997,-0.13987441162109376,1.131476064453125
-0.43174250000000003,-0.1901179296875,0.8825144970703125
-0.2085358203125,-0.24967488037109375,0.727435771484375
-0.028122578125000002,-0.18546121337890625,0.7340714697265625
-0.0587587890625,-0.1273748046875,0.8884128955078126
-0.19175884765625,-0.08840544189453126,0.9375662158203125
-0.23649744140625,-0.0553182470703125,1.093136474609375
-0.27029453125,-0.17639287109375001,1.251410166015625
-0.2255559375,-0.073454931640625,1.3435726416015625
-0.32159802734375,-0.01830960693359375,1.347750673828125
-0.49593265625,-0.04036773681640625,1.2167570751953125
-0.44924890625,-0.1827652197265625,0.977134638671875
-0.20002576171875,-0.2817817138671875,0.7633176953125
-0.117599765625,-0.27222319091796876,0.703842177734375
-0.19029998046875,-0.26143921630859374,0.7436563671875001
-0.10422681640625,-0.08105273193359375,0.9127437890625
-0.19856689453125,-0.09967959716796874,1.001219765625
-0.21266927734375,-0.22908729248046875,1.094119541015625
-0.2338228515625,-0.089140712890625,1.2216724072265626
-0.36536404296875,-0.016593974609375,1.189476982421875
-0.3281629296875,-0.0406128271484375,1.0147369287109376
-0.2182616015625,-0.0038492773437499997,0.9528037451171875
-0.25449013671875,-0.1023755908203125,0.9407611816406249
-0.15066742187499998,-0.1219828173828125,1.0751955126953125
-0.282938046875,-0.1430605859375,1.1346710302734375
-0.33375525390625,-0.1744321484375,1.007609697265625
-0.26470220703125,-0.0376717431640625,0.8476156396484374
-0.18057419921875,-0.04183827880859375,0.76921609375
-0.05559791015625,0.0515411376953125,0.76233462890625
-0.1200312109375,0.19050735595703125,1.006626630859375
-0.2566784375,0.11403917236328125,1.2344522705078125
-0.2075632421875,-0.02958376220703125,1.223884306640625
-0.0996070703125,-0.03522083984375,1.1422897949218749
-0.1093328515625,-0.076396015625,1.1010010058593749
-0.26227076171875,-0.06683749267578125,1.036118623046875
-0.255705859375,-0.0621807763671875,1.0137538623046876
-0.3019033203125,-0.08448399658203125,1.00416896484375
-0.36439146484375,-0.12516899169921875,0.9501003125
-0.28196546875,-0.11389483642578124,0.9346170166015625
-0.2172890234375,-0.153844560546875,0.788877421875
-0.007941582031250002,-0.03252484619140625,0.7134270751953125
-0.01620849609375,0.03806116943359375,0.7419360009765625
-0.12221951171875,-0.0317895751953125,0.7512751318359375
-0.0030786914062500004,-0.00213364501953125,0.780521357421875
-0.0422249609375,-0.1023755908203125,0.8520394384765625
-0.17376615234375,-0.15016820556640625,0.8608870361328125
0.0020273437500000005,-0.10188541015625,0.8810398974609375
-0.10422681640625,-0.00948635498046875,1.0624156494140624
-0.28391062499999997,0.03413972412109375,1.154086591796875
-0.37752126953125,-0.015368522949218751,1.148188193359375
-0.3145468359375,0.03315936279296875,1.0088385302734375
-0.3116291015625,0.0035034326171875,0.8623616357421875
-0.19273142578125,0.03266918212890625,0.7394783349609375
-0.02909515625,0.0446786083984375,0.70629984375
0.0132119921875,-0.02321141357421875,0.8225474462890625
-0.033714902343750006,-0.03889719482421875,0.9734481396484375
-0.23260712890625002,-0.12909043701171874,0.959439443359375
-0.15334201171875,-0.06340622802734375,0.769707626953125
-0.13389044921874999,0.00619942626953125,0.6588668896484375
-0.035903203125000005,-0.0210056005859375,0.6288833642578124
-0.0344443359375,-0.100905048828125,0.8009199853515625
-0.14458880859375,-0.023456503906250002,0.99237216796875
-0.316005703125,-0.05874951171875,1.158018857421875
-0.3476144921875,-0.1200220947265625,1.26369849609375
-0.21753216796875,-0.0347306591796875,1.2496897998046874
-0.1813036328125,0.0250713818359375,1.2388760693359375
-0.16209521484375,-0.045024453125,1.3376742431640625
-0.21583015625000002,-0.0881603515625,1.3986243603515625
-0.33861814453125,-0.08227818359375,1.2273250390625
-0.24281919921875,-0.1430605859375,0.93437125
-0.183735078125,-0.1435507666015625,0.800182685546875
-0.06751199218750001,-0.06781785400390625,0.7950215869140624
-0.09061072265625,-0.15163874755859374,0.89406552734375
-0.20877896484375,-0.14526639892578125,1.0987891064453126
-0.3417790234375,-0.17810850341796874,1.1661291552734374
-0.30749564453125,-0.17026561279296876,1.0594664501953126
-0.33570041015625,-0.2033528076171875,0.9385492822265625
-0.24962724609375,-0.044534272460937496,1.001711298828125
-0.08915185546875,-0.2131564208984375,1.1022298388671874
-0.15528716796875,-0.26094903564453126,1.3170298486328125
-0.43490337890624997,-0.26487048095703125,1.3774884326171875
-0.3967296875,-0.20506843994140625,1.0860092431640624
-0.38967849609375,-0.11732610107421874,0.83114927734375
-0.37581925781250003,-0.1259042626953125,0.718096640625
-0.23309341796875,-0.059729873046875,0.643875126953125
-0.10617197265625,-0.0562986083984375,0.6984353125
-0.10422681640625,-0.0631611376953125,0.7689703271484375
-0.07602205078125,-0.100905048828125,0.8456495068359375
-0.27005138671875,-0.16487362548828124,1.070525947265625
-0.36439146484375,-0.09379742919921875,1.25780009765625
-0.3787369921875,-0.09918941650390625,1.4556422119140624
-0.49593265625,-0.048455717773437504,1.3917428955078126
-0.42590703125,-0.07026875732421875,1.217002841796875
-0.327676640625,-0.12124754638671875,1.091170341796875
-0.31333111328125,-0.14330567626953125,1.0368559228515626
-0.33813185546875,-0.047965537109375,1.004660498046875
-0.28269490234375,-0.0249270458984375,1.0228472265625
-0.1793584765625,-0.03987755615234375,0.986965302734375
-0.08088494140625,-0.0004180126953125,1.0555341845703126
-0.1433730859375,0.022620478515625,1.116730068359375
-0.168173828125,0.024581201171875,1.0663479150390625
-0.23212083984375,-0.0317895751953125,0.95894791015625
-0.2503566796875,0.02090484619140625,0.97271083984375
-0.282938046875,-0.20457825927734374,1.0766701123046876
-0.2488978125,-0.16854998046875,1.310394150390625
-0.314060546875,-0.18815720703125,1.4286078857421876
-0.29728357421875,-0.206784072265625,1.2801648583984375
-0.387976484375,-0.0906112548828125,1.02972869140625
-0.33375525390625,-0.1259042626953125,0.9562444775390625
-0.34688505859375,-0.06928839599609375,0.97271083984375
-0.30846822265625,-0.061690595703125004,0.876861865234375
-0.17717017578125,-0.06683749267578125,0.8009199853515625
-0.055354765624999996,-0.12418863037109375,0.6913080810546874
-0.040766093749999996,-0.0847290869140625,0.6079932031249999
-0.1501811328125,-0.10213050048828125,0.61094240234375
-0.13145900390625,-0.05458297607421875,0.6603414892578126
-0.1715778515625,-0.0327699365234375,0.90389619140625
-0.30555048828125,0.0025230712890624996,1.1644087890625
-0.4020788671875,0.0299731884765625,1.2949108544921875
-0.45435494140625,0.0152677685546875,1.1794005517578126
-0.48401857421875,-0.013652890625,0.9498545458984375
-0.41107521484375,-0.0175743359375,0.6790197509765625
-0.168173828125,0.00816014892578125,0.6215103662109375
-0.08672041015625,0.01012087158203125,0.75643623046875
-0.24038775390625,0.01845394287109375,0.9842618701171875
-0.31576255859375,-0.11928682373046876,1.145238994140625
-0.33253953125,-0.0719843896484375,1.0633987158203124
-0.27685943359375,-0.06438658935546875,0.7547158642578125
-0.11492517578125,-0.06879821533203125,0.6067643701171875
-0.09912078125,-0.075415654296875,0.588823408203125
-0.21218298828125,-0.0749254736328125,0.6709094531249999
-0.30068759765624997,-0.12271808837890624,0.741690234375
-0.2639727734375,-0.1357078759765625,0.870963466796875
-0.2736985546875,-0.1484525732421875,0.98057537109375
-0.35588140625,-0.07860182861328124,1.083305810546875
-0.39259623046875003,-0.04183827880859375,1.136391396484375
-0.42955419921875,-0.037916833496093746,1.0933822412109375
-0.2600824609375,0.0397768017578125,0.9638632421875
-0.21583015625000002,-0.03742665283203125,0.9218371533203125
-0.22044990234375,-0.02076051025390625,0.9429730810546875
-0.2279873828125,-0.13448242431640625,0.8584293701171875
-0.2255559375,-0.0268877685546875,0.850319072265625
-0.2357680078125,0.00423870361328125,0.8183694140625
-0.2289599609375,-0.0886505322265625,0.8731753662109375
-0.17230728515625,-0.0700236669921875,0.9837703369140625
-0.10714455078125,-0.071494208984375,1.0289913916015625
-0.1190586328125,-0.07026875732421875,1.304495751953125
-0.065080546875,-0.060710234375,1.62645
-0.27491427734375,0.0054641552734375,1.77489302734375
-0.5625542578125,0.03315936279296875,1.709519111328125
-0.6209089453125,-0.07051384765625,1.319241748046875
-0.545534140625,-0.09281706787109376,1.04545775390625
-0.34226531250000003,-0.15359947021484374,0.7684787939453125
-0.14458880859375,-0.2013920849609375,0.6416632275390625
-0.046358417968749996,-0.1474722119140625,0.562280615234375
-0.010129882812500001,-0.08595453857421875,0.5531872509765625
0.01783173828125,-0.09183670654296874,0.754961630859375
-0.006482714843750001,-0.19232374267578126,1.0530765185546875
-0.12270580078125,-0.31535908935546875,1.5052870654296875
-0.35272052734375,-0.13497260498046876,1.7063241455078124
-0.52438056640625,-0.03154448486328125,1.5158550292968749
-0.58176267578125,-0.051886982421875,1.1346710302734375
-0.53653779296875,-0.11364974609375,0.9363373828125
-0.27151025390625,-0.09379742919921875,0.7751144921875
-0.0791829296875,-0.0803174609375,0.7507835986328125
-0.12513724609375,-0.069533486328125,0.789368955078125
-0.15042427734375,-0.0268877685546875,0.9646005419921875
-0.21072412109375,0.04149243408203125,1.218968974609375
-0.3242726171875,0.0858537841796875,1.31481794921875
-0.30652306640625,0.096147578125,1.2265877392578124
-0.268349375,0.04884514404296875,0.9739396728515625
-0.063135390625,-0.0121823486328125,0.8505648388671875
-0.23114826171875,-0.06634731201171876,0.8889044287109376
-0.3077387890625,-0.03129939453125,0.9203625537109374
-0.31308796875,-0.0641414990234375,1.047915419921875
-0.3495596484375,-0.04134809814453125,1.197341513671875
-0.3057936328125,0.024581201171875,1.347750673828125
-0.37557611328125,0.00865032958984375,1.28925822265625
-0.26129818359375,-0.0028689160156250004,1.062661416015625
-0.13826705078125,-0.1102184814453125,0.8608870361328125
-0.05632734375,-0.0504164404296875,0.8215643798828125
-0.10374052734375,-0.05703387939453125,0.8289373779296875
-0.14069849609375001,-0.10213050048828125,0.8262339453125
-0.15164,-0.02027032958984375,0.9026673583984375
-0.08574783203125,-0.05899460205078125,0.947642646484375
-0.28269490234375,0.0505607763671875,0.985982236328125
-0.3106565234375,-0.0009081933593750001,0.8299204443359375
-0.195406015625,-0.03497574951171875,0.651248125
-0.14264365234375,-0.053847705078125,0.53033095703125
-0.12854126953125,-0.03693647216796875,0.5625263818359375
-0.10471310546875,-0.00997653564453125,0.633061396484375
-0.18835482421875,0.01747358154296875,0.7790467578125
-0.20051205078125,0.03610044677734375,0.933879716796875
-0.09134015625,-0.01095689697265625,1.0004824658203124
-0.03128345703125,0.03928662109375,1.048406953125
-0.0383346484375,0.0368357177734375,1.055779951171875
-0.11225058593750001,-0.08056255126953125,1.014491162109375
-0.12367837890625,-0.006790361328125,0.98057537109375
-0.27418484375,0.0436982470703125,0.9046334912109375
-0.29679728515625,0.009140510253906251,0.798216552734375
-0.11079171875,-0.032279755859375,0.6647652880859375
-0.1161408984375,0.02237538818359375,0.6863927490234375
-0.1813036328125,0.015022678222656249,0.797233486328125
-0.21801845703125,-0.00654527099609375,1.016457294921875
-0.3544225390625,0.0368357177734375,1.109848603515625
-0.23747001953125,0.0329142724609375,1.0592206835937499
-0.17376615234375,-0.046249904785156254,0.97369390625
-0.13000013671875,-0.04723026611328125,0.89406552734375
-0.0772377734375,-0.093062158203125,0.8242678125
-0.0568136328125,-0.122472998046875,0.8569547705078124
-0.1871391015625,-0.11830646240234374,0.9636174755859375
-0.13145900390625,-0.1082577587890625,0.972219306640625
-0.06410796875,-0.07051384765625,1.0663479150390625
-0.11103486328125,-0.16095218017578125,1.2784444921875
-0.2454937890625,-0.15752091552734376,1.44458271484375
-0.22239505859375,-0.1062970361328125,1.5106939306640625
-0.273212265625,-0.13546278564453124,1.5185584619140624
-0.41739697265625,-0.13938423095703126,1.374785
-0.4156949609375,-0.1308060693359375,1.18112091796875
-0.48450486328125,-0.12149263671875,1.0751955126953125
-0.41156150390625,-0.0641414990234375,0.91765912109375
-0.2260422265625,-0.089140712890625,0.6328156298828125
-0.0821006640625,-0.092081796875,0.56178908203125
-0.09644619140624999,-0.063651318359375,0.6040609375
-0.02544798828125,-0.1259042626953125,0.79182662109375
-0.1385101953125,-0.037916833496093746,1.1916888818359375
-0.39600025390625,0.07237381591796875,1.4949648681640624
-0.3446967578125,0.075559990234375,1.60973787109375
-0.46310814453125,-0.00507472900390625,1.36790353515625
-0.4589746875,-0.046249904785156254,1.1454847607421874
-0.41010263671875,-0.16144236083984376,0.9891772021484375
-0.35661083984374997,-0.16585398681640626,1.04939001953125
-0.31284482421875,-0.12958061767578125,1.1636714892578124
-0.32500205078125,-0.22271494384765625,1.091661875
-0.240144609375,-0.20310771728515625,0.9695158740234375
-0.13243158203125,-0.1906081103515625,0.933879716796875
-0.061676523437500005,-0.15654055419921875,1.0742124462890625
-0.13340416015625,-0.07468038330078125,1.2113502099609375
-0.28853037109375,0.00717978759765625,1.293682021484375
-0.32257060546875,0.00276816162109375,1.15752732421875
-0.352963671875,-0.068553125,1.0987891064453126
-0.29971501953125,-0.03129939453125,1.062661416015625
-0.30506419921875,-0.063651318359375,1.027271025390625
-0.28901666015625,-0.0268877685546875,1.0597122167968749
-0.27515742187500003,-0.03399538818359375,1.11427240234375
-0.2114535546875,-0.0533575244140625,1.12606919921875
-0.1326747265625,-0.08987598388671875,1.1002637060546876
-0.06726884765625,-0.1239435400390625,1.1179589013671876
-0.0752926171875,-0.12516899169921875,1.079865078125
-0.15674603515625,-0.05801424072265625,1.076424345703125
-0.2561921484375,-0.1744321484375,1.05332228515625
-0.25740787109375,-0.2788406298828125,0.996795966796875
-0.2289599609375,-0.1994313623046875,0.843437607421875
-0.1579617578125,-0.0504164404296875,0.7394783349609375
-0.1433730859375,-0.0013983740234375002,0.678773984375
-0.20342978515625,0.02972809814453125,0.6731213525390625
-0.2172890234375,-0.060710234375,0.7429190673828125
-0.2571647265625,-0.1298257080078125,0.7945300537109374
-0.1482359765625,-0.1180613720703125,0.8717007666015625
-0.11298001953125,-0.12026718505859375,0.873912666015625
-0.12270580078125,-0.08840544189453126,0.8613785693359375
-0.13972591796875,-0.044534272460937496,0.8250051123046875
-0.1949197265625,-0.02027032958984375,0.78002982421875
-0.03906408203125,-0.0006631030273437505,0.7694618603515625
-0.0782103515625,-0.08840544189453126,0.936828916015625
-0.2114535546875,0.0201695751953125,1.0560257177734376
-0.21121041015625,-0.02125069091796875,0.9808211376953125
-0.2309051171875,-0.11561046875,0.8849721630859375
-0.28512634765625,-0.0298288525390625,0.70924904296875
-0.24136033203125,0.04247279541015625,0.6335529296875
-0.1988100390625,0.05080586669921875,0.5792385107421875
-0.1190586328125,-0.0376717431640625,0.60504400390625
0.01369828125,0.0037485229492187503,0.729401904296875
-0.018396796875,0.01747358154296875,0.9459222802734375
-0.19613544921875,-0.01953505859375,1.1390948291015626
-0.263486484375,-0.08963089355468751,1.2162655419921875
-0.129270703125,-0.00948635498046875,1.2064348779296874
-0.2800203125,-0.1273748046875,1.0633987158203124
-0.1511537109375,-0.0175743359375,1.043983154296875
-0.2955815625,-0.01879978759765625,0.9670582080078125
-0.33861814453125,-0.07566074462890625,0.8908705615234375
-0.2892598046875,-0.161687451171875,0.8026403515625
-0.1958923046875,-0.0778665576171875,0.87637033203125
-0.14215736328125,-0.052867343750000004,0.91077765625
-0.19248828125,-0.17810850341796874,0.98254150390625
-0.3116291015625,-0.02027032958984375,1.00416896484375
-0.29144810546875,-0.01830960693359375,0.8498275390625
-0.13145900390625,-0.12026718505859375,0.7842078564453125
-0.11978806640625,-0.038161923828125,0.9272440185546875
-0.1477496875,-0.037916833496093746,1.1022298388671874
-0.32257060546875,-0.10016977783203125,1.295648154296875
-0.42323244140625,-0.022476142578125,1.253376298828125
-0.39259623046875003,-0.01438816162109375,0.970253173828125
-0.3476144921875,-0.0690433056640625,0.86457353515625
-0.19832375,0.07727562255859374,0.8771076318359375
-0.30457791015625,0.0054641552734375,1.0267794921875
-0.18154677734375,0.02923791748046875,1.2084010107421874
-0.10179537109375,0.030463369140625002,1.3099026171875
-0.19905318359375002,0.0054641552734375,1.3455387744140626
-0.30141703125,-0.046740085449218746,1.2963854541015625
-0.26567478515625,-0.0960032421875,1.166374921875
-0.35563826171875,-0.16462853515625,1.0899415087890625
-0.32475890625,-0.24820433837890626,1.00810123046875
-0.3164919921875,-0.23742036376953124,0.9773804052734375
-0.28804408203125,-0.293055869140625,0.949608779296875
-0.18251935546875,-0.32516270263671876,0.91077765625
-0.16136578125,-0.3423190258789062,0.9955671337890625
-0.2309051171875,-0.3053103857421875,1.1346710302734375
-0.3262177734375,-0.139139140625,1.153103525390625
-0.36098744140625,-0.02909358154296875,1.1710444873046875
-0.36536404296875,-0.0175743359375,1.229782705078125
-0.36293259765625,-0.042328459472656246,1.217494375
-0.37533296875,-0.08963089355468751,1.09461107421875
-0.27637314453125,-0.12860025634765626,1.0004824658203124
-0.3485870703125,-0.19183356201171875,0.8648193017578125
-0.40475345703125,-0.16144236083984376,0.7082659765625
-0.33813185546875,-0.15310928955078124,0.5423735205078125
-0.1093328515625,-0.1901179296875,0.5089492626953125
-0.09061072265625,-0.1259042626953125,0.71121517578125
-0.24330548828125,-0.02321141357421875,0.93732044921875
-0.3972159765625,-0.05801424072265625,1.206189111328125
-0.39843169921875,0.033404453125,1.3838783642578125
-0.3339983984375,0.11011772705078125,1.5278975927734375
-0.42590703125,0.10227483642578125,1.486363037109375
-0.42858162109375,0.08119706787109375,1.298597353515625
-0.46213556640625,0.024581201171875,1.14573052734375
-0.38238416015625,0.069677822265625,1.0240760595703124
-0.27783201171875,0.05619785400390625,0.8572005371093749
-0.0937716015625,-0.0523771630859375,0.804606484375
-0.03760521484375,-0.20457825927734374,0.8692431005859375
-0.2503566796875,-0.2445279833984375,0.9284728515625
-0.42031470703125,-0.26879192626953125,0.8225474462890625
-0.32791978515625,-0.26879192626953125,0.6333071630859375
-0.2299325390625,-0.27418391357421873,0.5168137939453125
-0.080641796875,-0.204823349609375,0.5114069287109375
-0.0315266015625,-0.14820748291015626,0.6392055615234375
-0.1881116796875,-0.1200220947265625,0.8461410400390625
-0.397702265625,-0.06928839599609375,1.061678349609375
-0.456056953125,0.030463369140625002,1.144255927734375
-0.3923530859375,0.16256705810546876,1.1386032958984376
-0.23163455078125,0.2083989501953125,1.00416896484375
-0.10471310546875,0.18658591064453126,0.9700074072265625
-0.009886738281250002,0.11403917236328125,0.964354775390625
-0.07991236328125,-0.052867343750000004,0.97467697265625
-0.3189234375,-0.1484525732421875,0.8589209033203125
-0.27102396484375,-0.0719843896484375,0.78002982421875
-0.25351755859375,-0.07615092529296875,0.8476156396484374
-0.39454138671875,-0.057278969726562504,0.8387680419921875
-0.32548833984375003,0.03855135009765625,0.80067421875
-0.24233291015625,0.0064445166015625,0.749554765625
-0.29290697265625,-0.008996174316406251,0.7999369189453125
-0.12951384765625001,0.02433611083984375,0.9100403564453124
-0.10690140625,-0.0259074072265625,1.053813818359375
-0.166228671875,-0.028113220214843748,1.155069658203125
-0.22434021484375,-0.08742508056640624,1.158510390625
-0.25011353515625,-0.061690595703125004,1.0717547802734375
-0.29679728515625,-0.10262068115234375,0.9336339501953125
-0.17619759765625,-0.081297822265625,0.867522734375
-0.12416466796875,-0.07811164794921875,0.92159138671875
-0.23844259765625,-0.08791526123046875,0.9955671337890625
-0.34639876953125,-0.1337471533203125,0.97271083984375
-0.1988100390625,-0.0553182470703125,0.8333611767578125
-0.15723232421875,-0.0631611376953125,0.7512751318359375
-0.08137123046875,-0.0249270458984375,0.7650380615234375
-0.1112780078125,-0.02125069091796875,0.9444476806640625
-0.23357970703125,0.0037485229492187503,1.116730068359375
-0.15139685546875,0.038306259765625,1.14671359375
-0.008671015625,-0.0268877685546875,1.1997991796875
-0.0256911328125,0.03757098876953125,1.3138348828125
-0.22142248046875002,-0.0960032421875,1.4349978173828124
-0.2377131640625,-0.10752248779296875,1.44556578125
-0.2484115234375,-0.261684306640625,1.26173236328125
-0.25862359375,-0.28251698486328125,1.0093300634765625
-0.1171134765625,-0.3033496630859375,0.870963466796875
-0.1321884375,-0.2999183984375,0.8984893261718749
-0.05243703125,-0.26266466796875,0.8515479052734375
-0.13972591796875,-0.2607039453125,0.9370746826171875
-0.1920019921875,-0.173451787109375,0.972219306640625
-0.2289599609375,-0.21977385986328124,0.974185439453125
-0.15334201171875,-0.022476142578125,1.013508095703125
-0.09498732421875,0.00619942626953125,0.9641090087890625
-0.0777240625,0.10276501708984374,1.1302472314453125
-0.210967265625,0.11305881103515625,1.207172177734375
-0.282938046875,-0.0001729223632812504,1.1145181689453125
-0.42323244140625,-0.04183827880859375,1.098051806640625
-0.426879609375,-0.15065838623046876,0.9994993994140625
-0.34250845703125,-0.1857063037109375,0.7699533935546875
-0.1015522265625,-0.18399067138671876,0.6416632275390625
-0.10325423828125,-0.116590830078125,0.6903250146484375
-0.25303126953125,-0.061690595703125004,0.8146829150390625
-0.27053767578125,0.02752228515625,0.978117705078125
-0.26227076171875,0.08609887451171874,1.106899404296875
-0.2843969140625,0.165753232421875,1.2034856787109376
-0.33618669921875,0.14541073486328124,1.2201978076171875
-0.27005138671875,-0.01438816162109375,1.103950205078125
-0.34493990234375,-0.05164189208984375,1.0491442529296875
-0.29752671875000003,-0.1523740185546875,0.8805483642578125
-0.2328502734375,-0.15016820556640625,0.8097675830078125
-0.1599069140625,-0.11683592041015625,0.8132083154296875
-0.1793584765625,-0.10188541015625,0.9341254833984375
-0.2095083984375,-0.20114699462890626,1.0157199951171876
-0.29679728515625,-0.08840544189453126,1.103458671875
-0.331566953125,-0.02737794921875,1.0796193115234376
-0.2085358203125,-0.09967959716796874,0.95796484375
-0.15188314453125001,-0.1357078759765625,0.89504859375
-0.174009296875,-0.16242272216796874,0.9016842919921875
-0.24719580078125,-0.07075893798828126,0.8734211328125
-0.339347578125,-0.0229663232421875,0.757419296875
-0.206104375,0.0280124658203125,0.7242408056640625
-0.1248941015625,-0.02174087158203125,0.9048792578125
-0.22385392578125,0.1250682373046875,1.099034873046875
-0.29582470703125,0.12947986328125,1.1388490625
-0.284883203125,0.0770305322265625,0.9719735400390626
-0.29874244140625,-0.020515419921875,0.7901062548828125
-0.32475890625,-0.0317895751953125,0.843437607421875
-0.3028758984375,-0.07075893798828126,0.949608779296875
-0.228473671875,-0.0847290869140625,1.1845616503906249
-0.14993798828125,-0.08497417724609375,1.2103671435546874
-0.29047552734375,-0.16732452880859375,1.2226554736328126
-0.34348103515625,0.00325834228515625,1.0024485986328124
-0.3320532421875,-0.08448399658203125,0.8245135791015625
-0.25862359375,-0.09918941650390625,0.83901380859375
-0.19637859375,-0.0023787353515625003,0.9577190771484375
-0.0752926171875,-0.006790361328125,1.1329506640625
-0.1443456640625,-0.11487519775390626,1.3020380859375
-0.3359435546875,-0.01634888427734375,1.217494375
-0.3694975,0.0682072802734375,0.937811982421875
-0.41058892578125,-0.0092412646484375,0.853268271484375
-0.2659179296875,-0.0700236669921875,0.8333611767578125
-0.16452666015625,-0.15801109619140624,0.873912666015625
-0.1112780078125,-0.13007079833984375,0.8171405810546875
-0.18495080078125,-0.19722554931640626,0.770690693359375
-0.11541146484375,-0.2293323828125,0.8377849755859375
-0.14410251953125,-0.20653898193359374,1.038084755859375
-0.34421046875,-0.079337099609375,1.191443115234375
-0.294608984375,-0.09624833251953124,1.209138310546875
-0.32791978515625,-0.0670825830078125,1.185544716796875
-0.263486484375,-0.018554697265625,1.045949287109375
-0.2260422265625,0.02237538818359375,0.9587021435546875
-0.10519939453125,0.04394333740234375,0.9316678173828125
-0.2065906640625,0.021885207519531248,1.056271484375
-0.23990146484375,-0.028358310546875,1.117713134765625
-0.240144609375,-0.02664267822265625,1.137374462890625
-0.18738224609375,-0.0494360791015625,0.987948369140625
-0.19905318359375002,-0.06340622802734375,0.80853875
-0.166228671875,-0.10997339111328125,0.7065456103515625
-0.13243158203125,-0.1464918505859375,0.6814774169921874
-0.1414279296875,-0.142080224609375,0.810013349609375
-0.26154132812499997,-0.085219267578125,0.8540055712890625
-0.2766162890625,-0.1023755908203125,0.7987080859375
-0.19321771484375,-0.0690433056640625,0.8171405810546875
-0.20488865234375,0.00227798095703125,0.86850580078125
-0.18786853515625002,0.0907555908203125,0.966320908203125
-0.082586953125,0.02335574951171875,1.1368829296875
-0.080641796875,0.10864718505859375,1.2575543310546875
-0.08428896484375001,0.161831787109375,1.2673849951171876
-0.24865466796875,0.0652661962890625,1.2236385400390626
-0.39065107421875,0.032424091796875,1.1037044384765624
-0.37703498046875,-0.00507472900390625,0.9739396728515625
-0.31916658203125,-0.0072805419921875,0.91372685546875
-0.14556138671875,-0.20212735595703124,0.871455
-0.044899550781250006,-0.13644314697265625,0.8982435595703124
-0.10276794921875,0.008895419921875,0.926015185546875
-0.11152115234375,-0.03840701416015625,0.954032578125
-0.2017277734375,-0.008751083984375,1.0732293798828125
-0.2396583203125,0.05889384765625,1.29319048828125
-0.323786328125,-0.06879821533203125,1.400836259765625
-0.37946642578125,-0.0670825830078125,1.2678765283203126
-0.40718490234375,-0.09477779052734375,0.998762099609375
-0.257651015625,-0.2435476220703125,0.7335799365234374
-0.1171134765625,-0.25702759033203126,0.5568737500000001
-0.05219388671875,-0.232273466796875,0.4779826708984375
-0.037362070312499995,-0.21977385986328124,0.5411446875
-0.05851564453125,-0.25065524169921877,0.6571465234375
-0.09304216796875,-0.2876638818359375,0.8181236474609375
-0.13607875,-0.37320040771484375,1.0353813232421876
-0.2221519140625,-0.3687887817382812,1.166866455078125
-0.3262177734375,0.01747358154296875,1.1287726318359375
-0.31430369140625003,0.12874459228515625,1.1604765234375
-0.25692158203125,0.02776737548828125,1.070525947265625
-0.17473873046875,-0.01830960693359375,1.0265337255859375
-0.26470220703125,0.04100225341796875,1.0009739990234374
-0.1803310546875,0.0686974609375,1.0633987158203124
-0.27296912109375,0.07384435791015626,1.2745122265625
-0.3408064453125,-0.023456503906250002,1.4128788232421874
-0.48499115234375,-0.060710234375,1.479481572265625
-0.36390517578125,-0.02762303955078125,1.213070576171875
-0.13000013671875,-0.098944326171875,1.063644482421875
-0.1929745703125,-0.128355166015625,0.9763973388671875
-0.1317021484375,-0.16144236083984376,0.9547698779296875
-0.2591098828125,-0.11634573974609375,0.9405154150390624
-0.3048210546875,-0.10458140380859375,0.8628531689453125
-0.12708240234375,-0.13889405029296875,0.8235305126953125
-0.018396796875,-0.10850284912109374,0.9677955078125
-0.10617197265625,-0.1822750390625,1.1474508935546874
-0.2756437109375,-0.16585398681640626,1.320224814453125
-0.33472783203125,-0.114630107421875,1.353649072265625
-0.455084375,-0.10065995849609374,1.217985908203125
-0.32111173828125,-0.0435539111328125,0.9587021435546875
-0.3271903515625,0.0064445166015625,0.8446664404296875
-0.3500459375,0.00791505859375,0.750046298828125
-0.070916015625,0.05472731201171875,0.78494515625
0.00980796875,0.046149150390625,0.97074470703125
-0.11930177734375,-0.00801581298828125,1.2049602783203124
-0.26859251953125,-0.19477464599609376,1.32858087890625
-0.24525064453125,-0.1523740185546875,1.2467406005859374
-0.29752671875000003,-0.089140712890625,1.06511908203125
-0.3656071875,-0.1092381201171875,1.091170341796875
-0.380195859375,-0.108747939453125,1.0329236572265625
-0.273212265625,-0.18448085205078124,0.8554801708984375
-0.17571130859375,-0.1631579931640625,0.6500192919921874
-0.1180860546875,-0.1719812451171875,0.5256613916015624
-0.1278118359375,-0.09428760986328125,0.634044462890625
-0.0305540234375,0.05570767333984375,0.7665126611328125
-0.03322861328125,0.030708459472656248,1.0049062646484375
-0.20415921875,0.05497240234375,1.3288266455078124
-0.29387955078125,0.0760501708984375,1.39837859375
-0.23309341796875,0.065756376953125,1.270088427734375
-0.3057936328125,0.08634396484375,1.035135556640625
-0.23601115234375,-0.0229663232421875,0.8505648388671875
-0.15334201171875,-0.09232688720703125,0.8220559130859375
-0.19273142578125,-0.0327699365234375,0.8112421826171875
-0.2542469921875,-0.10360104248046875,0.7276815380859375
-0.27515742187500003,-0.1572758251953125,0.6195442333984374
-0.1093328515625,-0.1935491943359375,0.5325428564453125
0.02220833984375,-0.13129625,0.5340174560546875
-0.014506484375,-0.083258544921875,0.5546618505859375
0.0020273437500000005,-0.1268846240234375,0.6161035009765625
0.0589231640625,-0.116590830078125,0.7429190673828125
0.03704015625,0.00423870361328125,0.8183694140625
-0.00502384765625,0.030463369140625002,0.8982435595703124
-0.01620849609375,0.08953013916015624,1.0830600439453124
-0.057543066406249996,0.07090327392578125,1.2998261865234375
0.045793359374999995,0.026296833496093748,1.6080175048828125
-0.0305540234375,0.34589462646484376,1.7603927978515626
-0.2523018359375,0.4753023217773438,1.6266957666015625
-0.33472783203125,0.38657962158203124,1.334970810546875
-0.46164927734375,0.22236909912109376,1.1666206884765624
-0.55987966796875,0.11379408203125,1.0857634765625
-0.6004848046875,0.07237381591796875,0.893573994140625
-0.53848294921875,-0.05654369873046875,0.6274087646484375
-0.2221519140625,-0.17026561279296876,0.5276275244140625
-0.0237459765625,-0.136198056640625,0.480686103515625
-0.0011335351562500005,-0.1455114892578125,0.474296171875
0.036067578125,-0.2504101513671875,1.076424345703125
-0.009643593750000002,-0.36682805908203125,1.5406774560546874
-0.12513724609375,-0.5464792724609375,1.796028955078125
-0.34542619140624997,0.32677758056640627,1.437209716796875
-0.45289607421875,0.295160927734375,1.340869208984375
-0.47040248046875,0.28903366943359377,1.26959689453125
-0.52194912109375,0.25128975830078126,1.2762325927734375
-0.5110076171875,0.291239482421875,1.2369099365234375
-0.48645001953125,0.28315150146484375,1.18308705078125
-0.221665625,0.25815228759765624,1.1621968896484376
-0.0932853125,0.05889384765625,1.2413337353515626
-0.0500055859375,-0.0670825830078125,1.2231470068359376
0.03971474609375,-0.09771887451171875,1.2354353369140625
-0.0266637109375,-0.20016663330078124,1.2423168017578126
-0.23990146484375,-0.226391298828125,1.06806828125
-0.34226531250000003,-0.20212735595703124,0.8365561425781249
-0.31989601562500003,-0.196980458984375,0.7365291357421875
-0.2561921484375,-0.21952876953125,0.669434853515625
-0.25886673828125,-0.2553119580078125,0.6446124267578125
-0.2338228515625,-0.2621744873046875,0.6549346240234375
-0.1633109375,-0.187176845703125,0.6804943505859375
-0.30798193359375,-0.139139140625,0.81148794921875
-0.2960678515625,-0.106787216796875,0.945676513671875
-0.1385101953125,-0.10727739746093751,1.1508916259765625
-0.096203046875,-0.0562986083984375,1.380191865234375
-0.09644619140624999,-0.0925719775390625,1.3450472412109375
-0.0850183984375,-0.12222790771484375,1.1705529541015625
-0.2416034765625,-0.14232531494140624,1.01203349609375
-0.36682291015625,-0.136198056640625,0.8653108349609375
-0.40572603515625,-0.09404251953125001,0.803131884765625
-0.2678630859375,-0.0170841552734375,0.7871570556640625
-0.27515742187500003,-0.055808427734375,0.858183603515625
-0.35393625,-0.04968116943359375,0.9311762841796875
-0.35077537109375,0.0137972265625,1.0127707958984375
-0.397702265625,0.065756376953125,1.071509013671875
-0.3189234375,0.0907555908203125,1.02383029296875
-0.33424154296874997,0.0486000537109375,1.064136015625
-0.31527626953125,0.07237381591796875,1.1484339599609374
-0.298499296875,0.0069346972656249995,1.0653648486328124
-0.3972159765625,0.073599267578125,0.9206083203125
-0.28609892578125,-0.04428918212890625,0.7188339404296875
-0.32354318359375,-0.096983603515625,0.6898334814453125
-0.33253953125,-0.11144393310546875,0.6569007568359375
-0.392839375,-0.15801109619140624,0.69548611328125
-0.31333111328125,-0.2190385888671875,0.749063232421875
-0.39551396484375,-0.1857063037109375,0.763809228515625
-0.3631757421875,-0.0906112548828125,0.72497810546875
-0.37217208984375,-0.12614935302734376,0.6303579638671875
-0.300444453125,-0.14379585693359376,0.588823408203125
-0.3106565234375,-0.120512275390625,0.5128815283203125
-0.315033125,-0.0866898095703125,0.4288293505859375
-0.2824517578125,-0.05409279541015625,0.3189716796875
-0.22871681640625,-0.0082609033203125,0.2912000537109375
-0.12173322265625,0.04394333740234375,0.37107419921875
0.0025136328124999996,0.0348749951171875,0.5217291259765625
0.098312578125,0.024581201171875,0.9641090087890625
0.23082634765624999,0.2137909375,1.6881374169921874
-0.55647564453125,-0.0955130615234375,1.9334124853515624
-0.6325798828125,-0.10065995849609374,1.7240193408203126
-0.33983386718749997,-0.03497574951171875,1.22437583984375
-0.39843169921875,-0.2455083447265625,1.127543798828125
-0.341292734375,-0.09477779052734375,1.4826765380859375
-0.17473873046875,0.019434304199218752,1.39739552734375
-0.3694975,-0.1523740185546875,1.1961126806640625
-0.35806970703125,-0.14771730224609375,0.894557060546875
-0.15674603515625,-0.29795767578125,0.768724560546875
0.039957890625,-0.1533543798828125,0.9191337207031249
-0.146777109375,0.1387932958984375,1.213562109375
-0.3500459375,0.2397705126953125,1.3479964404296876
-0.26154132812499997,0.077520712890625,1.2364184033203125
-0.3826273046875,0.011346323242187501,1.148188193359375
-0.23139140625,-0.159726728515625,1.0486527197265625
-0.05851564453125,-0.12663953369140624,1.1907058154296875
-0.2445212109375,-0.1592365478515625,1.354632138671875
-0.22579908203125,-0.14428603759765624,1.2723003271484374
-0.312115390625,-0.19134338134765624,1.13589986328125
-0.2921775390625,-0.0719843896484375,1.3361996435546875
-0.36366203125,0.0338946337890625,1.3627424365234375
-0.455084375,0.03144373046875,1.182595517578125
-0.3388612890625,0.095167216796875,1.0346440234375
-0.2824517578125,0.18168410400390625,0.868014267578125
-0.26616107421875,0.19687970458984375,0.8245135791015625
-0.2600824609375,0.216732021484375,0.76626689453125
-0.20877896484375,0.2172222021484375,0.7611057958984375
-0.27345541015625,0.19786006591796876,0.8603955029296875
-0.34785763671875003,0.02237538818359375,1.051847685546875
-0.33424154296874997,-0.098944326171875,1.134916796875
-0.3719289453125,-0.076396015625,1.19684998046875
-0.39697283203125,-0.14698203125,1.180629384765625
-0.35466568359375,-0.16854998046875,1.1164843017578125
-0.3223274609375,-0.11193411376953125,0.9847534033203125
-0.28391062499999997,-0.14379585693359376,0.90389619140625
-0.25473328125,-0.19379428466796875,0.8446664404296875
-0.1579617578125,-0.1587463671875,0.7473428662109375
-0.20002576171875,-0.20653898193359374,0.719571240234375
-0.15188314453125001,-0.22026404052734375,0.66402798828125
-0.20537494140625,-0.23742036376953124,0.666485654296875
-0.26810623046875,-0.25065524169921877,0.656654990234375
-0.2163164453125,-0.26266466796875,0.67975705078125
-0.273212265625,-0.23545964111328124,0.8141913818359375
-0.35369310546875,-0.10752248779296875,1.0653648486328124
-0.39210994140625,-0.098944326171875,1.171781787109375
-0.38141158203125003,-0.04477936279296875,1.2383845361328125
-0.4633512890625,0.067717099609375,1.3089195507812499
-0.41982841796875,0.06355056396484375,1.189476982421875
-0.380195859375,0.0427178857421875,1.0093300634765625
-0.27394169921875,0.0544822216796875,0.8490902392578125
-0.137051328125,0.06845237060546874,0.816894814453125
-0.07893978515625,-0.006790361328125,0.89799779296875
-0.20099833984375,0.055952763671875,1.064136015625
-0.2834243359375,-0.04526954345703125,1.1022298388671874
-0.25205869140625,-0.06267095703125,1.058729150390625
-0.2795340234375,-0.04134809814453125,0.926998251953125
-0.22044990234375,-0.13203152099609375,0.850319072265625
-0.2416034765625,-0.14379585693359376,0.9520664453125
-0.29387955078125,-0.11536537841796875,1.1032129052734374
-0.44292714843750003,-0.10360104248046875,1.1381117626953126
-0.36098744140625,-0.106787216796875,1.0857634765625
-0.29339326171875,-0.02860340087890625,1.0228472265625
-0.24136033203125,-0.06879821533203125,0.95698177734375
-0.26421591796875,-0.0474753564453125,0.897506259765625
-0.19224513671875,-0.06634731201171876,0.7672499609375
-0.10033650390625,-0.0749254736328125,0.7178508740234375
-0.084532109375,-0.08840544189453126,0.7945300537109374
-0.23139140625,-0.03129939453125,0.91176072265625
-0.20464550781250002,-0.10997339111328125,0.989914501953125
-0.28391062499999997,-0.0298288525390625,1.048406953125
-0.374360390625,-0.04330882080078125,0.93437125
-0.4001337109375,-0.04306373046875,0.8677685009765626
-0.36293259765625,-0.08644471923828125,0.80558955078125
-0.31624884765625,-0.106787216796875,0.7788009912109375
-0.269321953125,-0.11438501708984375,0.76921609375
-0.15747546875,-0.1513936572265625,0.798216552734375
-0.19346085937500002,-0.0739451123046875,0.7905977880859375
-0.20099833984375,-0.030319033203124998,0.6741044189453125
-0.11443888671875,0.0074248779296875,0.6610787890625
-0.089395,-0.0268877685546875,0.718096640625
-0.13972591796875,-0.09771887451171875,0.90193005859375
-0.26227076171875,-0.03840701416015625,1.0619241162109374
-0.29387955078125,-0.0553182470703125,1.032186357421875
-0.24233291015625,-0.1268846240234375,0.892590927734375
-0.30311904296875003,0.00521906494140625,0.87243806640625
-0.2386857421875,-0.067572763671875,0.8672769677734375
-0.2688356640625,-0.06781785400390625,1.0624156494140624
-0.41253408203124997,0.011346323242187501,1.1341794970703125
-0.3748466796875,-0.02517213623046875,1.09067880859375
-0.378250703125,-0.013162709960937501,0.952557978515625
-0.20464550781250002,0.02286556884765625,0.8267254785156251
-0.10860341796875,0.07188363525390624,0.866048134765625
-0.21655958984375,0.08658905517578125,1.040542421875
-0.2318776953125,0.09002031982421875,1.1322133642578125
-0.30311904296875003,0.11698025634765626,1.0692971142578125
-0.31430369140625003,0.020659755859375,0.9815584374999999
-0.37119951171875,0.026051743164062502,0.936828916015625
-0.23406599609375,-0.048455717773437504,0.9803296044921875
-0.3252451953125,-0.01830960693359375,1.1705529541015625
-0.4964189453125,0.034384814453125,1.2555881982421875
-0.57787236328125,-0.02223105224609375,1.1808751513671876
-0.47623794921875,-0.05899460205078125,0.98942296875
-0.31478998046875,-0.02762303955078125,0.8274627783203125
-0.11322316406249999,0.02482629150390625,0.76036849609375
-0.06532369140625,0.00668960693359375,0.8970147265625
-0.2561921484375,-0.02370159423828125,1.0093300634765625
-0.22361078125,-0.1023755908203125,1.1017383056640626
-0.32646091796875,-0.136198056640625,1.1840701171874999
-0.31989601562500003,-0.1808044970703125,1.06020375
-0.2707808203125,-0.226391298828125,0.9321593505859375
-0.333512109375,-0.20163717529296876,0.8510563720703125
-0.37411724609375,-0.1161006494140625,0.820827080078125
-0.4040240234375,-0.0180645166015625,0.8692431005859375
-0.43757796875,-0.0210056005859375,0.9675497412109375
-0.29874244140625,0.021885207519531248,1.0555341845703126
-0.24816837890625,-0.0082609033203125,1.1290183984375
-0.1783858984375,-0.13007079833984375,1.1459762939453124
-0.15066742187499998,-0.08007237060546875,1.1651460888671874
-0.2800203125,-0.09673851318359375,1.1408151953125
-0.31041337890625,-0.08889562255859375,1.1518746923828125
-0.37849384765625,-0.10703230712890625,1.0348897900390626
-0.30555048828125,-0.04428918212890625,0.925032119140625
-0.230418828125,-0.048455717773437504,0.9208540869140625
-0.23260712890625002,-0.02517213623046875,0.9257694189453125
-0.28658521484375,0.009140510253906251,1.039067822265625
-0.28318119140625,-0.03693647216796875,1.18505318359375
-0.34153587890625,-0.03693647216796875,1.26566462890625
-0.34202216796875,0.00423870361328125,1.1833328173828126
-0.35101851562499997,0.0652661962890625,1.0707717138671875
-0.34104958984375,0.0309535498046875,1.0425085546875
-0.2736985546875,0.02237538818359375,1.04152548828125
-0.26227076171875,-0.089140712890625,1.0904330419921875
-0.20537494140625,-0.14698203125,1.1872650830078124
-0.17619759765625,-0.12663953369140624,1.0717547802734375
-0.19273142578125,-0.16732452880859375,0.9127437890625
-0.2036729296875,-0.24624361572265624,0.9820499707031249
-0.2163164453125,-0.26732138427734375,1.0756870458984376
-0.33959072265625,-0.2631548486328125,1.0575003173828126
-0.29752671875000003,-0.18742193603515625,0.9886856689453125
-0.30141703125,-0.1151202880859375,0.94715111328125
-0.255705859375,-0.1494329345703125,0.88423486328125
-0.33570041015625,-0.13938423095703126,0.9267524853515625
-0.32840607421875,-0.12761989501953125,0.83213234375
-0.20245720703125,-0.13889405029296875,0.7561904638671875
-0.10301109375,-0.11634573974609375,0.7212916064453125
-0.09061072265625,-0.170510703125,0.755944697265625
-0.146777109375,-0.09526797119140624,0.8773533984374999
-0.21412814453125,-0.22026404052734375,0.8766160986328125
-0.31916658203125,-0.1141399267578125,0.8557259375
-0.35077537109375,-0.07419020263671874,0.761843095703125
-0.331566953125,-0.12909043701171874,0.739232568359375
-0.29971501953125,-0.07124911865234375,0.6549346240234375
-0.15431458984375,-0.12811007568359375,0.60701013671875
-0.1073876953125,-0.091101435546875,0.6908165478515624
-0.2824517578125,-0.09771887451171875,0.74267330078125
-0.24573693359375,-0.05556333740234375,0.8186151806640625
-0.1482359765625,-0.05164189208984375,0.89996392578125
-0.16647181640625,0.0456589697265625,0.9980247998046875
-0.1297569921875,0.11894097900390625,1.027271025390625
-0.12343523437500001,0.101049384765625,1.1022298388671874
-0.1958923046875,0.1005592041015625,1.127543798828125
-0.282938046875,0.11550971435546875,1.1449932275390624
-0.259596171875,0.10276501708984374,1.172764853515625
-0.3670660546875,0.07384435791015626,1.1405694287109376
-0.3466419140625,0.081442158203125,1.0742124462890625
-0.3267040625,0.093206494140625,1.0447204541015624
-0.366579765625,0.0946770361328125,1.0260421923828125
-0.3135742578125,0.069677822265625,1.042017021484375
-0.29387955078125,0.01698340087890625,1.079373544921875
-0.339347578125,-0.0925719775390625,1.0619241162109374
-0.185680234375,-0.1033559521484375,1.106899404296875
-0.11930177734375,-0.1690401611328125,1.0884669091796875
-0.0490330078125,-0.17026561279296876,1.127052265625
-0.1710915625,-0.15286419921875,1.221426640625
-0.2805066015625,-0.12761989501953125,1.1720275537109375
-0.3811684375,-0.0621807763671875,1.1835785839843749
-0.386031328125,-0.0435539111328125,1.2295369384765624
-0.3962433984375,-0.0876701708984375,1.211104443359375
-0.36439146484375,-0.12173772705078124,1.1666206884765624
-0.3495596484375,-0.20114699462890626,1.0383305224609374
-0.26859251953125,-0.244037802734375,0.8392595751953125
-0.17619759765625,-0.23129310546875,0.668451787109375
-0.17960162109375,-0.22712656982421875,0.63060373046875
-0.16452666015625,-0.26143921630859374,0.7458682666015625
-0.2177753125,-0.2857031591796875,0.9124980224609375
-0.3116291015625,-0.26634102294921874,1.075441279296875
-0.3028758984375,-0.19477464599609376,1.0186691943359376
-0.3233000390625,-0.06340622802734375,0.97467697265625
-0.33375525390625,-0.02027032958984375,0.9763973388671875
-0.28196546875,-0.0494360791015625,0.9700074072265625
-0.28464005859375,-0.0308092138671875,1.0648733154296874
-0.25643529296875,0.057668395996093746,1.1115689697265625
-0.2843969140625,0.0858537841796875,1.0098215966796875
-0.244034921875,0.0686974609375,0.9695158740234375
-0.2766162890625,0.03021827880859375,0.972219306640625
-0.228473671875,-0.0092412646484375,1.1390948291015626
-0.2484115234375,-0.05164189208984375,1.2452660009765626
-0.31430369140625003,0.0005623486328125002,1.188493916015625
-0.21947732421875,0.026051743164062502,1.0707717138671875
-0.19516287109375,-0.0464949951171875,1.038084755859375
-0.27831830078124997,0.02335574951171875,1.075441279296875
-0.37411724609375,-0.0092412646484375,1.087729609375
-0.3281629296875,0.09100068115234375,1.106899404296875
-0.30555048828125,0.05129604736328125,1.12606919921875
-0.23698373046875,-0.010221625976562499,1.1916888818359375
-0.19710802734375,-0.02958376220703125,1.1644087890625
-0.14361623046875,-0.05017135009765625,1.01989802734375
-0.16063634765625,-0.09012107421875,0.965829375
-0.24962724609375,-0.18006922607421874,1.0108046630859375
-0.24379177734375002,-0.15678564453125,1.0083469970703125
-0.343237890625,-0.21879349853515626,0.9454307470703125
-0.3874901953125,-0.2347243701171875,0.756927763671875
-0.2698082421875,-0.269527197265625,0.626179931640625
-0.1555303125,-0.281291533203125,0.516076494140625
-0.1161408984375,-0.25874322265625,0.5472888525390625
-0.063135390625,-0.2259011181640625,0.6392055615234375
-0.15139685546875,-0.13448242431640625,0.772656826171875
-0.24768208984375,-0.06340622802734375,0.971236240234375
-0.30992708984375,0.055462583007812497,1.148188193359375
-0.31478998046875,0.14835181884765625,1.209138310546875
-0.341292734375,0.19050735595703125,1.13000146484375
-0.26081189453125,0.18364482666015625,1.02186416015625
-0.25594900390624997,0.0927163134765625,0.9508376123046876
-0.26275705078125,0.10374537841796876,0.961897109375
-0.2377131640625,0.04982550537109375,0.9473968798828125
-0.26616107421875,-0.01438816162109375,0.8746499658203125
-0.323786328125,-0.046249904785156254,0.8107506494140625
-0.23941517578125,-0.02762303955078125,0.7330884033203124
-0.18786853515625002,-0.00581,0.7443936669921875
-0.22239505859375,0.03757098876953125,0.7227662060546876
-0.265431640625,0.00963069091796875,0.7178508740234375
