ax,ay,az
-0.3748466796875,0.08364797119140625,1.1037044384765624
-0.032012890625,-0.03914228515625,0.68958771484375
-0.0694571484375,-0.0053198193359375,0.942727314453125
-0.533863203125,-0.2053135302734375,1.2270792724609374
-0.411318359375,-0.06879821533203125,1.410666923828125
-0.2279873828125,-0.03938737548828125,1.54092322265625
-0.17376615234375,0.23168253173828124,1.5293721923828125
-0.1414279296875,0.08756941650390625,1.6650353564453124
-0.62747384765625,-0.02174087158203125,1.9034289599609375
-0.15139685546875,0.05178622802734375,1.383141064453125
-0.37314466796875,-0.13399224365234375,1.1218911669921874
-0.13802390625,-0.0337502978515625,1.0683140478515625
-0.1151683203125,-0.08889562255859375,0.894557060546875
-0.04684470703125,0.083402880859375,0.730384970703125
-0.19564916015625,0.04492369873046875,0.6500192919921874
-0.18689595703125,-0.14575657958984375,0.563263681640625
-0.0743200390625,-0.212666240234375,0.510178095703125
-0.07310431640625001,-0.2327636474609375,0.645841259765625
-0.3067662109375,-0.228352021484375,0.6392055615234375
-0.08380267578125,-0.26977228759765626,0.5949675732421875
-0.33083751953125,-0.1504132958984375,0.7070371435546875
-0.41593810546875,0.0530116796875,0.73480876953125
-0.29679728515625,0.2554562939453125,0.8726838330078125
-0.2707808203125,0.39883413818359376,1.4433538818359375
-0.2085358203125,0.501036806640625,1.74933330078125
-0.12513724609375,0.3819229052734375,1.6704422216796875
-0.31722142578125,0.00178780029296875,1.4947191015625
-0.32013916015625,0.05668803466796875,1.178663251953125
-0.24816837890625,-0.1509034765625,0.7217831396484375
-0.0645942578125,-0.17369687744140624,0.5782554443359375
0.067190078125,-0.046249904785156254,0.6657483544921875
-0.29144810546875,0.1000690234375,1.0747039794921875
-0.570821171875,0.08168724853515624,1.0201437939453124
-0.60364568359375,-0.08448399658203125,0.8844806298828125
-0.38238416015625,0.12555841796875,0.736283369140625
-0.2931501171875,-0.08889562255859375,0.5571195166015624
-0.0645942578125,-0.1376685986328125,0.4558636767578125
-0.03711892578125,-0.15752091552734376,0.5502380517578125
-0.07942607421875,-0.19722554931640626,0.6844266162109375
-0.26664736328125,-0.122472998046875,0.8849721630859375
-0.25157240234375,-0.1509034765625,0.955507177734375
-0.09109701171875,-0.14502130859375,0.914218388671875
-0.066053125,-0.01830960693359375,0.81345408203125
-0.29169125,0.091245771484375,0.650756591796875
-0.34104958984375,-0.06144550537109375,0.601603271484375
-0.3281629296875,-0.11487519775390626,0.4411176806640625
-0.33642984375,-0.1759026904296875,0.458075576171875
-0.103983671875,-0.0729647509765625,0.5998829052734375
-0.053409609375,0.10129447509765625,0.7183424072265625
-0.37654869140625,0.10570610107421875,0.72104583984375
-0.41253408203124997,0.12041152099609376,0.78592822265625
-0.282938046875,-0.052867343750000004,0.71711357421875
-0.100093359375,-0.14036459228515624,0.9729566064453125
-0.2357680078125,-0.03154448486328125,0.9700074072265625
-0.06751199218750001,-0.068553125,0.862115869140625
-0.329621796875,-0.09379742919921875,0.801165751953125
-0.2805066015625,-0.10580685546875,0.871455
-0.41788326171875,-0.05703387939453125,0.7318595703125
-0.46067669921875,-0.0700236669921875,0.6844266162109375
-0.21899103515625,0.16158669677734375,0.5684247802734375
-0.11079171875,0.01012087158203125,0.5168137939453125
-0.1900568359375,0.016738310546875,0.7901062548828125
-0.35588140625,-0.08350363525390625,0.9709904736328125
-0.36147373046875,-0.079337099609375,1.1425355615234376
-0.308225078125,-0.0876701708984375,1.2418252685546876
-0.1433730859375,0.1133039013671875,1.0889584423828125
-0.0879361328125,-0.08938580322265625,1.0425085546875
-0.35806970703125,-0.1464918505859375,1.03169482421875
-0.252788125,0.09737302978515625,1.0678225146484375
-0.39794541015625,0.08119706787109375,1.133442197265625
-0.50930560546875,0.07727562255859374,1.105916337890625
-0.2644590625,0.1035002880859375,0.9636174755859375
-0.240144609375,-0.20972515625,0.7741314257812499
-0.27515742187500003,-0.2670762939453125,0.67385865234375
-0.1015522265625,-0.1435507666015625,0.777572158203125
-0.24768208984375,-0.16928525146484374,0.947642646484375
-0.30749564453125,-0.11487519775390626,1.2103671435546874
-0.51538421875,-0.07051384765625,1.271071494140625
-0.34396732421875,0.0613447509765625,1.0978060400390626
-0.27199654296875,0.17531175537109375,0.944693447265625
-0.23552486328125,0.24344686767578125,0.968287041015625
-0.17133470703125,-0.0043394580078125,1.2147909423828125
-0.1735230078125,-0.10654212646484375,1.18898544921875
-0.24281919921875,-0.14036459228515624,1.0700344140625
-0.26956509765625,-0.0063001806640625,0.9498545458984375
-0.18495080078125,-0.0646316796875,0.8756330322265625
-0.25473328125,0.11550971435546875,0.801165751953125
-0.46456701171875,0.06281529296875,0.9523122119140625
-0.28585578125,0.13462676025390624,1.28335982421875
-0.15917748046875,0.01183650390625,1.50848203125
-0.18884111328125,0.04884514404296875,1.6399671630859376
-0.0801555078125,0.15815543212890626,1.7721895947265625
-0.504685859375,0.04100225341796875,1.8872083642578126
-0.64887056640625,0.08560869384765625,1.8709877685546874
-0.59319046875,-0.01634888427734375,1.5328129248046876
-0.469673046875,-0.00507472900390625,1.1582646240234376
-0.05900193359375,-0.01169216796875,0.8461410400390625
0.055519140625,-0.092081796875,0.74267330078125
0.037526445312500004,-0.1151202880859375,0.9891772021484375
-0.16355408203125,-0.19207865234375,1.4123872900390624
-0.3811684375,-0.048455717773437504,1.732129638671875
-0.53605150390625,0.026296833496093748,1.714434443359375
-0.63039158203125,0.0868341455078125,1.205697578125
-0.2746711328125,0.026541923828125,0.8299204443359375
-0.037848359375,-0.22222476318359374,0.6888504150390625
-0.2357680078125,-0.0023787353515625003,0.671400986328125
-0.2075632421875,0.05497240234375,0.7178508740234375
-0.30895451171875,-0.05605351806640625,0.8655566015625
-0.3189234375,0.1289896826171875,1.087729609375
-0.2775888671875,-0.04428918212890625,1.212087509765625
-0.37922328125,-0.02737794921875,1.2265877392578124
-0.13097271484375,0.18315464599609374,0.999745166015625
-0.25059982421875,-0.02149578125,0.6903250146484375
-0.14215736328125,-0.01978014892578125,0.72104583984375
-0.20026890625,0.097127939453125,0.8456495068359375
-0.4390368359375,-0.0229663232421875,0.9990078662109375
-0.28391062499999997,-0.063651318359375,0.953541044921875
-0.1842213671875,-0.16291290283203125,0.7751144921875
-0.11346630859375,-0.31830017333984373,0.7955131201171874
-0.242089765625,-0.3523677294921875,0.9414984814453125
-0.29193439453125003,-0.32148634765625,0.82525087890625
-0.30871136718750003,-0.0018885546875000003,0.8756330322265625
-0.4487626171875,-0.1587463671875,0.8977520263671875
-0.24622322265625,0.0843832421875,1.0299744580078125
-0.1783858984375,0.201046240234375,0.9724650732421874
-0.220693046875,0.18364482666015625,0.863098935546875
-0.22871681640625,-0.016593974609375,0.7168678076171875
-0.18081734375,0.06355056396484375,0.764792294921875
-0.08039865234375,0.019679394531249998,0.87243806640625
-0.39089421875,-0.1788437744140625,0.9493630126953125
-0.33108066406250003,-0.02370159423828125,1.1290183984375
-0.4195852734375,0.0897752294921875,1.2005364794921876
-0.2941226953125,0.1113431787109375,1.0850261767578124
-0.22288134765625,0.2731027978515625,1.0825685107421874
-0.19321771484375,0.05129604736328125,0.914218388671875
-0.21461443359375,-0.0474753564453125,0.79969115234375
-0.08574783203125,-0.03203466552734375,0.7004014453125
-0.07869664062500001,-0.189137568359375,0.7016302783203126
-0.1633109375,-0.17173615478515625,0.775606025390625
-0.37071322265625,-0.0396324658203125,0.76036849609375
-0.30895451171875,-0.12516899169921875,0.6721382861328125
-0.25497642578125,-0.05115171142578125,0.6200357666015625
-0.20342978515625,-0.18791211669921876,0.4824064697265625
-0.080641796875,-0.00409436767578125,0.5384412548828125
-0.29436583984375,0.030463369140625002,0.686146982421875
-0.19467658203125,0.020659755859375,0.844420673828125
-0.22677166015625,0.05178622802734375,0.948625712890625
-0.206104375,0.1172253466796875,1.0503730859375
-0.0927990234375,0.1044806494140625,1.150154326171875
-0.44365658203125,0.14786163818359374,1.36003900390625
-0.4020788671875,-0.00752563232421875,1.352666005859375
-0.26129818359375,-0.18644157470703124,1.18898544921875
-0.27783201171875,-0.0788469189453125,1.05332228515625
-0.22434021484375,-0.23153819580078125,1.009575830078125
-0.267376796875,-0.118551552734375,1.0157199951171876
-0.53094546875,-0.114630107421875,1.0275167919921875
-0.40183572265625,-0.1866866650390625,0.895540126953125
-0.2260422265625,-0.16070708984375,0.6337986962890625
-0.16185207031249998,-0.134237333984375,0.5438481201171875
-0.1560166015625,0.04688442138671875,0.511161162109375
-0.19346085937500002,0.0436982470703125,0.302751083984375
-0.242089765625,0.02237538818359375,0.3747606982421875
-0.011831894531250001,-0.010711806640625,0.636010595703125
-0.09936392578125,-0.08963089355468751,1.077407412109375
-0.3991611328125,-0.014633251953124999,1.6166193359375
-0.49034033203125,0.021885207519531248,1.7967662548828125
-0.4779399609375,-0.12369844970703125,1.5013547998046874
-0.2795340234375,-0.05874951171875,1.0329236572265625
-0.280992890625,-0.10605194580078126,0.8687515673828125
-0.37533296875,-0.067572763671875,0.8372934423828124
-0.32548833984375003,0.09810830078125,0.8616243359375
-0.1375376171875,0.0878145068359375,0.8589209033203125
-0.12951384765625001,0.01257177490234375,0.8815314306640625
-0.19346085937500002,-0.0974737841796875,0.96288017578125
-0.09985021484375001,0.0456589697265625,1.0987891064453126
-0.292663828125,-0.16634416748046876,1.1931634814453125
-0.22288134765625,-0.0567887890625,1.319241748046875
-0.35199109375,0.00399361328125,1.4512184130859376
-0.43004048828125,0.07261890625,1.3976412939453124
-0.43684853515625,0.11943115966796874,1.3047415185546876
-0.520247109375,-0.06291604736328126,1.23813876953125
-0.29436583984375,0.01453249755859375,1.12017080078125
-0.27977716796875,-0.052867343750000004,0.9528037451171875
-0.29387955078125,-0.01953505859375,0.94223578125
-0.2406308984375,0.01747358154296875,0.8195982470703125
-0.0011335351562500005,-0.032279755859375,0.697943779296875
-0.02933830078125,0.04884514404296875,0.745130966796875
-0.16744439453124998,0.06011929931640625,0.9316678173828125
-0.236254296875,0.11967625,1.1921804150390625
-0.38092529296875,0.222614189453125,1.386581796875
-0.35709712890625,0.0770305322265625,1.48390537109375
-0.41302037109375,-0.0011532836914062497,1.37183580078125
-0.34639876953125,0.0294830078125,1.2029941455078126
-0.4045103125,-0.0219859619140625,1.0486527197265625
-0.36876806640625,-0.05458297607421875,0.9677955078125
-0.25303126953125,0.022620478515625,1.01989802734375
-0.22361078125,0.07874616455078125,1.0275167919921875
-0.2328502734375,0.0299731884765625,0.9547698779296875
-0.1365650390625,-0.011201987304687501,0.8633447021484375
-0.15066742187499998,-0.1033559521484375,0.8662939013671875
-0.14945169921875,-0.11242429443359375,0.84687833984375
-0.29971501953125,-0.12860025634765626,0.739232568359375
-0.2659179296875,-0.11193411376953125,0.704825244140625
-0.25740787109375,-0.02517213623046875,0.703842177734375
-0.34639876953125,0.11403917236328125,0.827708544921875
-0.28585578125,0.00865032958984375,0.92748978515625
-0.310170234375,-0.0837487255859375,0.9759058056640625
-0.21510072265625,-0.04575972412109375,0.839996875
-0.21193984375,-0.05703387939453125,0.788385888671875
-0.2211793359375,-0.12958061767578125,0.7694618603515625
-0.2931501171875,0.10864718505859375,0.89406552734375
-0.20780638671875,0.01796376220703125,0.917167587890625
-0.25935302734375,0.02923791748046875,0.99237216796875
-0.22750109375,0.02286556884765625,0.9675497412109375
-0.220693046875,0.00399361328125,0.7502920654296875
-0.143859375,0.044188427734375,0.745130966796875
-0.1628246484375,0.057913486328125,0.9773804052734375
-0.30360533203125,-0.0964934228515625,1.154578125
-0.3641483203125,-0.09820905517578125,1.196358447265625
-0.30895451171875,0.0838930615234375,1.2098756103515624
-0.42080099609375,-0.1033559521484375,1.007609697265625
-0.21753216796875,0.05815857666015625,0.8608870361328125
-0.1166271875,0.0535018603515625,0.8451579736328125
-0.3271903515625,-0.0053198193359375,1.064627548828125
-0.21607330078125,0.0593840283203125,1.1926719482421875
-0.296554140625,-0.0268877685546875,1.0778989453125
-0.212912421875,-0.050661530761718754,0.859166669921875
-0.244034921875,-0.1259042626953125,0.7045794775390625
-0.18470765625,-0.07370002197265625,0.636010595703125
-0.2756437109375,-0.0827683642578125,0.7004014453125
-0.1530988671875,0.09933375244140626,0.7633176953125
-0.26907880859375,0.05178622802734375,0.859658203125
-0.43004048828125,0.03217900146484375,0.91765912109375
-0.25303126953125,0.03561026611328125,0.8102591162109375
-0.2099946875,-0.02419177490234375,0.876861865234375
-0.2474389453125,-0.0567887890625,1.051847685546875
-0.2231244921875,-0.07370002197265625,1.1223827001953124
-0.26859251953125,0.024091020507812498,0.966320908203125
-0.29631099609375,-0.0474753564453125,0.798216552734375
-0.2221519140625,-0.0533575244140625,0.7561904638671875
-0.08817927734375,0.09247122314453125,0.9390408154296875
-0.31868029296875,0.1035002880859375,1.24796943359375
-0.48790888671875,0.10521592041015625,1.3593017041015625
-0.22531279296875,-0.0254172265625,1.1415524951171876
-0.25789416015625,0.0069346972656249995,0.8456495068359375
-0.259596171875,-0.13350206298828124,0.7335799365234374
-0.12319208984375,-0.154824921875,0.814928681640625
-0.2561921484375,0.05129604736328125,1.03661015625
-0.421044140625,0.01894412353515625,0.980083837890625
-0.29339326171875,-0.0013983740234375002,0.9041419580078125
-0.2542469921875,-0.0592396923828125,0.8387680419921875
-0.24914095703125,-0.1553151025390625,0.9164302880859375
-0.14653396484375,-0.0886505322265625,1.1174673681640626
-0.28318119140625,0.0843832421875,1.1179589013671876
-0.34153587890625,-0.1386489599609375,1.0088385302734375
-0.2484115234375,0.07678544189453125,1.07298361328125
-0.29047552734375,-0.01953505859375,1.044966220703125
-0.2921775390625,-0.0724745703125,0.9906518017578125
-0.25838044921875,-0.05997496337890625,0.853268271484375
-0.1482359765625,-0.0935523388671875,0.80067421875
-0.245980078125,-0.02125069091796875,1.094119541015625
-0.44706060546875,-0.0023787353515625003,1.2737749267578125
-0.234309140625,0.02531647216796875,1.3750307666015624
-0.3437241796875,0.0593840283203125,1.5190499951171874
-0.55161275390625,0.1574201611328125,1.4531845458984374
-0.42858162109375,0.08707923583984375,1.1784174853515625
-0.232363984375,0.085363603515625,1.0658563818359374
-0.24670951171875,-0.0043394580078125,1.016457294921875
-0.2357680078125,-0.050661530761718754,0.9439561474609375
-0.15042427734375,-0.18055940673828125,0.839996875
-0.17036212890625,-0.12933552734375,0.7070371435546875
-0.34202216796875,-0.11585555908203125,0.6883588818359375
-0.34810078125,-0.17418705810546875,0.7173593408203125
-0.27102396484375,-0.2386458154296875,0.8834975634765625
-0.26227076171875,-0.016593974609375,1.0638902490234374
-0.1968648828125,0.04835496337890625,1.16145958984375
-0.29728357421875,-0.053847705078125,1.2895039892578124
-0.35028908203125,0.0152677685546875,1.3824037646484375
-0.39454138671875,0.09394176513671874,1.254359365234375
-0.3194097265625,0.04296297607421875,1.1066536376953124
-0.17522501953125,0.10276501708984374,1.212087509765625
-0.2649453515625,-0.08889562255859375,1.210121376953125
-0.28512634765625,-0.0533575244140625,1.0024485986328124
-0.221665625,-0.09771887451171875,0.7291561376953125
-0.18349193359375,-0.07051384765625,0.6662398876953125
-0.26907880859375,-0.09477779052734375,0.7414444677734375
-0.15382830078125,-0.1131595654296875,0.9520664453125
-0.2561921484375,-0.0092412646484375,1.119679267578125
-0.3223274609375,-0.046249904785156254,1.2221639404296876
-0.3164919921875,0.0348749951171875,1.0732293798828125
-0.22725794921875,0.11256863037109376,0.9788550048828125
-0.13680818359375,0.16624341308593749,1.11820466796875
-0.3301080859375,0.097127939453125,1.3475049072265626
-0.4045103125,-0.06928839599609375,1.400836259765625
-0.32402947265625,-0.0592396923828125,1.213070576171875
-0.27394169921875,-0.15212892822265625,0.8903790283203125
-0.13826705078125,-0.16242272216796874,0.70335064453125
-0.0363894921875,-0.0386521044921875,0.6524769580078125
-0.28658521484375,-0.0249270458984375,1.226833505859375
-0.27296912109375,0.03119864013671875,1.2300284716796874
-0.31916658203125,-0.03154448486328125,1.0083469970703125
-0.27248283203125,-0.08252327392578125,0.84786140625
-0.174009296875,-0.07173929931640625,0.834590009765625
-0.2221519140625,-0.044044091796875,0.9100403564453124
-0.1827625,-0.07664110595703125,0.9891772021484375
-0.2347954296875,0.03757098876953125,1.0599579833984376
-0.20440236328125,0.004973974609375,1.0267794921875
-0.17303671874999998,-0.03889719482421875,1.062661416015625
-0.20099833984375,7.216796875000007e-05,0.9921264013671875
-0.24914095703125,0.042227705078125,0.9257694189453125
-0.30627992187499997,-0.01585870361328125,0.84786140625
-0.214857578125,0.05325677001953125,0.7679872607421875
-0.14410251953125,-0.02174087158203125,0.7340714697265625
-0.12610982421875,-0.05262225341796875,0.7714279931640625
-0.10519939453125,0.0505607763671875,0.9680412744140625
-0.31673513671875,0.0530116796875,1.1061621044921874
-0.40864376953125,0.0255615625,1.1636714892578124
-0.2668905078125,-0.07051384765625,1.0083469970703125
-0.312115390625,-0.0072805419921875,0.9007012255859375
-0.29387955078125,-0.05017135009765625,0.8544971044921875
-0.24695265625,-0.06659240234375,0.8825144970703125
-0.2347954296875,-0.02419177490234375,0.911269189453125
-0.257651015625,0.080461796875,0.9803296044921875
-0.22434021484375,-0.01781942626953125,1.047915419921875
-0.2630001953125,0.030708459472656248,0.96681244140625
-0.28658521484375,-0.0690433056640625,0.8299204443359375
-0.1997826171875,-0.13056097900390626,0.7746229589843749
-0.24719580078125,-0.08644471923828125,0.820827080078125
-0.23844259765625,-0.17173615478515625,0.805098017578125
-0.28269490234375,-0.16193254150390626,0.8734211328125
-0.3694975,-0.10948321044921874,0.93338818359375
-0.21899103515625,-0.03914228515625,1.072492080078125
-0.28658521484375,-0.016593974609375,1.0756870458984376
-0.189570546875,0.02090484619140625,1.0565172509765626
-0.18786853515625002,0.0074248779296875,1.0781447119140626
-0.2999581640625,0.02482629150390625,1.0810939111328124
-0.19759431640625,-0.00311400634765625,1.0614325830078124
-0.20975154296875,7.216796875000007e-05,1.00810123046875
-0.222638203125,0.02531647216796875,0.9793465380859375
-0.20342978515625,0.00619942626953125,0.909303056640625
-0.2488978125,0.00325834228515625,0.89504859375
-0.15188314453125001,-0.046004814453125,0.93732044921875
-0.2941226953125,-0.02125069091796875,1.0130165625
-0.1929745703125,-0.0018885546875000003,1.0525849853515625
-0.203186640625,0.01183650390625,1.019406494140625
-0.271267109375,0.0731090869140625,1.1164843017578125
-0.25400384765625,0.06894255126953125,1.1007552392578126
-0.3072525,-0.0803174609375,1.039067822265625
-0.27831830078124997,0.063795654296875,0.92552365234375
-0.1180860546875,-0.00507472900390625,0.875387265625
-0.312115390625,-0.05703387939453125,1.0319405908203125
-0.18397822265625,0.00963069091796875,1.1683410546875
-0.242089765625,0.0025230712890624996,1.14966279296875
-0.2960678515625,-0.14232531494140624,1.1100943701171875
-0.29096181640625,-0.05213207275390625,1.022355693359375
-0.2143712890625,0.024091020507812498,0.946168046875
-0.1929745703125,-0.05458297607421875,1.0289913916015625
-0.26664736328125,0.033404453125,1.119679267578125
-0.3330258203125,-0.0009081933593750001,1.1390948291015626
-0.2814791796875,-0.02664267822265625,1.0683140478515625
-0.19419029296875,0.01649322021484375,0.891116328125
-0.1321884375,0.004973974609375,0.8191067138671875
-0.160393203125,-0.1121792041015625,0.8667854345703125
-0.10276794921875,-0.063651318359375,0.946168046875
-0.2668905078125,0.03119864013671875,1.0044147314453125
-0.310170234375,-0.04134809814453125,1.1218911669921874
-0.28755779296875,-0.0092412646484375,1.04939001953125
-0.2056180859375,-0.05997496337890625,0.8852179296875
-0.1073876953125,0.0299731884765625,0.8284458447265625
-0.138996484375,0.0373258984375,0.854251337890625
-0.15188314453125001,-0.0366913818359375,0.9872110693359375
-0.25205869140625,0.06109966064453125,1.0936280078125
-0.26056875,0.010611052246093749,1.1056705712890624
-0.14604767578125,-0.0092412646484375,1.029237158203125
-0.2027003515625,-0.0494360791015625,1.0624156494140624
-0.154557734375,-0.076396015625,1.1877566162109374
-0.35126166015625,-0.00409436767578125,1.1931634814453125
-0.27442798828125,0.02139502685546875,0.956490244140625
-0.26275705078125,-0.07615092529296875,0.8063268505859374
-0.15285572265625,-0.106787216796875,0.7829790234375
-0.1978374609375,-0.03252484619140625,0.8323781103515625
-0.20877896484375,-0.0533575244140625,0.9778719384765625
-0.23941517578125,-0.01487834228515625,0.99630443359375
-0.22920310546875,-0.0180645166015625,0.888658662109375
-0.3456693359375,-0.023456503906250002,0.8790737646484375
-0.29290697265625,-0.0778665576171875,0.7473428662109375
-0.06799828125,-0.0011532836914062497,0.695977646484375
-0.2454937890625,-0.075415654296875,0.775606025390625
-0.168173828125,-0.1013952294921875,0.86260740234375
-0.27540056640625,-0.10188541015625,0.8726838330078125
-0.170118984375,0.012816865234374999,0.97860923828125
-0.24281919921875,0.0652661962890625,0.9498545458984375
-0.16452666015625,0.07188363525390624,1.041033955078125
-0.19419029296875,0.010856142578125,1.1612138232421876
-0.23698373046875,-0.03105430419921875,1.24403716796875
-0.2970404296875,0.20570295654296875,1.2084010107421874
-0.20440236328125,0.07678544189453125,1.1680952880859374
-0.29582470703125,0.040266982421875,1.1445016943359374
-0.15164,-0.012672529296875,1.2646815625
-0.3437241796875,0.12531332763671876,1.3342335107421874
-0.30457791015625,-0.098944326171875,1.2993346533203125
-0.4278521875,-0.03301502685546875,1.0530765185546875
-0.25692158203125,-0.17908886474609376,0.81640328125
-0.09644619140624999,-0.139139140625,0.61487466796875
-0.105928828125,-0.16144236083984376,0.502313564453125
-0.13437673828125,-0.2043331689453125,0.5566279833984376
-0.038091503906250004,-0.0935523388671875,0.74463943359375
-0.2406308984375,0.07923634521484375,1.118696201171875
-0.393811953125,-0.0175743359375,1.3086737841796876
-0.53118861328125,-0.09281706787109376,1.1061621044921874
-0.12756869140625,-0.03987755615234375,0.7488174658203125
-0.05243703125,-0.1161006494140625,0.6180696337890625
-0.14458880859375,-0.030319033203124998,0.8360646093749999
-0.296554140625,0.019434304199218752,1.041033955078125
-0.2775888671875,0.0946770361328125,1.1415524951171876
-0.25449013671875,0.1093824560546875,1.0466865869140625
-0.2396583203125,0.1549692578125,0.9375662158203125
-0.13826705078125,0.032424091796875,0.887675595703125
-0.323786328125,0.03512008544921875,1.0466865869140625
-0.1453182421875,-0.08595453857421875,1.051847685546875
-0.0558410546875,-0.1665892578125,1.1081282373046875
-0.26324333984375,-0.1759026904296875,1.344801474609375
-0.43149935546875,-0.29918312744140624,1.1877566162109374
-0.3057936328125,-0.06928839599609375,1.0184234277343749
-0.13340416015625,0.03315936279296875,1.0201437939453124
-0.33108066406250003,-0.0411030078125,0.9641090087890625
-0.174009296875,0.06698182861328125,1.00220283203125
-0.0052669921875,-0.1121792041015625,0.9636174755859375
-0.13680818359375,0.01012087158203125,1.0589749169921876
-0.02739314453125,-0.040122646484374996,1.0987891064453126
-0.286828359375,-0.147962392578125,1.0570087841796876
-0.21510072265625,-0.114630107421875,1.103950205078125
-0.43976626953125,0.08609887451171874,1.11525546875
-0.4973915234375,0.13364639892578126,1.0643817822265624
-0.44608802734374997,0.0005623486328125002,0.7633176953125
-0.0025924023437500013,0.01649322021484375,0.5074746630859375
-0.007455292968749999,0.08119706787109375,0.6043067041015625
-0.00502384765625,0.0686974609375,0.8717007666015625
-0.312115390625,0.1549692578125,1.17325638671875
-0.5336200585937501,0.11992134033203125,1.0806023779296874
-0.117599765625,0.0515411376953125,0.7286646044921875
-0.02933830078125,-0.09012107421875,0.52836482421875
0.028286953125,0.00325834228515625,0.55195841796875
0.0467659375,-0.0151234326171875,0.9191337207031249
-0.13097271484375,-0.22222476318359374,1.374293466796875
-0.1433730859375,-0.3190354443359375,1.7306550390625
-0.66297294921875,0.0172284912109375,1.8601740380859375
-0.60948115234375,0.12041152099609376,1.19881611328125
-0.4147223828125,0.024581201171875,0.917167587890625
-0.1346198828125,-0.09428760986328125,0.703842177734375
-0.2955815625,0.00619942626953125,0.7552073974609375
-0.05122130859375,0.06257020263671875,0.847369873046875
0.0701078125,-0.07517056396484376,0.7601227294921875
-0.25643529296875,0.13536203125,0.6755790185546875
-0.24330548828125,0.1035002880859375,0.5846453759765625
0.08761421875,-0.09477779052734375,0.777080625
-0.02520484375,-0.25090033203125,1.2531305322265625
-0.2591098828125,-0.1744321484375,1.4984056005859374
-0.42663646484375,0.01747358154296875,1.68838318359375
-0.73688888671875,0.0035034326171875,1.524702626953125
-0.4079143359375,0.0289928271484375,0.997779033203125
-0.1827625,-0.08791526123046875,0.5313140234375
-0.08234380859375,-0.13644314697265625,0.44382111328125
0.029502675781249998,-0.0190448779296875,0.4566009765625
0.04992681640625,0.01159141357421875,0.62765453125
-0.0266637109375,-0.0023787353515625003,0.8073099169921875
-0.29582470703125,0.00668960693359375,1.17915478515625
-0.52486685546875,0.017718671875,1.240596435546875
-0.27345541015625,0.03659062744140625,0.8623616357421875
-0.024475410156250002,-0.00752563232421875,0.5497465185546875
-0.051950742187499996,-0.15286419921875,0.5182883935546875
-0.1725504296875,-0.04772044677734375,0.7891231884765625
-0.42760904296875,0.0162481298828125,0.934862783203125
-0.2099946875,-0.08399381591796876,0.80853875
-0.08283009765625,0.01575794921875,0.8726838330078125
-0.21704587890625,-0.1116890234375,0.9341254833984375
-0.20148462890625,-0.076396015625,1.000728232421875
-0.33375525390625,-0.028358310546875,0.9503460791015625
-0.08477525390625,-0.0386521044921875,0.8382765087890625
-0.08088494140625,-0.2692821069335937,0.845403740234375
0.0287732421875,-0.2092349755859375,1.1405694287109376
-0.32694720703125,-0.12222790771484375,1.232731904296875
-0.0733474609375,-0.267566474609375,1.1523662255859375
-0.405482890625,0.05129604736328125,1.043983154296875
-0.47526537109375,0.03413972412109375,0.84491220703125
-0.39600025390625,0.075559990234375,0.5826792431640625
-0.0772377734375,0.1044806494140625,0.480686103515625
0.0647586328125,0.04786478271484375,0.5694078466796875
-0.0704297265625,-0.0504164404296875,0.655671923828125
-0.20464550781250002,0.02090484619140625,0.6972064794921875
-0.05948822265625,-0.042328459472656246,0.780521357421875
-0.16914640625,-0.14232531494140624,1.0717547802734375
-0.26154132812499997,0.15031254150390624,1.3919886621093749
-0.33570041015625,0.17261576171875,1.421480654296875
-0.53896923828125,0.15619470947265626,1.199307646484375
-0.20634751953125,0.05962911865234375,1.06905134765625
-0.30020130859375,0.122617333984375,1.2103671435546874
-0.40669861328125,0.1887917236328125,1.1880023828125
-0.22823052734375,0.17040994873046875,0.9245405859375
-0.113709453125,-0.0866898095703125,0.7498005322265625
-0.10763083984374999,-0.0513968017578125,0.813945615234375
-0.08088494140625,-0.06340622802734375,0.968287041015625
-0.30944080078125,-0.06683749267578125,1.0818312109375
-0.33083751953125,-0.2013920849609375,0.79772501953125
-0.06921400390625,0.04982550537109375,0.874895732421875
-0.42371873046874997,-0.04330882080078125,1.0211268603515624
-0.36779548828124997,-0.01732924560546875,1.120662333984375
-0.32354318359375,0.18266446533203126,1.106899404296875
-0.2445212109375,0.25521120361328126,1.0619241162109374
-0.14750654296875,0.034384814453125,1.16539185546875
-0.14118478515625,0.0780108935546875,1.3806833984375
-0.2912049609375,0.21354584716796876,1.43081978515625
-0.222638203125,0.0515411376953125,1.453921845703125
-0.4448723046875,-0.01953505859375,1.1705529541015625
-0.2503566796875,-0.29428132080078123,0.8608870361328125
-0.148722265625,-0.2945264111328125,0.6760705517578125
-0.23892888671875,-0.20653898193359374,0.757419296875
-0.013290761718750002,-0.19575500732421874,0.9009469921875
-0.12440781249999999,-0.089140712890625,1.260257763671875
-0.43052677734375,-0.17124597412109374,1.3912513623046876
-0.51659994140625,-0.028358310546875,1.3037584521484376
-0.24038775390625,-0.08497417724609375,0.9567360107421875
-0.18786853515625002,0.20962440185546874,1.02383029296875
-0.31381740234375,0.1706550390625,1.3293181787109374
-0.3072525,0.15080272216796875,1.3853529638671875
-0.34591248046875,-0.06046514404296875,1.1204165673828126
-0.2785614453125,-0.19428446533203125,0.873912666015625
-0.0855046875,-0.25090033203125,0.68270625
-0.209022109375,-0.198941181640625,0.567195947265625
-0.15091056640625,-0.26585084228515626,0.5585941162109375
-0.10908970703125,-0.15752091552734376,0.6539515576171875
-0.07213173828125,-0.1092381201171875,0.84687833984375
-0.2036729296875,0.09737302978515625,1.045949287109375
-0.362689453125,0.11256863037109376,1.35414060546875
-0.1647698046875,0.0789912548828125,1.573855947265625
-0.05024873046875,0.106931552734375,1.7220532080078126
-0.4575158203125,0.1250682373046875,1.63922986328125
-0.49909353515625,-0.05654369873046875,1.3887936962890626
-0.49593265625,-0.0641414990234375,1.084288876953125
-0.27272597656249997,-0.13105115966796876,0.8166490478515624
-0.105928828125,-0.21952876953125,0.6288833642578124
-0.12756869140625,-0.092081796875,0.606518603515625
-0.013533906250000002,-0.07664110595703125,0.6382224951171875
-0.05170759765625,-0.1004148681640625,0.7276815380859375
-0.18300564453125,0.1221271533203125,0.9523122119140625
-0.35369310546875,0.05619785400390625,1.019406494140625
-0.29874244140625,-0.029338671875,0.949608779296875
0.049683671875,-0.085219267578125,0.9095488232421876
-0.09936392578125,-0.0332601171875,1.2629611962890626
-0.477453671875,0.0691876416015625,1.3475049072265626
-0.39478453125,0.20080114990234374,1.18112091796875
-0.2095083984375,0.022620478515625,0.8820229638671875
-0.0383346484375,-0.20310771728515625,0.851302138671875
0.010780546874999998,-0.2180582275390625,1.1474508935546874
-0.51708623046875,0.0966377587890625,1.2639442626953126
-0.2056180859375,0.08168724853515624,0.93338818359375
-0.3631757421875,-0.06095532470703125,0.803131884765625
-0.17303671874999998,0.02531647216796875,0.737266435546875
0.06986466796875,-0.0960032421875,0.5925099072265625
0.0171023046875,-0.201882265625,0.702859111328125
-0.13778076171875,0.21109494384765626,0.831640810546875
-0.20586123046875,0.0182088525390625,0.952557978515625
-0.36876806640625,-0.0033590966796874996,1.0506188525390625
-0.30603677734375,0.1466361865234375,1.2029941455078126
-0.330594375,-0.01046671630859375,1.33841154296875
-0.450221484375,-0.07271966064453125,1.12017080078125
-0.23114826171875,-0.0749254736328125,0.82721701171875
-0.12440781249999999,-0.02125069091796875,0.706791376953125
-0.28634207031250003,-0.0337502978515625,0.6470700927734375
0.005431367187500001,-0.05801424072265625,0.6846723828125
0.03144783203125,-0.053847705078125,0.7493089990234375
-0.09134015625,-0.016593974609375,0.8653108349609375
-0.25157240234375,-0.11193411376953125,0.977134638671875
-0.387976484375,0.05105095703125,1.0737209130859375
-0.3787369921875,-0.057769150390625,0.9257694189453125
-0.1715778515625,0.04712951171875,0.8844806298828125
-0.3544225390625,0.08315779052734375,0.86457353515625
-0.16525609375,-0.020515419921875,0.9638632421875
-0.1112780078125,0.06011929931640625,1.0383305224609374
-0.35393625,-0.11879664306640625,0.99433830078125
-0.13389044921874999,0.06306038330078124,0.9913891015625
-0.1112780078125,-0.18938265869140625,0.856217470703125
-0.20732009765625,-0.277370087890625,1.0039231982421875
-0.29169125,-0.07615092529296875,1.081339677734375
-0.26761994140625,-0.20506843994140625,0.9287186181640625
-0.25546271484375,-0.0337502978515625,0.7751144921875
-0.2970404296875,-0.05262225341796875,0.6657483544921875
-0.16720125,0.02335574951171875,0.5792385107421875
-0.21461443359375,-0.0415931884765625,0.6087305029296874
-0.05657048828125,0.09394176513671874,0.811979482421875
-0.29776986328125,-0.02076051025390625,1.0466865869140625
-0.30141703125,0.0574233056640625,1.2705799609375
-0.34226531250000003,0.1005592041015625,1.3524202392578124
-0.3787369921875,-0.00654527099609375,1.3283351123046876
-0.331566953125,0.01698340087890625,1.1010010058593749
-0.14945169921875,0.106931552734375,0.9756600390625
-0.2542469921875,0.0182088525390625,0.9390408154296875
-0.2678630859375,0.09443194580078125,1.05528841796875
-0.2775888671875,0.01698340087890625,1.119187734375
-0.27491427734375,-0.08619962890625,1.167849521484375
-0.1414279296875,0.01698340087890625,1.1582646240234376
-0.26178447265625,-0.03399538818359375,0.930930517578125
-0.1511537109375,0.00619942626953125,0.8166490478515624
-0.24670951171875,-0.15605037353515624,0.8702261669921875
-0.23406599609375,-0.10948321044921874,1.0108046630859375
-0.37533296875,-0.0670825830078125,1.0958399072265625
-0.23747001953125,-0.03301502685546875,1.198324580078125
-0.27783201171875,-0.0082609033203125,1.34037767578125
-0.29509527343749997,0.03462990478515625,1.4089465576171876
-0.3359435546875,0.07580508056640625,1.265173095703125
-0.222638203125,-0.09673851318359375,1.0958399072265625
-0.10714455078125,-0.04330882080078125,0.983033037109375
-0.168173828125,-0.01830960693359375,0.8456495068359375
-0.20245720703125,-0.1562954638671875,0.710232109375
-0.10325423828125,-0.08693489990234375,0.7193254736328125
-0.08283009765625,-0.13056097900390626,0.6689433203125
-0.08477525390625,-0.17957904541015626,0.70924904296875
-0.1005796484375,-0.1964902783203125,0.8215643798828125
-0.31868029296875,-0.23300873779296874,1.0346440234375
-0.277102578125,0.0010525292968750002,1.2290454052734374
-0.40037685546875,-0.04379900146484375,1.276969892578125
-0.325731484375,0.01992448486328125,1.26959689453125
-0.19273142578125,-0.02909358154296875,1.154578125
-0.30409162109375,0.2034971435546875,1.16735798828125
-0.3057936328125,0.03806116943359375,1.1356540966796875
-0.222638203125,0.1976149755859375,1.2767241259765625
-0.46091984375,0.0917359521484375,1.0579918505859376
-0.162338359375,0.00521906494140625,0.7375122021484375
-0.0782103515625,-0.14330567626953125,0.632078330078125
-0.08623412109375,-0.10899302978515625,0.5470430859375
-0.08283009765625,-0.08007237060546875,0.660587255859375
-0.1608794921875,-0.1278649853515625,0.8458952734375
-0.23990146484375,-0.016593974609375,1.1621968896484376
-0.4215304296875,0.04394333740234375,1.5136431298828126
-0.39551396484375,0.14639109619140625,1.6704422216796875
-0.4438997265625,0.21501638916015625,1.5691863818359375
-0.24695265625,0.0838930615234375,1.2784444921875
-0.3806821484375,-0.0543378857421875,1.2093840771484374
-0.40523974609375,-0.1464918505859375,1.0850261767578124
-0.1944334375,-0.0827683642578125,0.891116328125
-0.07893978515625,0.05178622802734375,0.764792294921875
-0.10714455078125,-0.038161923828125,0.6244595654296875
0.03825587890625,-0.08840544189453126,0.6696806201171875
0.04482078125,-0.1200220947265625,0.8871840625
-0.38821962890625,-0.03105430419921875,0.954524111328125
-0.2357680078125,-0.19036302001953126,0.9626344091796875
-0.31770771484375,-0.06340622802734375,1.096085673828125
-0.4020788671875,0.03928662109375,1.138357529296875
-0.27248283203125,-0.0013983740234375002,1.197833046875
-0.2445212109375,0.1446754638671875,1.2914701220703124
-0.3680386328125,0.14197947021484375,1.1813666845703126
-0.05657048828125,0.03904153076171875,1.151137392578125
-0.298499296875,-0.07222947998046875,1.186527783203125
-0.18106048828125,-0.13595296630859374,1.17817171875
-0.12708240234375,-0.2817817138671875,0.9532952783203125
-0.2488978125,-0.24109671875,0.814928681640625
-0.21072412109375,-0.1866866650390625,0.6023405712890625
-0.1890842578125,-0.12811007568359375,0.568179013671875
-0.25838044921875,-0.08203309326171875,0.66402798828125
-0.19710802734375,-0.14624676025390626,0.8097675830078125
-0.076751484375,-0.17663796142578125,0.897506259765625
-0.20002576171875,0.04933532470703125,1.16932412109375
-0.44219771484375,-0.1195319140625,1.2319946044921875
-0.080641796875,-0.2229600341796875,1.1523662255859375
-0.2318776953125,0.05864875732421875,1.138357529296875
-0.4511940625,-0.00703545166015625,1.1951296142578125
-0.2299325390625,0.04051207275390625,1.3047415185546876
-0.25351755859375,-0.0945327001953125,1.2123332763671875
-0.20732009765625,-0.0553182470703125,1.00515203125
-0.183735078125,-0.07958218994140626,0.750046298828125
-0.11541146484375,-0.242077080078125,0.5236952587890625
-0.0879361328125,-0.21144078857421875,0.4081849560546875
-0.061676523437500005,-0.20898988525390624,0.3777098974609375
-0.121490078125,-0.21879349853515626,0.49297443359375
-0.21315556640625,-0.22663638916015624,0.682214716796875
-0.28950294921874997,-0.0974737841796875,0.891116328125
-0.32548833984375003,0.05913893798828125,1.0565172509765626
-0.20634751953125,0.1466361865234375,1.01006736328125
-0.29825615234375,0.08511851318359374,0.916184521484375
-0.30020130859375,0.019679394531249998,0.87637033203125
-0.18884111328125,0.0446786083984375,0.9134810888671875
-0.111764296875,-0.08252327392578125,1.14179826171875
-0.31624884765625,-0.15261910888671876,1.3833868310546875
-0.17279357421875,-0.13154134033203124,1.2467406005859374
-0.28220861328125,-0.144040947265625,0.882760263671875
-0.19856689453125,0.04639424072265625,0.60897626953125
-0.15091056640625,0.00276816162109375,0.5408989208984375
-0.14507509765624998,0.04124734375,0.6342902294921875
-0.29144810546875,0.08511851318359374,0.7257154052734375
-0.2766162890625,-0.05801424072265625,0.6532142578125
-0.14264365234375,-0.1866866650390625,0.644858193359375
0.040930468750000004,0.03119864013671875,0.9208540869140625
-0.41545181640625,0.13732275390625,1.097068740234375
-0.2688356640625,0.0466393310546875,1.2093840771484374
-0.1093328515625,-0.10164031982421876,1.3239113134765625
-0.360744296875,0.0074248779296875,1.2784444921875
-0.27418484375,-0.13301188232421876,0.913235322265625
-0.31381740234375,-0.25506686767578124,0.7183424072265625
-0.08088494140625,0.01110123291015625,0.666485654296875
-0.05073501953125,-0.079337099609375,0.6087305029296874
-0.15577345703125,0.10399046875,0.9191337207031249
-0.30166017578125,-0.08105273193359375,1.3563525048828124
-0.3072525,0.089285048828125,1.4644898095703125
-0.4370916796875,0.2642795458984375,1.29122435546875
-0.39356880859375,0.2547210229492187,1.150154326171875
-0.30555048828125,-0.0055649096679687505,1.0412797216796874
-0.22725794921875,0.038306259765625,1.035135556640625
-0.27588685546875,-0.10360104248046875,0.932896650390625
-0.20464550781250002,-0.1249239013671875,0.833606943359375
-0.1968648828125,-0.16462853515625,0.8033776513671875
-0.183735078125,-0.18595139404296876,0.820335546875
-0.2523018359375,-0.02174087158203125,0.9292101513671875
-0.18227621093750002,-0.0376717431640625,1.05332228515625
-0.29971501953125,0.0446786083984375,1.1474508935546874
-0.40864376953125,0.108892275390625,1.086255009765625
-0.22701480468750002,0.1691844970703125,0.9223286865234375
0.012725703124999998,0.10521592041015625,1.077407412109375
-0.09912078125,-0.07320984130859375,1.4340147509765626
-0.26470220703125,0.083402880859375,1.8449365087890626
-0.53216119140625,0.108892275390625,1.6407044628906249
-0.1005796484375,0.1005592041015625,1.30498728515625
-0.36439146484375,-0.09183670654296874,1.2472321337890624
-0.50249755859375,0.04541387939453125,1.29122435546875
-0.32597462890625,-0.11879664306640625,1.2103671435546874
-0.2017277734375,-0.15507001220703126,1.0245675927734375
-0.2386857421875,-0.2293323828125,0.93437125
-0.03274232421875,-0.2415868994140625,0.8830060302734375
-0.02009880859375,-0.2136466015625,0.9159387548828125
-0.15917748046875,0.13952856689453125,1.0589749169921876
-0.15139685546875,-0.0567887890625,1.306461884765625
-0.52146283203125,-0.03399538818359375,1.602364873046875
-0.37922328125,-0.149923115234375,1.5003717333984374
-0.392839375,-0.200901904296875,1.362988203125
-0.35588140625,-0.12271808837890624,1.093136474609375
-0.31770771484375,-0.18399067138671876,0.7153932080078125
-0.12805498046875,-0.10997339111328125,0.5404073876953125
-0.07942607421875,-0.1582561865234375,0.49100830078125
-0.1424005078125,-0.2516356030273437,0.6043067041015625
-0.070916015625,-0.0915916162109375,0.84687833984375
-0.20245720703125,0.01649322021484375,0.8967689599609375
-0.1628246484375,-0.08350363525390625,0.7908435546875
-0.1321884375,-0.0043394580078125,0.625196865234375
-0.01280447265625,-0.06634731201171876,0.54900921875
-0.197351171875,0.10276501708984374,0.8340984765625
-0.3262177734375,0.14246965087890626,1.1204165673828126
-0.31697828125,0.0525214990234375,1.3649543359375
-0.3262177734375,-0.01683906494140625,1.3008092529296875
-0.27345541015625,-0.0464949951171875,1.05332228515625
-0.24525064453125,-0.1131595654296875,0.928964384765625
-0.07748091796875001,-0.179333955078125,0.842454541015625
0.012239414062499999,-0.10360104248046875,0.86850580078125
-0.12513724609375,-0.14673694091796874,0.7935469873046875
-0.18057419921875,-0.1925688330078125,0.8058353173828126
-0.014992773437499999,-0.21291133056640624,0.6964691796875
-0.053409609375,-0.14820748291015626,0.82721701171875
-0.25546271484375,0.02678701416015625,0.9587021435546875
-0.2980130078125,-0.0945327001953125,1.0619241162109374
-0.174981875,0.12237224365234375,1.241579501953125
-0.46845732421874997,0.11109808837890625,1.2020110791015626
-0.210967265625,0.18266446533203126,1.0228472265625
-0.2411171875,0.03928662109375,0.9835245703125
-0.2172890234375,-0.08399381591796876,1.08281427734375
-0.24573693359375,-0.21536223388671874,1.0201437939453124
-0.22725794921875,-0.040122646484374996,0.733334169921875
-0.1317021484375,0.0731090869140625,0.52639869140625
-0.18203306640625,0.13119549560546875,0.588823408203125
-0.14312994140625,-0.046004814453125,0.582925009765625
-0.20197091796875,-0.13791368896484374,0.662553388671875
-0.31697828125,0.08756941650390625,0.68270625
-0.0636216796875,-0.05311243408203125,0.664519521484375
-0.1268392578125,-0.248939609375,0.6768078515625
-0.29169125,-0.13056097900390626,0.7099863427734375
-0.2095083984375,0.009140510253906251,0.7910893212890625
-0.37946642578125,0.11305881103515625,0.8707177001953125
-0.1735230078125,0.25962282958984373,1.012525029296875
-0.1657423828125,-0.04477936279296875,1.127052265625
-0.15820490234375,0.1191860693359375,1.3401319091796875
-0.19248828125,0.26942644287109374,1.3509456396484376
-0.3028758984375,-0.023456503906250002,1.1862820166015624
-0.308225078125,0.14418528320312501,0.8952943603515625
-0.18835482421875,-0.12663953369140624,0.650756591796875
0.06694693359375001,-0.20555862060546876,0.8063268505859374
-0.4059691796875,-0.05874951171875,1.0540595849609375
-0.20245720703125,0.1613416064453125,1.1700614208984375
-0.27345541015625,0.1387932958984375,1.2845886572265626
-0.304334765625,-0.02272123291015625,1.274020693359375
-0.32500205078125,0.057668395996093746,1.41509072265625
-0.14264365234375,-0.19967645263671874,1.3479964404296876
-0.32743349609375,-0.016593974609375,1.1376202294921876
-0.28853037109375,0.019434304199218752,0.8181236474609375
-0.20683380859375,-0.02737794921875,0.693028447265625
-0.03906408203125,-0.09869923583984375,0.78494515625
-0.159420625,-0.27442900390625,1.095594140625
-0.1735230078125,-0.0827683642578125,1.374785
-0.207076953125,-0.04428918212890625,1.3765053662109374
-0.2853694921875,-0.07124911865234375,1.197341513671875
-0.33181009765625,-0.10997339111328125,0.920116787109375
-0.4283384765625,0.00570924560546875,0.822793212890625
-0.3515048046875,-0.12541408203125,0.7942842871093749
-0.2182616015625,-0.096983603515625,0.8557259375
-0.1939471484375,-0.0680629443359375,0.883743330078125
0.0132119921875,-0.040122646484374996,0.7955131201171874
-0.0179105078125,0.01649322021484375,0.845403740234375
-0.08331638671875,0.17629211669921874,0.9070911572265625
-0.0179105078125,0.0123266845703125,1.0857634765625
-0.2095083984375,-0.02713285888671875,1.4905410693359376
-0.38092529296875,-0.08227818359375,1.5146261962890626
-0.2698082421875,-0.206784072265625,1.256325498046875
-0.3767918359375,-0.20212735595703124,1.0181776611328126
-0.16258150390625,-0.28741879150390626,0.8122252490234375
-0.25157240234375,-0.217568046875,0.66206185546875
-0.2542469921875,0.04492369873046875,0.728418837890625
-0.20148462890625,-0.00605509033203125,0.80165728515625
-0.1180860546875,0.03217900146484375,1.0260421923828125
-0.06435111328125,0.17923320068359375,1.20078224609375
-0.24306234375,-0.1229631787109375,1.087729609375
-0.1530988671875,0.03168882080078125,0.92945591796875
-0.25011353515625,-0.1955099169921875,0.66796025390625
-0.22968939453125,-0.161687451171875,0.6500192919921874
-0.1910294140625,-0.16928525146484374,0.71907970703125
0.078861015625,-0.03056412353515625,0.9773804052734375
-0.27029453125,-0.10409122314453124,1.1911973486328125
-0.493014921875,-0.29673222412109374,1.231748837890625
-0.4312562109375,-0.238155634765625,1.1887396826171874
-0.4059691796875,-0.298938037109375,1.053813818359375
-0.30555048828125,-0.1474722119140625,0.87931953125
-0.12465095703125,-0.07468038330078125,0.707774443359375
-0.2464663671875,0.0221302978515625,0.513618828125
-0.0607039453125,-0.09085634521484375,0.5173053271484375
0.08737107421875,-0.06193568603515625,0.7650380615234375
-0.13024328125,0.10031411376953125,1.0884669091796875
-0.3524773828125,0.2635442749023438,1.3529117724609374
-0.46019041015625,0.14418528320312501,1.406734658203125
-0.5224354101562501,0.04492369873046875,1.1656376220703124
-0.190543125,-0.00801581298828125,0.90389619140625
-0.3923530859375,-0.0038492773437499997,0.953541044921875
-0.2756437109375,-0.11977700439453125,0.9439561474609375
-0.133161015625,0.01575794921875,0.9365831494140625
-0.21072412109375,-0.05164189208984375,0.856217470703125
-0.072861171875,-0.1700205224609375,0.8419630078125
-0.20829267578125,-0.07222947998046875,0.74267330078125
0.012239414062499999,0.02286556884765625,0.7694618603515625
-0.0035649804687499995,0.049090234375,1.004660498046875
-0.19321771484375,0.11967625,1.378225732421875
-0.30798193359375,0.16673359375,1.7176294091796875
-0.356853984375,0.05276658935546875,1.81519875
-0.42615017578125003,0.05913893798828125,1.7603927978515626
-0.3835998828125,-0.00213364501953125,1.4379470166015624
-0.25473328125,0.04051207275390625,1.0840431103515624
-0.05462533203125,-0.12663953369140624,0.924049052734375
-0.26810623046875,0.044188427734375,1.2221639404296876
-0.537753515625,0.12947986328125,1.40722619140625
-0.42055785156250003,-0.08963089355468751,1.13786599609375
-0.0723748828125,-0.0337502978515625,0.822793212890625
0.03971474609375,0.04541387939453125,0.65419732421875
0.027557519531249998,-0.07222947998046875,0.65812958984375
-0.02836572265625,-0.06095532470703125,0.8223016796875
-0.17717017578125,0.0672269189453125,1.100017939453125
-0.45046462890625,-0.06389640869140625,1.2496897998046874
-0.39818855468750003,-0.029338671875,1.216019775390625
-0.29363640625,-0.02272123291015625,1.071509013671875
0.008349101562499999,0.016738310546875,0.9488714794921875
-0.058272500000000005,-0.17614778076171875,1.1769428857421875
-0.43636224609375,0.048109873046875,1.511922763671875
-0.42420501953125,-0.04306373046875,1.4868545703125
-0.413263515625,-0.05899460205078125,1.19488384765625
-0.27248283203125,-0.0621807763671875,1.040050888671875
-0.16549923828125,-0.13350206298828124,0.8933282275390625
-0.07067287109375,-0.2043331689453125,0.75250396484375
0.032177265625,-0.09771887451171875,0.6387140283203125
0.0545465625,-0.11389483642578124,0.6849181494140625
0.0662175,-0.12541408203125,1.022355693359375
-0.2133987109375,0.02531647216796875,1.3416065087890625
-0.4847480078125,0.16085142578125,1.3214536474609375
-0.26178447265625,0.06502110595703126,1.1322133642578125
-0.33472783203125,0.021885207519531248,0.941744248046875
-0.190543125,-0.12149263671875,0.7468513330078125
-0.2255559375,-0.24477307373046875,0.80853875
-0.2367405859375,-0.2876638818359375,0.89209939453125
-0.1326747265625,-0.15678564453125,0.8279543115234375
-0.14750654296875,-0.03938737548828125,0.755944697265625
-0.1832487890625,-0.21095060791015624,0.6453497265625
0.03096154296875,-0.1151202880859375,0.634044462890625
-0.18106048828125,-0.04379900146484375,0.7856824560546875
-0.146777109375,0.01183650390625,0.978117705078125
-0.1744955859375,-0.114630107421875,1.0137538623046876
-0.2591098828125,-0.1445311279296875,0.9599309765625
-0.19637859375,-0.0366913818359375,0.8023945849609375
-0.27418484375,-0.15457983154296875,0.7291561376953125
-0.2279873828125,-0.006790361328125,0.802148818359375
-0.1900568359375,0.011346323242187501,0.878827998046875
-0.28512634765625,0.00325834228515625,1.0594664501953126
-0.28658521484375,-0.05017135009765625,1.2280623388671874
-0.26154132812499997,-0.19134338134765624,1.178663251953125
-0.26275705078125,-0.048945898437499996,1.0063808642578125
-0.008184726562500001,-0.21487205322265626,0.5566279833984376
-0.02398912109375,-0.28790897216796874,0.6795112841796875
-0.02715,-0.31290818603515624,0.9641090087890625
-0.30263275390625,-0.08987598388671875,1.1892312158203124
-0.40280830078125,0.064776015625,1.2285538720703124
-0.2202067578125,0.04394333740234375,1.0896957421875
-0.2406308984375,0.09541230712890625,0.901438525390625
-0.1793584765625,0.023845930175781252,0.7453767333984375
-0.15091056640625,-0.13938423095703126,0.6401886279296874
-0.0723748828125,-0.00458454833984375,0.644858193359375
-0.08988128906250001,-0.07566074462890625,0.65616345703125
-0.24914095703125,-0.1562954638671875,0.8928366943359375
-0.2892598046875,0.00570924560546875,1.1919346484375
-0.3952708203125,0.08511851318359374,1.3194875146484375
-0.22725794921875,0.22334946044921875,1.381174931640625
-0.3446967578125,0.15325362548828125,1.3878106298828126
-0.2717533984375,0.0123266845703125,1.288766689453125
-0.177899609375,-0.11193411376953125,1.04742388671875
-0.0363894921875,0.06281529296875,0.9891772021484375
-0.19662173828125,0.01012087158203125,0.863098935546875
-0.1375376171875,0.013552136230468751,0.8505648388671875
-0.16890326171875,0.028502646484374998,1.1243488330078124
-0.3656071875,-0.07173929931640625,1.31088568359375
-0.329621796875,-0.23521455078125,1.2570627978515625
-0.26178447265625,-0.1219828173828125,0.9478884130859375
-0.043683828125000004,-0.060710234375,0.791335087890625
-0.407428046875,-0.11977700439453125,0.7591396630859375
-0.24281919921875,-0.2621744873046875,0.7660211279296875
0.01005111328125,-0.14330567626953125,1.0240760595703124
-0.2250696484375,0.09247122314453125,1.290732822265625
-0.18738224609375,-0.06536695068359374,1.3824037646484375
-0.30020130859375,0.0280124658203125,1.4042769921875
-0.39745912109375,0.1079119140625,1.205206044921875
-0.36366203125,0.04835496337890625,0.8397511083984375
-0.0363894921875,-0.0180645166015625,0.655180390625
-0.014992773437499999,0.01894412353515625,0.8092760498046875
-0.1141957421875,-0.02860340087890625,0.95501564453125
-0.31989601562500003,-0.0180645166015625,1.056763017578125
-0.3009307421875,0.101049384765625,1.0692971142578125
-0.3252451953125,-0.0259074072265625,0.9179048876953125
-0.1317021484375,-0.1641383544921875,0.915201455078125
-0.25084296875,0.00668960693359375,1.122628466796875
-0.39600025390625,-0.22712656982421875,1.1695698876953124
-0.15358515625,-0.1430605859375,1.174730986328125
-0.26154132812499997,0.06796218994140625,0.9872110693359375
-0.2834243359375,-0.06928839599609375,0.8299204443359375
-0.19175884765625,-0.10016977783203125,0.846386806640625
-0.2445212109375,0.05815857666015625,0.94715111328125
-0.01085931640625,-0.01585870361328125,0.9360916162109375
0.0012979101562499984,-0.1822750390625,0.9498545458984375
-0.1920019921875,0.0025230712890624996,0.97860923828125
-0.23455228515625,-0.2160975048828125,0.700892978515625
-0.13389044921874999,-0.1955099169921875,0.5880861083984374
-0.08988128906250001,-0.076396015625,0.5411446875
-0.234309140625,0.09933375244140626,0.8141913818359375
-0.29971501953125,0.03610044677734375,0.989914501953125
-0.2133987109375,-0.29918312744140624,1.1479424267578124
-0.3709563671875,0.04345315673828125,1.261240830078125
-0.494960078125,0.06796218994140625,1.070525947265625
0.005431367187500001,-0.1200220947265625,0.862115869140625
-0.05365275390625,-0.0768861962890625,1.009084296875
-0.516356796875,-0.051886982421875,1.00515203125
-0.0388209375,-0.14526639892578125,0.780521357421875
0.035824433593749996,-0.06659240234375,0.7994453857421875
-0.04246810546875,0.05472731201171875,0.8638362353515625
-0.1433730859375,-0.07468038330078125,0.936828916015625
-0.25862359375,0.12531332763671876,1.190460048828125
-0.4049966015625,0.11967625,1.3460303076171876
-0.46553958984375,0.155949619140625,1.3307927783203124
-0.2177753125,0.10595119140625,1.18112091796875
-0.2182616015625,-0.12271808837890624,1.0614325830078124
-0.27929087890625,-0.0494360791015625,1.1140266357421875
-0.28634207031250003,-0.10409122314453124,0.9680412744140625
-0.1949197265625,-0.0690433056640625,0.903404658203125
-0.21558701171875,-0.11438501708984375,0.8264797119140626
-0.14653396484375,-0.18595139404296876,0.82721701171875
-0.1832487890625,-0.10311086181640625,0.8161575146484374
-0.2124261328125,-0.1062970361328125,0.7832247900390625
-0.14021220703125,-0.13644314697265625,0.64829892578125
-0.12416466796875,-0.0455146337890625,0.597671005859375
-0.2523018359375,0.04100225341796875,0.70335064453125
-0.17279357421875,0.0231106591796875,0.8559717041015625
-0.252788125,0.14099910888671874,1.173747919921875
-0.39065107421875,0.31697396728515626,1.414599189453125
-0.273212265625,0.05962911865234375,1.4610490771484375
-0.33861814453125,-0.18350049072265626,1.325140146484375
-0.2231244921875,0.04492369873046875,1.0117877294921875
-0.07650833984375,-0.11732610107421874,0.801165751953125
0.0365538671875,-0.2004117236328125,0.7566819970703125
-0.127325546875,-0.1543347412109375,1.0071181640625
-0.2411171875,-0.126394443359375,1.1690783544921874
-0.31819400390625,-0.08350363525390625,1.248460966796875
-0.36390517578125,0.0829127001953125,1.1317218310546875
-0.3203823046875,-0.08227818359375,1.0334151904296875
-0.29193439453125003,-0.03105430419921875,0.9717277734375
-0.24865466796875,-0.03840701416015625,0.8451579736328125
-0.152612578125,-0.157766005859375,0.659604189453125
-0.1793584765625,-0.07566074462890625,0.6052897705078125
-0.034687480468750004,-0.07811164794921875,0.67385865234375
-0.013290761718750002,-0.08840544189453126,0.962388642578125
-0.2542469921875,-0.08056255126953125,1.1700614208984375
-0.23747001953125,-0.11291447509765624,1.1916888818359375
-0.28123603515625,0.01845394287109375,1.062661416015625
-0.29631099609375,-0.05360261474609375,1.06020375
-0.2805066015625,-0.2567825,0.9913891015625
-0.17668388671875,-0.247959248046875,1.0211268603515624
-0.19175884765625,-0.050661530761718754,1.02972869140625
-0.066053125,-0.16144236083984376,0.927981318359375
-0.28269490234375,0.01183650390625,1.0860092431640624
-0.24938410156250002,0.07825598388671876,1.2944193212890625
-0.203186640625,0.0368357177734375,1.5495250537109375
-0.42712275390625,0.23903524169921875,1.6640522900390624
-0.26470220703125,0.12286242431640625,1.2275708056640624
-0.0016198242187499996,-0.050661530761718754,0.9788550048828125
-0.17327986328125,-0.10654212646484375,0.894557060546875
-0.40572603515625,-0.163648173828125,0.8717007666015625
-0.432715078125,-0.11879664306640625,0.8485987060546875
-0.3203823046875,-0.0661022216796875,0.6888504150390625
-0.03663263671875,-0.00581,0.6210188330078125
-0.11784291015625001,-0.15359947021484374,0.728418837890625
-0.25084296875,-0.2229600341796875,0.9478884130859375
-0.40086314453125,-0.17247142578125,1.0638902490234374
-0.35199109375,0.11060790771484375,1.0442289208984374
-0.20488865234375,-0.02468195556640625,0.9331424169921875
-0.06848457031249999,-0.0857094482421875,1.01399962890625
-0.1248941015625,-0.18399067138671876,1.0152284619140626
-0.21947732421875,-0.280311171875,1.0334151904296875
-0.19419029296875,-0.09183670654296874,1.0132623291015626
-0.37144265625,0.10521592041015625,1.127543798828125
-0.41253408203124997,0.14418528320312501,1.120662333984375
-0.1365650390625,-0.03203466552734375,1.08084814453125
-0.12076064453125,-0.0817880029296875,1.0412797216796874
-0.04246810546875,-0.21340151123046874,1.0633987158203124
-0.138996484375,-0.32516270263671876,1.081339677734375
-0.4045103125,-0.0411030078125,0.8972604931640625
-0.24768208984375,-0.02517213623046875,0.74267330078125
-0.2411171875,-0.216587685546875,0.86653966796875
-0.30263275390625,0.0701680029296875,1.1277895654296874
-0.06678255859375,-0.09036616455078125,1.2723003271484374
-0.20488865234375,-0.0055649096679687505,1.2319946044921875
-0.34226531250000003,0.20472259521484376,0.95698177734375
-0.221665625,0.019434304199218752,0.5684247802734375
-0.045628984375,0.05031568603515625,0.5757977783203125
0.0209926171875,0.063795654296875,0.72202890625
-0.15966376953125,0.049090234375,1.0422627880859374
-0.20975154296875,-0.07026875732421875,1.237155703125
-0.23212083984375,-0.106787216796875,1.1447474609375
-0.2581373046875,-0.10727739746093751,0.9405154150390624
-0.19808060546875,0.00472888427734375,1.0835515771484374
-0.36366203125,0.05815857666015625,1.144255927734375
-0.10690140625,-0.06634731201171876,1.1400778955078126
-0.4779399609375,0.01159141357421875,1.055779951171875
-0.22677166015625,-0.116590830078125,0.792318154296875
-0.015479062500000002,-0.22565602783203126,0.846386806640625
-0.08185751953125,-0.23938108642578126,1.1381117626953126
-0.14702025390625,-0.03742665283203125,1.3057245849609376
-0.27053767578125,0.04051207275390625,1.2826225244140625
-0.3427516015625,-0.075415654296875,0.9164302880859375
-0.16112263671875,0.15521434814453125,0.7168678076171875
-0.1900568359375,-0.07713128662109375,0.5585941162109375
0.09952830078125,-0.08007237060546875,0.52639869140625
-0.02301654296875,-0.26192939697265627,0.883743330078125
-0.4127772265625,-0.13448242431640625,1.1828412841796876
-0.36585033203125,-0.03252484619140625,1.2855717236328126
-0.4283384765625,-0.17271651611328126,1.2270792724609374
-0.51854509765625,-0.051886982421875,1.06118681640625
-0.10908970703125,0.09149086181640625,0.861132802734375
-0.20002576171875,0.17506666503906249,0.7886316552734375
-0.11857234375,0.16795904541015624,0.7188339404296875
-0.0655668359375,0.22947671875,0.838522275390625
-0.15869119140625,0.2748184301757812,0.988931435546875
-0.1103054296875,-0.048945898437499996,1.07101748046875
-0.037362070312499995,-0.1161006494140625,1.105916337890625
-0.31697828125,0.140263837890625,1.0171945947265626
-0.43101306640625,-0.11340465576171875,0.8200897802734375
-0.41423609375,-0.11585555908203125,0.745130966796875
-0.36220316406249997,-0.19379428466796875,0.679265517578125
-0.28415376953125,-0.24428289306640624,0.68958771484375
-0.24938410156250002,-0.13791368896484374,0.8820229638671875
-0.177899609375,-0.16683434814453124,1.026287958984375
-0.175954453125,-0.04968116943359375,1.0275167919921875
-0.31187224609374997,-0.1553151025390625,0.8289373779296875
0.0307183984375,-0.1200220947265625,0.8540055712890625
0.0793473046875,-0.09796396484375,0.955507177734375
-0.050491875000000006,-0.11364974609375,1.2233927734375
-0.40378087890625003,-0.012427438964843749,1.315309482421875
-0.32086859375,0.0721287255859375,1.31481794921875
-0.4400094140625,-0.067572763671875,0.975168505859375
-0.29144810546875,0.05570767333984375,0.8004284521484375
-0.1637972265625,-0.030073942871093752,0.7613515625
-0.2873146484375,0.08756941650390625,0.9316678173828125
-0.17230728515625,-0.00458454833984375,0.97271083984375
-0.20537494140625,-0.11340465576171875,1.0329236572265625
0.07326869140625,-0.03105430419921875,1.16735798828125
-0.1589343359375,-0.06291604736328126,1.3897767626953126
-0.4983641015625,0.038306259765625,1.3942005615234374
-0.3057936328125,-0.17614778076171875,1.0575003173828126
-0.3729015234375,-0.11389483642578124,0.8962774267578125
-0.07869664062500001,-0.0533575244140625,0.7227662060546876
0.02853009765625,-0.12467881103515625,0.5625263818359375
-0.2566784375,0.03217900146484375,0.68368931640625
-0.37800755859375,0.023845930175781252,0.6637822216796875
-0.12319208984375,-0.22124440185546876,0.7161305078125
-0.1093328515625,-0.108747939453125,1.140323662109375
-0.34591248046875,0.02139502685546875,1.3602847705078125
-0.1842213671875,-0.13889405029296875,1.4160737890625
-0.34104958984375,0.05423713134765625,1.3720815673828124
-0.11079171875,-0.00213364501953125,1.1703071875
-0.28026345703125,-0.13154134033203124,1.1513831591796875
-0.42517759765625,-0.09869923583984375,1.2192147412109375
-0.14021220703125,-0.05703387939453125,0.8658023681640625
-0.1210037890625,-0.154824921875,0.6539515576171875
-0.10714455078125,0.07776580322265625,0.729401904296875
-0.15966376953125,0.1966346142578125,0.885709462890625
-0.207076953125,-0.0121823486328125,1.1290183984375
-0.2678630859375,-0.05164189208984375,1.3155552490234375
-0.224583359375,0.1157548046875,1.3632339697265625
-0.3874901953125,-0.18153976806640626,1.1390948291015626
-0.156502890625,0.18658591064453126,1.1250861328125
-0.39745912109375,-0.057769150390625,0.983033037109375
-0.22482650390625,0.04345315673828125,1.03366095703125
-0.31770771484375,0.096147578125,0.9203625537109374
-0.30555048828125,0.18462518798828126,0.8628531689453125
-0.15869119140625,0.05717821533203125,0.9011927587890625
-0.14361623046875,-0.0876701708984375,0.94715111328125
-0.162338359375,-0.09281706787109376,1.026287958984375
-0.2143712890625,-0.19722554931640626,0.9862280029296875
-0.2416034765625,-0.1116890234375,0.922574453125
-0.23139140625,-0.06536695068359374,0.941744248046875
-0.34153587890625,-0.09722869384765626,0.9395323486328125
-0.30846822265625,-0.19992154296875,0.87243806640625
-0.23528171875,-0.17369687744140624,0.8490902392578125
-0.1093328515625,-0.02272123291015625,0.9159387548828125
-0.2289599609375,0.03119864013671875,0.9508376123046876
-0.2921775390625,0.03413972412109375,0.9611598095703124
-0.1569891796875,0.163792509765625,1.0329236572265625
-0.146777109375,0.14737145751953126,0.9557529443359375
0.07083724609375,-0.09869923583984375,1.0818312109375
-0.27929087890625,0.16991976806640624,1.341852275390625
-0.42055785156250003,-0.20653898193359374,1.2491982666015624
-0.013290761718750002,-0.23791054443359375,1.0717547802734375
-0.3388612890625,-0.25114542236328125,0.969270107421875
-0.4166675390625,-0.1641383544921875,0.8852179296875
-0.14604767578125,0.00668960693359375,0.843929140625
-0.28220861328125,0.02531647216796875,0.8033776513671875
-0.24038775390625,0.1231075146484375,0.7099863427734375
-0.080641796875,-0.057278969726562504,0.6544430908203125
-0.0016198242187499996,-0.00311400634765625,0.981066904296875
-0.2542469921875,0.127519140625,1.2565712646484375
-0.27394169921875,-0.012672529296875,1.3224367138671875
-0.22385392578125,-0.0435539111328125,1.3593017041015625
-0.33278267578125,-0.03987755615234375,1.3047415185546876
-0.31478998046875,-0.10458140380859375,1.1567900244140625
-0.3729015234375,-0.0464949951171875,1.089204208984375
-0.25886673828125,-0.03938737548828125,1.016948828125
-0.18227621093750002,-0.0055649096679687505,0.9631259423828125
-0.2454937890625,-0.1038461328125,0.934862783203125
-0.14799283203125,-0.1082577587890625,0.93338818359375
-0.15528716796875,-0.17418705810546875,0.9582106103515625
-0.2075632421875,-0.22957747314453125,0.9120064892578125
-0.2153438671875,-0.16634416748046876,0.8242678125
-0.32646091796875,-0.19575500732421874,0.750046298828125
-0.1706052734375,-0.183255400390625,0.7247323388671875
-0.1633109375,-0.12516899169921875,0.716622041015625
-0.23649744140625,0.0848734228515625,0.90389619140625
-0.31333111328125,-0.05703387939453125,0.9763973388671875
-0.24330548828125,-0.1121792041015625,0.8638362353515625
-0.1141957421875,0.0020328906249999995,0.7846993896484376
-0.12319208984375,-0.02958376220703125,0.749063232421875
-0.21801845703125,0.10987263671875,0.7556989306640625
-0.013290761718750002,0.03364954345703125,0.95796484375
-0.16185207031249998,-0.0009081933593750001,1.2639442626953126
-0.40937320312500003,-0.0268877685546875,1.4571168115234374
-0.34931650390625,0.103010107421875,1.2919616552734374
-0.31722142578125,-0.0033590966796874996,0.969761640625
-0.2649453515625,0.13903838623046874,0.8569547705078124
-0.2202067578125,-0.08252327392578125,0.7397241015625
-0.11079171875,-0.1533543798828125,0.7239950390625
-0.29509527343749997,0.05227640869140625,0.87637033203125
-0.2211793359375,-0.11193411376953125,0.7448852001953125
-0.19224513671875,-0.12712971435546874,0.8490902392578125
-0.2649453515625,-0.10458140380859375,0.9026673583984375
-0.2736985546875,-0.05090662109375,0.91569298828125
-0.1628246484375,-0.048455717773437504,1.07691587890625
-0.24622322265625,-0.104826494140625,1.2472321337890624
-0.3855450390625,0.0201695751953125,1.284834423828125
-0.251815546875,0.04247279541015625,1.18898544921875
-0.24136033203125,-0.04281864013671875,1.00810123046875
-0.1667149609375,0.11354899169921875,1.01006736328125
-0.24622322265625,0.07482471923828125,1.3170298486328125
-0.1851939453125,-0.0268877685546875,0.8810398974609375
-0.24330548828125,-0.02958376220703125,0.75643623046875
-0.27005138671875,0.09296140380859375,0.832623876953125
-0.31965287109375,0.026051743164062502,1.13589986328125
-0.33472783203125,-0.023456503906250002,1.3170298486328125
-0.1890842578125,-0.14281549560546875,1.3209621142578125
-0.121490078125,-0.144040947265625,1.1005094726562499
-0.32548833984375003,-0.1038461328125,0.9559987109375
-0.2785614453125,0.02874773681640625,0.7856824560546875
-0.12829812499999999,0.0917359521484375,0.979100771484375
-0.35272052734375,0.2231043701171875,1.130492998046875
-0.23601115234375,0.1966346142578125,1.2226554736328126
-0.1453182421875,-0.008751083984375,1.1715360205078125
-0.207076953125,0.14099910888671874,0.9852449365234375
-0.2085358203125,-0.0455146337890625,0.8328696435546875
-0.2095083984375,-0.1259042626953125,0.9660751416015625
-0.4186126953125,-0.030073942871093752,1.1695698876953124
-0.38481560546875,-0.10580685546875,1.1690783544921874
-0.32743349609375,-0.11438501708984375,1.04349162109375
-0.1715778515625,-0.15016820556640625,0.9088115234375
-0.19078626953125,-0.16634416748046876,0.8820229638671875
-0.16647181640625,-0.1273748046875,0.8304119775390625
-0.070916015625,-0.13301188232421876,0.81148794921875
-0.12829812499999999,-0.15261910888671876,1.001711298828125
-0.39259623046875003,0.02335574951171875,1.21257904296875
-0.269321953125,-0.05115171142578125,1.069542880859375
-0.1920019921875,-0.10507158447265624,1.0103131298828125
-0.22239505859375,-0.08889562255859375,0.985982236328125
-0.1093328515625,-0.22271494384765625,0.8653108349609375
-0.3651208984375,-0.1474722119140625,0.8844806298828125
-0.28172232421875,-0.0038492773437499997,0.993846767578125
-0.17911533203125,-0.12516899169921875,1.139340595703125
-0.3573402734375,-0.036201201171875,1.33546234375
-0.113709453125,-0.0092412646484375,1.2526389990234374
-0.271267109375,0.04002189208984375,0.9442019140625
-0.17376615234375,0.0731090869140625,0.6846723828125
-0.07407689453124999,-0.03987755615234375,0.552941484375
-0.0111024609375,0.01894412353515625,0.75643623046875
-0.2347954296875,0.0780108935546875,1.1076367041015625
-0.32013916015625,-0.139139140625,1.255342431640625
-0.32111173828125,-0.07051384765625,1.223884306640625
-0.33667298828125003,-0.0690433056640625,0.9400238818359374
-0.3028758984375,-0.0690433056640625,0.66599412109375
-0.30530734375,-0.0406128271484375,0.5942302734375
-0.2931501171875,-0.0646316796875,0.6453497265625
-0.10495625,-0.1572758251953125,0.852285205078125
-0.1083602734375,-0.06928839599609375,1.04939001953125
-0.2566784375,-0.07443529296875,1.04349162109375
-0.23163455078125,-0.24281235107421875,0.967303974609375
-0.05559791015625,-0.1131595654296875,1.0486527197265625
-0.3033621875,-0.077376376953125,1.1145181689453125
-0.36755234375,-0.06585713134765625,1.13393373046875
-0.35612455078125,-0.1366882373046875,0.8618701025390625
0.0093216796875,0.0010525292968750002,0.9481341796875
-0.30263275390625,0.010856142578125,1.08379734375
-0.48499115234375,-0.11879664306640625,1.0638902490234374
-0.2163164453125,0.05325677001953125,0.9638632421875
-0.18884111328125,0.015022678222656249,0.936828916015625
-0.44317029296875,-0.1190417333984375,0.930930517578125
-0.08574783203125,-0.0960032421875,0.895540126953125
-0.11881548828124999,-0.28790897216796874,0.88226873046875
-0.22093619140625,-0.18815720703125,0.9324051171875
-0.2338228515625,-0.08301345458984374,0.8579378369140624
-0.34737134765625,-0.04575972412109375,0.83901380859375
-0.26616107421875,0.056933125,0.8407341748046875
-0.24695265625,0.13560712158203125,0.9562444775390625
-0.259596171875,0.1505576318359375,1.035135556640625
-0.0932853125,0.0231106591796875,0.9559987109375
-0.081614375,0.02335574951171875,0.8476156396484374
-0.35952857421875,0.111833359375,0.8682600341796876
-0.12756869140625,-0.08742508056640624,0.96877857421875
-0.29752671875000003,-0.05899460205078125,1.154086591796875
-0.3038484765625,-0.21830331787109375,1.134916796875
-0.1336473046875,-0.3548186328125,1.154578125
-0.43344451171875,-0.0945327001953125,1.0747039794921875
-0.39745912109375,-0.1180613720703125,0.7817501904296875
-0.039793515625,-0.0023787353515625003,0.752012431640625
-0.3111428125,0.0927163134765625,0.87931953125
-0.14799283203125,0.16501796142578126,0.925032119140625
-0.007698437500000002,-0.13399224365234375,0.8254966455078125
0.04895423828125,-0.14232531494140624,0.9464138134765625
-0.32451576171875,-0.261684306640625,1.012525029296875
-0.28220861328125,-0.19183356201171875,1.0260421923828125
-0.19467658203125,-0.134237333984375,1.1071451708984374
-0.3223274609375,-0.08227818359375,1.325140146484375
-0.486206875,-0.0082609033203125,1.2777071923828125
-0.3301080859375,0.12482314697265626,1.110831669921875
-0.2955815625,0.19246807861328125,0.959439443359375
-0.1628246484375,0.10619628173828125,0.894557060546875
-0.022773398437500002,-0.02125069091796875,0.9292101513671875
-0.12610982421875,-0.01438816162109375,0.9700074072265625
-0.057056777343750004,-0.092081796875,0.9363373828125
-0.228473671875,-0.06242586669921875,0.9306847509765624
-0.26129818359375,-0.00777072265625,1.0228472265625
-0.315033125,0.0907555908203125,1.121645400390625
-0.40523974609375,-0.02272123291015625,1.2351895703125
-0.34980279296875,-0.01561361328125,1.215036708984375
-0.279047734375,-0.011201987304687501,1.056271484375
-0.33642984375,-0.029338671875,0.914218388671875
-0.28707150390625,-0.07566074462890625,0.7601227294921875
-0.2756437109375,-0.09820905517578125,0.765775361328125
-0.2746711328125,-0.0332601171875,0.882760263671875
-0.1803310546875,-0.1817848583984375,0.9080742236328125
0.067190078125,-0.17320669677734374,1.004660498046875
-0.040279804687500004,-0.279330810546875,1.2590289306640625
-0.36585033203125,-0.07811164794921875,1.275003759765625
-0.331566953125,-0.07173929931640625,1.1880023828125
-0.29387955078125,-0.2102153369140625,0.973202373046875
-0.43052677734375,0.0133070458984375,0.9601767431640625
-0.23139140625,-0.01830960693359375,0.8918536279296875
-0.28755779296875,0.02041466552734375,0.8422087744140625
-0.38311359375,0.0691876416015625,0.8422087744140625
0.034608710937499995,-0.10262068115234375,0.9041419580078125
-0.21753216796875,-0.29011478515625,1.0943653076171875
-0.43101306640625,-0.10360104248046875,1.3401319091796875
-0.187625390625,0.0397768017578125,1.229291171875
-0.27613,0.05864875732421875,1.072492080078125
-0.24962724609375,0.19786006591796876,0.96877857421875
-0.131215859375,0.0142874072265625,0.92748978515625
-0.19832375,0.17482157470703125,1.0766701123046876
-0.36974064453125,-0.02076051025390625,0.9931094677734374
-0.13680818359375,-0.093062158203125,0.929947451171875
-0.370470078125,-0.06389640869140625,0.93928658203125
-0.26178447265625,-0.09036616455078125,0.890624794921875
-0.39745912109375,-0.118551552734375,0.8259881787109375
-0.22725794921875,-0.1273748046875,0.9238032861328125
-0.21072412109375,-0.05556333740234375,1.0722463134765625
-0.2542469921875,-0.0308092138671875,1.1150097021484375
-0.2406308984375,-0.13129625,1.0486527197265625
-0.103983671875,-0.0999246875,0.9756600390625
-0.27880458984375,-0.20800952392578126,0.8830060302734375
-0.2022140625,-0.12958061767578125,0.95698177734375
-0.19613544921875,-0.034240478515625,1.086255009765625
-0.29776986328125,-0.07370002197265625,1.1852989501953124
-0.2450075,-0.0023787353515625003,1.2369099365234375
-0.3495596484375,-0.10164031982421876,1.06315294921875
-0.28512634765625,-0.1219828173828125,0.943710380859375
-0.177899609375,-0.08497417724609375,0.888658662109375
-0.26421591796875,-0.06438658935546875,0.93535431640625
-0.32354318359375,-0.12467881103515625,1.0265337255859375
-0.31235853515625,-0.1190417333984375,0.9717277734375
-0.1166271875,-0.09036616455078125,0.8161575146484374
-0.15066742187499998,0.05864875732421875,0.8537598046875
-0.11103486328125,0.019434304199218752,0.981066904296875
-0.24816837890625,0.0456589697265625,1.06905134765625
-0.2795340234375,-0.0366913818359375,1.001711298828125
-0.24379177734375002,-0.0631611376953125,1.00416896484375
-0.22434021484375,-0.0043394580078125,0.9759058056640625
-0.18470765625,-0.09771887451171875,0.965829375
-0.32013916015625,-0.0406128271484375,1.01006736328125
-0.25084296875,-0.0999246875,1.0766701123046876
-0.38870591796875,-0.0298288525390625,1.101984072265625
-0.3417790234375,-0.1739419677734375,0.96877857421875
-0.18543708984375,-0.21438187255859376,0.946168046875
-0.11443888671875,-0.217568046875,0.8557259375
-0.08355953125,-0.16830489013671876,0.83901380859375
-0.195406015625,-0.21193096923828125,0.912252255859375
-0.13607875,-0.01291761962890625,1.0270252587890625
-0.42128728515625,-0.0724745703125,1.029237158203125
-0.29582470703125,-0.040122646484374996,1.107882470703125
-0.3359435546875,0.1123235400390625,1.0840431103515624
-0.2552195703125,-0.07075893798828126,0.9252778857421875
-0.1832487890625,-0.05801424072265625,0.96681244140625
-0.2921775390625,-0.15556019287109374,1.0343982568359376
-0.30166017578125,-0.104826494140625,1.0810939111328124
-0.24525064453125,0.04149243408203125,1.055779951171875
-0.27515742187500003,-0.02076051025390625,0.8176321142578125
-0.0986344921875,-0.16291290283203125,0.7866655224609375
-0.23455228515625,-0.1509034765625,0.841471474609375
-0.24038775390625,-0.18987283935546875,0.868997333984375
-0.19808060546875,-0.07713128662109375,0.883743330078125
-0.263486484375,0.0887948681640625,0.97860923828125
-0.36001486328125,0.03708080810546875,0.961897109375
-0.037362070312499995,-0.09085634521484375,1.0167030615234376
-0.18203306640625,-0.0857094482421875,1.2403506689453125
-0.4915560546875,0.0348749951171875,1.2831140576171876
-0.47429279296875,0.10619628173828125,1.03562708984375
-0.329621796875,-0.01561361328125,0.6996641455078125
-0.12124693359375,-0.05997496337890625,0.6180696337890625
0.01734544921875,-0.11732610107421874,0.7198170068359375
-0.04052294921875,-0.189137568359375,1.016457294921875
-0.2892598046875,-0.03644629150390625,1.1951296142578125
-0.28512634765625,-0.060710234375,1.2506728662109374
-0.37606240234375,0.03021827880859375,1.1808751513671876
-0.26664736328125,-0.0739451123046875,1.0147369287109376
-0.29169125,-0.04036773681640625,0.991880634765625
-0.25303126953125,-0.05801424072265625,0.85277673828125
-0.16695810546875,-0.049926259765625,0.773148359375
-0.26956509765625,-0.0798272802734375,0.831640810546875
-0.310170234375,-0.03252484619140625,1.0466865869140625
-0.19759431640625,-0.10115013916015625,1.175714052734375
-0.24573693359375,-0.0028689160156250004,1.2364184033203125
-0.25789416015625,-0.06389640869140625,0.9950756005859375
-0.04052294921875,-0.05605351806640625,0.8313950439453125
-0.14458880859375,-0.07762146728515625,0.7827332568359375
-0.25886673828125,-0.0317895751953125,0.9405154150390624
-0.28415376953125,0.01845394287109375,1.0835515771484374
-0.2581373046875,-0.08497417724609375,1.0501273193359375
-0.19078626953125,0.008895419921875,0.9862280029296875
-0.33764556640625,-0.11683592041015625,0.8839890966796875
-0.24427806640625,-0.06781785400390625,0.9282270849609375
-0.32743349609375,-0.042083369140625,0.9326508837890625
-0.3019033203125,0.05325677001953125,0.8884128955078126
-0.1239215234375,-0.010221625976562499,0.8687515673828125
-0.14580453125,0.026296833496093748,0.94518498046875
-0.14069849609375001,0.024581201171875,1.0751955126953125
-0.2668905078125,-0.03105430419921875,1.1145181689453125
-0.29922873046875,-0.04698517578125,1.0825685107421874
-0.1433730859375,-0.01389798095703125,1.0535680517578125
-0.2736985546875,-0.10262068115234375,1.0584833837890626
-0.22677166015625,-0.0641414990234375,1.11230626953125
-0.2980130078125,-0.030319033203124998,1.0712632470703125
-0.31381740234375,-0.0190448779296875,1.01006736328125
-0.35417939453125,-0.02321141357421875,0.8734211328125
-0.26081189453125,-0.03448556884765625,0.7984623193359375
-0.13680818359375,-0.011201987304687501,0.8576920703124999
-0.19419029296875,-0.10899302978515625,0.984016103515625
-0.21218298828125,-0.06879821533203125,1.024813359375
-0.1949197265625,-0.15948163818359376,0.9503460791015625
-0.209022109375,-0.1288453466796875,0.9144641552734375
-0.22968939453125,-0.06683749267578125,0.9272440185546875
-0.20342978515625,-0.21046042724609376,0.859166669921875
-0.20780638671875,-0.01879978759765625,0.84294607421875
-0.199296328125,-0.12149263671875,0.8058353173828126
-0.18397822265625,-0.046740085449218746,0.871455
-0.3194097265625,-0.00311400634765625,1.0149826953125
-0.2425760546875,-0.10752248779296875,1.104933271484375
-0.33642984375,0.0407571630859375,1.1425355615234376
-0.2425760546875,0.021640117187500002,1.0088385302734375
-0.2289599609375,-0.05164189208984375,0.9183964208984375
-0.20488865234375,-0.02958376220703125,0.848352939453125
-0.14458880859375,-0.00997653564453125,0.82721701171875
-0.10519939453125,-0.0371815625,0.95304951171875
-0.25886673828125,0.0074248779296875,1.1174673681640626
-0.2386857421875,-0.037916833496093746,1.0452119873046875
-0.20415921875,0.06158984130859375,1.008592763671875
-0.25157240234375,0.10595119140625,1.0346440234375
-0.290718671875,-0.13301188232421876,0.995812900390625
-0.3301080859375,-0.026397587890625,0.992863701171875
-0.28318119140625,-0.024436865234375,1.0019570654296874
-0.26421591796875,-0.046249904785156254,0.9601767431640625
-0.26664736328125,-0.16585398681640626,0.9090572900390625
-0.13413359375,-0.08007237060546875,0.7994453857421875
-0.16598552734375,-0.1376685986328125,0.7399698681640625
-0.16744439453124998,-0.1366882373046875,0.8783364648437499
-0.14191421875,-0.0455146337890625,1.043000087890625
-0.27831830078124997,-0.025662316894531252,1.1218911669921874
-0.24962724609375,-0.04085791748046875,1.2310115380859374
-0.2513292578125,0.028257556152343752,1.1567900244140625
-0.25473328125,-0.012672529296875,1.0122792626953125
-0.36366203125,-0.004829638671875,0.9714820068359376
-0.2921775390625,0.03315936279296875,1.028745625
-0.302389609375,-0.08546435791015625,0.9754142724609375
-0.2644590625,-0.046249904785156254,0.929947451171875
-0.20002576171875,-0.11561046875,0.761843095703125
-0.11079171875,-0.1170810107421875,0.7475886328125
-0.113709453125,-0.0602200537109375,0.845403740234375
-0.26518849609375,-0.0229663232421875,1.15949345703125
-0.29290697265625,0.0037485229492187503,1.28729208984375
-0.3806821484375,0.0231106591796875,1.2260962060546876
-0.245980078125,0.0868341455078125,1.081339677734375
-0.29436583984375,0.0358553564453125,0.9847534033203125
-0.3028758984375,0.0008074389648437498,0.9513291455078126
-0.28415376953125,0.00472888427734375,0.9795923046875
-0.2503566796875,-0.00654527099609375,1.0982975732421876
-0.24719580078125,-0.02664267822265625,1.1054248046875
-0.2488978125,-0.0347306591796875,1.0184234277343749
-0.1433730859375,-0.0474753564453125,0.931913583984375
-0.1112780078125,-0.16830489013671876,0.9424815478515625
-0.20683380859375,-0.18546121337890625,1.0447204541015624
-0.183735078125,-0.21389169189453125,1.093136474609375
-0.16793068359375,-0.26241957763671875,1.128526865234375
-0.358799140625,-0.028358310546875,1.0776531787109376
-0.38870591796875,-0.11389483642578124,0.889641728515625
-0.28585578125,-0.02321141357421875,0.8333611767578125
-0.22142248046875002,0.0162481298828125,0.792318154296875
-0.247925234375,0.02482629150390625,0.859166669921875
-0.119544921875,-0.07419020263671874,0.973202373046875
-0.17425244140625,-0.05997496337890625,0.9926179345703126
-0.1968648828125,0.10276501708984374,0.9670582080078125
-0.2231244921875,-0.10801266845703125,0.8677685009765626
-0.02520484375,-0.04428918212890625,0.9591936767578125
-0.28366748046875,0.04492369873046875,1.0938737744140625
-0.33813185546875,0.008895419921875,1.3089195507812499
-0.35101851562499997,-0.06193568603515625,1.383141064453125
-0.42371873046874997,-0.057278969726562504,1.04939001953125
