ax,ay,az
-0.292663828125,-0.11830646240234374,0.9999909326171875
-0.3145468359375,-0.01487834228515625,0.8967689599609375
-0.1813036328125,-0.11561046875,0.6453497265625
-0.05413904296875,-0.0455146337890625,0.6571465234375
-0.05948822265625,-0.00948635498046875,0.7945300537109374
-0.11054857421875,-0.0729647509765625,1.1985703466796875
-0.39162365234375,0.0883046875,1.4477776806640625
-0.3427516015625,0.06673673828125,1.2364184033203125
-0.22385392578125,0.08903995849609375,1.09264494140625
-0.300444453125,0.130460224609375,1.0437373876953124
-0.30530734375,0.008895419921875,1.0697886474609375
-0.20975154296875,0.08658905517578125,1.1172216015625
-0.16598552734375,0.00668960693359375,0.9820499707031249
-0.12805498046875,-0.04575972412109375,0.943710380859375
-0.08307324218750001,-0.025662316894531252,1.0850261767578124
-0.10811712890625,0.081442158203125,1.2138078759765625
-0.19370400390625,0.0378160791015625,1.249444033203125
-0.23649744140625,0.03928662109375,1.261240830078125
-0.2143712890625,-0.04526954345703125,1.1956211474609375
-0.1968648828125,-0.067572763671875,1.3642170361328125
-0.325731484375,-0.07271966064453125,1.438192783203125
-0.34493990234375,-0.006790361328125,1.2113502099609375
-0.203186640625,-0.1474722119140625,0.9493630126953125
-0.26567478515625,0.0338946337890625,0.9655836083984375
-0.12465095703125,0.03708080810546875,1.102967138671875
-0.1248941015625,-0.020515419921875,1.177680185546875
-0.0733474609375,-0.045024453125,1.0029401318359374
0.03436556640625,-0.042083369140625,0.9940925341796875
-0.03225603515625,-0.1111988427734375,1.16342572265625
-0.13291787109375,-0.18153976806640626,1.2998261865234375
-0.1239215234375,0.0162481298828125,1.450972646484375
-0.25157240234375,0.0162481298828125,1.3617593701171875
-0.37581925781250003,-0.01389798095703125,1.2319946044921875
-0.346155625,-0.03693647216796875,1.2312573046875
-0.34980279296875,-0.05115171142578125,1.2491982666015624
-0.2795340234375,0.00227798095703125,1.0476696533203125
-0.0033218359375,-0.1259042626953125,0.8427003076171875
-0.061190234375,-0.0881603515625,0.891607861328125
-0.1141957421875,-0.01095689697265625,0.9886856689453125
0.1245721875,-0.085219267578125,1.1425355615234376
0.13308224609375,0.095167216796875,1.4748120068359376
-0.23698373046875,0.10080429443359375,1.532567158203125
-0.04878986328125,-0.03546593017578125,1.31875021484375
-0.28707150390625,0.03536517578125,1.213070576171875
-0.1783858984375,0.0319339111328125,1.2875378564453124
-0.2912049609375,-0.05090662109375,1.3937090283203124
-0.3811684375,0.04394333740234375,1.38264953125
-0.21850474609375,0.0358553564453125,0.9990078662109375
-0.1910294140625,-0.08987598388671875,0.8009199853515625
-0.13413359375,-0.0803174609375,0.77609755859375
-0.004051269531250002,-0.09869923583984375,0.82721701171875
-0.089395,-0.0876701708984375,0.872929599609375
-0.10130908203125,-0.12173772705078124,0.8279543115234375
-0.02107138671875,-0.1749223291015625,0.7773263916015625
-0.019369375,-0.04281864013671875,0.816894814453125
-0.20780638671875,-0.1700205224609375,0.9100403564453124
-0.190543125,-0.19575500732421874,1.031203291015625
-0.07650833984375,0.0397768017578125,1.1828412841796876
-0.31041337890625,-0.065612041015625,1.1250861328125
-0.32208431640625,-0.06389640869140625,1.1071451708984374
-0.18592337890625,0.06257020263671875,1.1005094726562499
-0.115654609375,0.05815857666015625,0.9301932177734376
-0.16501294921875,0.0387964404296875,0.851302138671875
0.00616080078125,-0.08595453857421875,0.947642646484375
-0.12246265625,-0.016593974609375,1.0896957421875
-0.1764407421875,-0.098944326171875,1.035135556640625
-0.038091503906250004,-0.01953505859375,0.9670582080078125
-0.2450075,-0.0945327001953125,0.8141913818359375
-0.109819140625,0.050070595703125,0.7790467578125
-0.16452666015625,-0.0001729223632812504,0.688113115234375
-0.14969484375,-0.01585870361328125,0.6559176904296875
-0.12076064453125,-0.01095689697265625,0.7515208984375
-0.1501811328125,-0.0406128271484375,0.90586232421875
-0.191515703125,0.05423713134765625,1.00023669921875
-0.19467658203125,-0.0876701708984375,0.9002096923828125
-0.1939471484375,-0.013407800292968751,0.9051250244140625
-0.040766093749999996,0.059874208984374996,0.9390408154296875
-0.2435486328125,-0.06144550537109375,0.8579378369140624
-0.05511162109375,0.020659755859375,0.9301932177734376
-0.27029453125,-0.0719843896484375,0.8731753662109375
-0.1530988671875,0.00791505859375,0.8952943603515625
-0.045872128906250004,-0.0121823486328125,0.8019030517578125
-0.15480087890625,-0.03889719482421875,0.7384952685546875
-0.05632734375,-0.02860340087890625,0.765775361328125
-0.09790505859375,-0.08007237060546875,0.8879213623046875
-0.185680234375,-0.1111988427734375,1.0167030615234376
-0.237226875,-0.00801581298828125,1.130492998046875
-0.21023783203125002,-0.013162709960937501,1.055779951171875
-0.2347954296875,-0.091101435546875,0.9009469921875
-0.10519939453125,-0.0001729223632812504,0.8333611767578125
-0.060947089843749996,-0.05115171142578125,0.873912666015625
-0.109819140625,0.00766996826171875,1.0147369287109376
-0.12659611328125,0.09149086181640625,1.1091113037109375
-0.13923962890625,0.0201695751953125,1.0324321240234375
-0.0752926171875,0.10766682373046875,1.0550426513671876
-0.11687033203125,0.1074217333984375,1.0688055810546875
-0.14556138671875,-0.12565917236328125,1.060695283203125
-0.21996361328125,0.02139502685546875,1.0825685107421874
-0.20488865234375,-0.05409279541015625,1.03562708984375
-0.07893978515625,-0.077376376953125,1.0442289208984374
-0.27394169921875,0.02286556884765625,1.048406953125
-0.19467658203125,-0.05605351806640625,1.064627548828125
-0.1297569921875,0.05178622802734375,1.1211538671875
-0.26154132812499997,-0.09330724853515625,1.0992806396484376
-0.09547361328125001,-0.0798272802734375,1.079373544921875
-0.10519939453125,-0.116590830078125,0.9179048876953125
-0.1569891796875,-0.03301502685546875,0.8284458447265625
-0.12756869140625,0.05521749267578125,0.8023945849609375
-0.113709453125,-0.06267095703125,0.8618701025390625
-0.0791829296875,-0.02272123291015625,0.9749227392578125
-0.1706052734375,0.09590248779296875,1.1125520361328125
-0.10374052734375,-0.09673851318359375,1.1054248046875
-0.2075632421875,0.0152677685546875,1.0933822412109375
-0.1219763671875,0.06649164794921875,1.1997991796875
-0.23163455078125,-0.0308092138671875,1.1641630224609374
-0.2450075,-0.01634888427734375,1.17129025390625
-0.21558701171875,0.06306038330078124,1.2319946044921875
-0.2941226953125,-0.034240478515625,1.0771616455078126
-0.103983671875,0.019679394531249998,0.9380577490234375
-0.055354765624999996,0.0054641552734375,0.8417172412109375
-0.03906408203125,-0.10972830078125,0.8407341748046875
-0.06775513671875,-0.09869923583984375,0.8427003076171875
-0.01766736328125,-0.07468038330078125,1.0353813232421876
-0.2766162890625,-0.012672529296875,1.1405694287109376
-0.14580453125,0.05472731201171875,1.1268064990234374
-0.21972046875,-0.01487834228515625,1.091661875
-0.17619759765625,0.130460224609375,1.2430541015625
-0.24136033203125,0.13021513427734374,1.280410625
-0.33181009765625,0.0417375244140625,1.2430541015625
-0.1910294140625,0.17040994873046875,1.2565712646484375
-0.1866528125,0.07850107421875,1.1056705712890624
-0.08866556640625001,0.04639424072265625,0.99040603515625
-0.0500055859375,-0.04134809814453125,0.98942296875
-0.04295439453125,-0.044534272460937496,1.0235845263671874
-0.15091056640625,-0.09575815185546875,1.037101689453125
-0.17327986328125,-0.17320669677734374,1.0830600439453124
-0.18057419921875,-0.04330882080078125,1.1690783544921874
-0.26081189453125,-0.02468195556640625,1.2098756103515624
-0.24938410156250002,-0.0798272802734375,1.1091113037109375
-0.20877896484375,-0.013162709960937501,0.97369390625
-0.304334765625,-0.092081796875,0.890624794921875
-0.3262177734375,-0.03546593017578125,0.8741584326171875
-0.12562353515625,-0.1464918505859375,0.8884128955078126
-0.17619759765625,-0.20972515625,0.93142205078125
-0.23698373046875,-0.045024453125,0.9835245703125
-0.1881116796875,-0.11536537841796875,1.08281427734375
-0.16720125,-0.01389798095703125,0.9756600390625
-0.15480087890625,0.03315936279296875,0.9051250244140625
-0.2309051171875,0.0142874072265625,0.9528037451171875
-0.2075632421875,0.0069346972656249995,1.032677890625
-0.13923962890625,0.04149243408203125,1.175714052734375
-0.30992708984375,7.216796875000007e-05,1.3086737841796876
-0.34056330078125,0.064776015625,1.3735561669921874
-0.2824517578125,-0.0494360791015625,1.2511643994140624
-0.36730919921875,0.00865032958984375,1.072000546875
-0.36050115234375,0.00791505859375,0.8844806298828125
-0.1385101953125,-0.05360261474609375,0.8333611767578125
-0.1555303125,-0.042083369140625,0.8800568310546875
-0.2177753125,-0.12909043701171874,0.8382765087890625
-0.12270580078125,-0.1553151025390625,0.690079248046875
-0.04003666015625,-0.1509034765625,0.6362563623046875
-0.12343523437500001,-0.1474722119140625,0.737266435546875
-0.20051205078125,-0.03350520751953125,0.8159117480468749
-0.2357680078125,0.1711452197265625,1.032677890625
-0.26275705078125,0.18854663330078125,1.1857904833984374
-0.1851939453125,0.0789912548828125,1.2899955224609374
-0.251815546875,0.2250650927734375,1.3440641748046875
-0.34810078125,0.09835339111328124,1.2531305322265625
-0.33642984375,0.11698025634765626,1.215036708984375
-0.22336763671875,0.03315936279296875,1.089204208984375
-0.2970404296875,-0.03129939453125,0.9700074072265625
-0.22944625,-0.06683749267578125,0.9380577490234375
-0.16185207031249998,-0.12811007568359375,0.9272440185546875
-0.09595990234375,-0.15507001220703126,0.8734211328125
-0.18835482421875,-0.1376685986328125,0.9007012255859375
-0.2411171875,-0.060710234375,1.0117877294921875
-0.16136578125,-0.10409122314453124,1.0063808642578125
-0.299471875,0.02580665283203125,0.981066904296875
-0.20780638671875,7.216796875000007e-05,0.965337841796875
-0.22677166015625,-0.10409122314453124,0.9203625537109374
-0.2805066015625,-0.0866898095703125,0.9385492822265625
-0.20148462890625,-0.10507158447265624,0.957473310546875
-0.23114826171875,-0.0710040283203125,0.9953213671875
-0.26032560546875,-0.00213364501953125,1.0904330419921875
-0.154557734375,-0.11536537841796875,0.965829375
-0.3111428125,0.09247122314453125,0.986965302734375
-0.1881116796875,0.04247279541015625,1.0201437939453124
-0.09887763671875,-0.0332601171875,1.01596576171875
-0.28318119140625,0.011346323242187501,0.89799779296875
-0.1433730859375,0.01551285888671875,0.91176072265625
-0.17960162109375,-0.01144707763671875,0.8419630078125
-0.2892598046875,0.038306259765625,0.9473968798828125
-0.27005138671875,0.03659062744140625,1.1132893359375
-0.25740787109375,-0.0425735498046875,1.145238994140625
-0.2756437109375,0.05913893798828125,1.1110774365234375
-0.3301080859375,0.04835496337890625,0.9036504248046875
-0.2912049609375,0.03021827880859375,0.8159117480468749
-0.273212265625,-0.06879821533203125,0.7161305078125
-0.076751484375,-0.00997653564453125,0.6623076220703125
-0.08526154296874999,0.08634396484375,0.722520439453125
-0.21607330078125,0.089285048828125,0.7630719287109375
-0.24281919921875,0.122617333984375,0.8790737646484375
-0.2022140625,0.106931552734375,1.0368559228515626
-0.14653396484375,0.15227326416015624,1.1739936865234375
-0.2177753125,0.18952699462890624,1.2501813330078124
-0.25205869140625,0.09394176513671874,1.2509186328125
-0.3213548828125,0.0456589697265625,1.21847744140625
-0.32305689453124997,-0.0680629443359375,1.2103671435546874
-0.3145468359375,-0.20997024658203126,1.1916888818359375
-0.21801845703125,-0.161687451171875,1.1966042138671875
-0.1530988671875,-0.19036302001953126,1.0407881884765624
-0.1890842578125,-0.123453359375,0.959439443359375
-0.2396583203125,-0.10997339111328125,0.9473968798828125
-0.1482359765625,-0.0631611376953125,1.0830600439453124
-0.25011353515625,-0.028113220214843748,1.1794005517578126
-0.2211793359375,-0.01169216796875,1.2565712646484375
-0.23260712890625002,-0.015368522949218751,1.1612138232421876
-0.2124261328125,0.010611052246093749,0.942727314453125
-0.2561921484375,-0.051886982421875,0.89406552734375
-0.23990146484375,-0.0053198193359375,0.934862783203125
-0.35223423828125,0.0182088525390625,1.056271484375
-0.2581373046875,0.01208159423828125,1.19684998046875
-0.33983386718749997,-0.0011532836914062497,1.2088925439453124
-0.3466419140625,-0.02149578125,1.1504000927734375
-0.2649453515625,0.077520712890625,0.9407611816406249
-0.25740787109375,0.021640117187500002,0.7635634619140625
-0.19856689453125,-0.03595611083984375,0.6291291308593749
-0.08988128906250001,-0.01634888427734375,0.525907158203125
-0.0607039453125,-0.0886505322265625,0.6077474365234374
-0.07504947265625,-0.03840701416015625,0.7746229589843749
-0.18592337890625,-0.008751083984375,0.9478884130859375
-0.19224513671875,0.104970830078125,1.1329506640625
-0.236254296875,0.12139188232421876,1.2408422021484375
-0.2639727734375,0.14148928955078124,1.31285181640625
-0.3213548828125,0.12090170166015625,1.257308564453125
-0.30798193359375,0.03928662109375,1.2155282421875
-0.2707808203125,0.0231106591796875,1.0063808642578125
-0.21461443359375,0.057913486328125,0.8628531689453125
-0.10811712890625,0.07776580322265625,0.8171405810546875
-0.20975154296875,-0.01978014892578125,0.8205813134765625
-0.179844765625,0.02972809814453125,0.9685328076171875
-0.13802390625,0.06894255126953125,1.08281427734375
-0.17911533203125,-0.013652890625,1.031203291015625
-0.20099833984375,-0.06585713134765625,0.980083837890625
-0.14993798828125,-0.048455717773437504,0.9557529443359375
-0.245980078125,-0.034240478515625,0.9488714794921875
-0.30506419921875,-0.05262225341796875,1.06315294921875
-0.28220861328125,-0.0592396923828125,1.1381117626953126
-0.30919765625,-0.0739451123046875,1.09067880859375
-0.26567478515625,-0.0670825830078125,0.977134638671875
-0.11978806640625,-0.0915916162109375,0.8697346337890625
-0.1511537109375,-0.08497417724609375,0.8982435595703124
-0.17960162109375,-0.00409436767578125,1.0933822412109375
-0.20026890625,-0.0317895751953125,1.23027423828125
-0.3135742578125,0.04247279541015625,1.3303012451171874
-0.33861814453125,0.0417375244140625,1.157035791015625
-0.294608984375,0.06306038330078124,0.9287186181640625
-0.14896541015625,-0.0994345068359375,0.797233486328125
-0.05559791015625,-0.12149263671875,0.7704449267578125
-0.1842213671875,-0.02860340087890625,0.9596852099609375
-0.32451576171875,-0.018554697265625,1.0919076416015625
-0.1676875390625,-0.02223105224609375,1.240596435546875
-0.387976484375,0.01404231689453125,1.188493916015625
-0.25157240234375,-0.00654527099609375,0.905370791015625
-0.13632189453125,-0.07860182861328124,0.8667854345703125
-0.1783858984375,-0.0827683642578125,0.8839890966796875
-0.27053767578125,-0.1964902783203125,0.8476156396484374
-0.13607875,-0.11977700439453125,0.7714279931640625
-0.30409162109375,-0.04698517578125,0.757910830078125
-0.30311904296875003,0.024091020507812498,0.7886316552734375
-0.09523046875,0.14982236083984374,0.847369873046875
-0.23528171875,0.15129290283203126,0.8498275390625
-0.244034921875,0.06281529296875,0.8594124365234375
-0.25205869140625,0.06060947998046875,0.9788550048828125
-0.21412814453125,0.0505607763671875,0.9872110693359375
-0.23017568359375,-0.0200252392578125,0.865065068359375
-0.1521262890625,-0.0866898095703125,0.9503460791015625
-0.2561921484375,0.00717978759765625,1.0299744580078125
-0.329621796875,0.0201695751953125,0.9709904736328125
-0.2386857421875,-0.0808076416015625,0.8810398974609375
-0.203186640625,-0.0808076416015625,1.0221099267578124
-0.10957599609375,0.04639424072265625,1.150645859375
-0.236254296875,-0.02664267822265625,1.095594140625
-0.25594900390624997,0.016738310546875,1.1921804150390625
-0.257651015625,0.00717978759765625,1.0191607275390624
-0.28123603515625,-0.046740085449218746,0.833606943359375
-0.24962724609375,0.0564429443359375,0.9169218212890625
-0.18349193359375,0.04345315673828125,0.8712092333984375
-0.28196546875,-0.077376376953125,0.8063268505859374
-0.25789416015625,-0.0332601171875,0.9262609521484375
-0.18859796875,-0.05360261474609375,0.9744312060546875
-0.39648654296875,-0.07958218994140626,1.0167030615234376
-0.329621796875,0.05570767333984375,1.043000087890625
-0.21266927734375,-0.02958376220703125,0.802148818359375
-0.14556138671875,0.049090234375,0.70531677734375
-0.07869664062500001,-0.0670825830078125,0.7266984716796875
-0.022530253906250002,-0.11683592041015625,0.9604225097656249
-0.1676875390625,-0.071494208984375,1.2609950634765625
-0.475508515625,-0.06928839599609375,1.307444951171875
-0.09206958984375,0.0231106591796875,1.2354353369140625
-0.269321953125,-0.0406128271484375,0.9419900146484375
-0.27783201171875,0.00276816162109375,1.1017383056640626
-0.29825615234375,-0.018554697265625,1.19095158203125
-0.16209521484375,0.02286556884765625,1.1946380810546875
-0.32281375,0.026541923828125,1.19390078125
-0.30020130859375,-0.01978014892578125,1.2784444921875
-0.2532744140625,-0.06267095703125,1.11623853515625
-0.1710915625,0.03928662109375,1.015474228515625
-0.16209521484375,-0.042328459472656246,0.9193794873046874
-0.107873984375,-0.09624833251953124,0.95108337890625
-0.0286088671875,0.04541387939453125,0.986965302734375
-0.0315266015625,0.0250713818359375,0.9407611816406249
-0.04052294921875,0.013552136230468751,1.0766701123046876
-0.2552195703125,-0.07762146728515625,1.1907058154296875
-0.09352845703125,0.016738310546875,1.3239113134765625
-0.26616107421875,-0.07517056396484376,1.1710444873046875
-0.292663828125,-0.05703387939453125,1.0987891064453126
-0.09085386718749999,-0.05458297607421875,1.0444746875
-0.327676640625,-0.0092412646484375,0.9763973388671875
-0.267376796875,0.09345158447265625,0.9822957373046874
-0.1560166015625,-0.034240478515625,0.9292101513671875
-0.21801845703125,0.13021513427734374,0.837539208984375
-0.08720669921875,0.0985984814453125,0.7733941259765625
-0.01742421875,-0.02517213623046875,0.6623076220703125
-0.0451426953125,0.069677822265625,0.6913080810546874
-0.08185751953125,-0.042328459472656246,0.7768348583984375
-0.08428896484375001,0.099088662109375,0.9252778857421875
-0.25546271484375,0.05864875732421875,1.0579918505859376
-0.30944080078125,0.16452778076171876,1.1548238916015625
-0.35199109375,0.1103628173828125,1.1683410546875
-0.3203823046875,-0.0072805419921875,1.18505318359375
-0.38919220703125,0.12776423095703124,1.1626884228515626
-0.27199654296875,0.11698025634765626,0.9822957373046874
-0.17692703125,0.052031318359375,0.8323781103515625
-0.15820490234375,0.04541387939453125,0.84097994140625
-0.17303671874999998,0.00619942626953125,0.855234404296875
-0.164283515625,-0.060710234375,0.9326508837890625
-0.04441326171875,-0.01634888427734375,0.9970417333984375
-0.15917748046875,-0.16095218017578125,0.883743330078125
-0.0947441796875,-0.12149263671875,0.928964384765625
-0.18397822265625,-0.19526482666015624,1.00023669921875
-0.24476435546875,-0.05752406005859375,1.0466865869140625
-0.34250845703125,-0.11193411376953125,1.07888201171875
-0.26640421875,-0.02860340087890625,1.08871267578125
-0.32451576171875,0.04002189208984375,1.0570087841796876
-0.284883203125,-0.08423890625,0.974185439453125
-0.18884111328125,-0.0710040283203125,0.8972604931640625
-0.24306234375,0.018699033203125,0.8333611767578125
-0.11978806640625,-0.07173929931640625,0.823776279296875
-0.168173828125,0.0059543359375,0.89799779296875
-0.14361623046875,0.01698340087890625,0.9169218212890625
-0.162338359375,-0.07271966064453125,0.7606142626953125
-0.10811712890625,0.04933532470703125,0.75840236328125
-0.1433730859375,-0.0415931884765625,0.7694618603515625
-0.21753216796875,-0.0249270458984375,0.8997181591796874
-0.2435486328125,0.03266918212890625,1.0530765185546875
-0.3359435546875,0.0010525292968750002,1.099034873046875
-0.2717533984375,0.05619785400390625,1.0673309814453125
-0.2795340234375,0.1084020947265625,0.9990078662109375
-0.11298001953125,0.1868310009765625,0.9832788037109375
-0.14312994140625,0.03266918212890625,0.997779033203125
-0.2338228515625,0.104970830078125,1.2211808740234376
-0.2163164453125,0.021640117187500002,1.28827515625
-0.20732009765625,0.00766996826171875,1.00220283203125
-0.09644619140624999,0.05962911865234375,0.963371708984375
-0.15285572265625,0.0037485229492187503,0.9297016845703125
-0.27734572265625,-0.042083369140625,0.86653966796875
-0.074806328125,7.216796875000007e-05,0.8557259375
-0.1064151171875,-0.012427438964843749,0.9245405859375
-0.16914640625,-0.08497417724609375,1.0176861279296876
-0.19467658203125,-0.0719843896484375,1.043983154296875
-0.2474389453125,-0.0724745703125,1.0543053515625
-0.15917748046875,-0.077376376953125,1.009084296875
-0.19759431640625,-0.1366882373046875,0.8564632373046875
-0.06824142578125,-0.14624676025390626,0.913235322265625
-0.09401474609375,-0.0999246875,1.0697886474609375
-0.10519939453125,-0.0170841552734375,1.089204208984375
-0.156502890625,-0.17614778076171875,0.8989808593749999
-0.02982458984375,-0.0425735498046875,0.928964384765625
-0.0714023046875,-0.0259074072265625,0.934862783203125
-0.0344443359375,-0.11634573974609375,0.994829833984375
-0.17327986328125,0.0191892138671875,1.0909245751953125
-0.16112263671875,0.01404231689453125,1.1774344189453125
-0.1803310546875,0.1054610107421875,1.19684998046875
-0.160393203125,0.1829095556640625,1.1798920849609376
-0.13680818359375,0.10374537841796876,1.158510390625
-0.13340416015625,-0.083258544921875,1.0270252587890625
0.024396640625,0.06306038330078124,1.163917255859375
-0.060460800781250004,-0.076396015625,1.1297556982421875
-0.16525609375,-0.06879821533203125,1.0550426513671876
-0.072861171875,0.0927163134765625,1.1801378515625
-0.152612578125,-0.08619962890625,1.1558069580078125
-0.21218298828125,-0.00409436767578125,1.16342572265625
0.0003253320312500002,0.0037485229492187503,1.1626884228515626
-0.08331638671875,-0.0009081933593750001,1.1258234326171874
-0.15042427734375,0.03757098876953125,1.1504000927734375
-0.20245720703125,-0.0006631030273437505,1.0700344140625
-0.1093328515625,-0.0317895751953125,1.0855177099609374
-0.236254296875,-0.03154448486328125,0.943710380859375
-0.07188859375000001,-0.0935523388671875,0.9301932177734376
0.011023691406250001,-0.0955130615234375,0.9356000830078125
-0.15042427734375,-0.15457983154296875,0.913235322265625
0.0287732421875,-0.036201201171875,1.0496357861328125
0.002756777343749999,-0.08963089355468751,1.087238076171875
-0.10106593750000001,-0.04698517578125,1.0722463134765625
-0.1477496875,-0.0455146337890625,1.0520934521484375
-0.1073876953125,-0.01046671630859375,0.9992536328125
-0.16185207031249998,0.08854977783203125,0.944693447265625
-0.0354169140625,-0.05482806640625,0.9324051171875
-0.035173769531249996,-0.04281864013671875,0.8977520263671875
-0.2255559375,0.01208159423828125,1.0329236572265625
-0.06240595703125,0.0059543359375,1.0516019189453125
0.005431367187500001,-0.124433720703125,0.9621428759765625
-0.13510617187500001,0.013552136230468751,1.096085673828125
-0.1827625,-0.048945898437499996,1.0073639306640625
-0.15164,-0.015368522949218751,0.8186151806640625
-0.02787943359375,0.0003172583007812497,0.752012431640625
-0.002835546875000001,-0.071494208984375,0.806081083984375
0.047738515625,0.04639424072265625,0.9562444775390625
-0.10325423828125,0.0397768017578125,1.027271025390625
-0.210967265625,0.0711483642578125,1.1322133642578125
-0.333512109375,0.14786163818359374,1.226833505859375
-0.2488978125,-0.006790361328125,1.0884669091796875
-0.0743200390625,0.04541387939453125,0.8576920703124999
0.0929633984375,-0.02468195556640625,0.725961171875
-0.0305540234375,-0.15457983154296875,0.7679872607421875
-0.09401474609375,-0.06438658935546875,0.707774443359375
0.037526445312500004,-0.073454931640625,0.69351998046875
0.04603650390625,-0.046740085449218746,0.94911724609375
-0.13680818359375,0.00423870361328125,1.2251131396484376
-0.20245720703125,-0.010221625976562499,1.33644541015625
-0.18251935546875,-0.04281864013671875,1.317275615234375
-0.19029998046875,-0.0523771630859375,0.9759058056640625
-0.06629626953125001,0.01012087158203125,0.772656826171875
-0.228473671875,-0.05458297607421875,0.698926845703125
0.03436556640625,-0.0200252392578125,0.7955131201171874
-0.005753281249999999,-0.112669384765625,0.872929599609375
-0.11784291015625001,-0.144040947265625,0.9238032861328125
0.004701933593749999,-0.04379900146484375,0.750046298828125
-0.13486302734375,-0.14183513427734376,0.6475616259765625
-0.020828242187500002,-0.15457983154296875,0.6040609375
0.018318027343749998,-0.11928682373046876,0.529839423828125
-0.01280447265625,0.016738310546875,0.507228896484375
-0.0694571484375,-0.01830960693359375,0.50280509765625
-0.1287844140625,-0.042328459472656246,0.5364751220703124
-0.098148203125,0.0917359521484375,0.5728485791015625
0.04846794921875,0.1079119140625,0.7561904638671875
0.092477109375,0.12629368896484375,0.8677685009765626
0.166393046875,-0.042328459472656246,1.0658563818359374
0.2505210546875,-0.06781785400390625,1.3300554785156251
0.25659966796875,0.09002031982421875,1.608263271484375
-0.0665394140625,0.39932431884765623,1.6126870703125
-0.00502384765625,0.1329111279296875,1.8631232373046875
-0.41545181640625,0.13413657958984376,1.769486162109375
-0.50833302734375,0.3365811938476562,1.449498046875
-0.563040546875,0.199085517578125,1.1990618798828125
-0.53896923828125,0.25128975830078126,1.3312843115234374
-0.1375376171875,-0.06046514404296875,1.4003447265625
-0.0568136328125,-0.353838271484375,1.4276248193359375
0.1167915625,-0.23521455078125,1.2860632568359376
0.125544765625,-0.1955099169921875,1.5672202490234375
0.21088849609375,-0.163648173828125,2.129718558349609
-0.48596373046875,0.0883046875,2.129718558349609
-1.10111939453125,-0.07835673828125,2.129718558349609
-0.88715220703125,-0.49206921875,2.129718558349609
-0.47283392578125,-0.0739451123046875,0.764792294921875
0.00227048828125,-0.09183670654296874,0.303734150390625
0.08104931640625,-0.2058037109375,0.11646
-0.01742421875,-0.17957904541015626,0.1850288818359375
-0.0266637109375,-0.195019736328125,0.342073740234375
-0.0072121484375,-0.18644157470703124,0.4499652783203125
-0.0723748828125,-0.244037802734375,0.6888504150390625
-0.15820490234375,-0.3249176123046875,0.6008659716796875
-0.185680234375,-0.36339679443359374,0.7004014453125
-0.17765646484375,-0.3857000146484375,0.7753602587890625
-0.1297569921875,-0.46976599853515627,0.8451579736328125
-0.06532369140625,-0.5138822583007813,0.9621428759765625
-0.121490078125,-0.21732295654296874,1.0034316650390624
-0.25157240234375,0.049090234375,0.8594124365234375
-0.2231244921875,0.0294830078125,0.6136458349609375
-0.18300564453125,0.06109966064453125,0.4408719140625
-0.0791829296875,0.01845394287109375,0.22336847167968749
0.00227048828125,0.014777587890624999,0.152341923828125
0.07278240234375,-0.03105430419921875,0.2164870068359375
0.03631072265625,-0.03522083984375,0.10466320312499999
0.009078535156249998,-0.032279755859375,0.1304686962890625
0.014184570312499999,-0.02958376220703125,0.1673336865234375
-0.017181074218750002,-0.06291604736328126,0.18674924804687498
-0.10714455078125,-0.08056255126953125,0.2617080615234375
-0.13778076171875,-0.07468038330078125,0.1734778515625
-0.1321884375,-0.03497574951171875,0.195596845703125
-0.140941640625,0.01404231689453125,0.4101510888671875
-0.121490078125,0.08805959716796875,0.602586337890625
-0.115654609375,0.2103596728515625,1.0850261767578124
0.17441681640625,0.3566786010742187,1.8921236962890624
0.454276171875,0.34099281982421875,2.1083983056640623
0.0010547656249999988,0.3250619482421875,2.129718558349609
0.043605058593749996,0.21746729248046875,2.129718558349609
-0.42566388671875,0.22776108642578125,2.129718558349609
-0.61094001953125,0.496135,2.129718558349609
-0.73543001953125,0.191242626953125,2.129718558349609
-0.04441326171875,0.2280061767578125,1.516838095703125
0.049683671875,0.0505607763671875,1.154086591796875
0.29063990234375,-0.13301188232421876,1.4782527392578124
0.25757224609375,-0.2151171435546875,2.129718558349609
-0.21218298828125,-0.29722240478515627,2.129718558349609
-0.506631015625,0.26084828125,2.129718558349609
-0.5158705078125,-0.050661530761718754,1.7982408544921875
-0.15480087890625,-0.01438816162109375,1.4404046826171875
-0.14896541015625,-0.21291133056640624,0.9292101513671875
-0.13145900390625,-0.20727425292968749,0.7232577392578124
-0.1866528125,-0.27271337158203124,0.6627991552734375
-0.240144609375,-0.27614463623046875,0.6401886279296874
-0.30263275390625,-0.2604588549804687,0.560806015625
-0.2488978125,-0.24134180908203126,0.4538975439453125
-0.1657423828125,-0.2180582275390625,0.3585401025390625
-0.10811712890625,-0.15310928955078124,0.3526417041015625
-0.09206958984375,-0.15408965087890625,0.2961153857421875
-0.1268392578125,-0.1901179296875,0.4017950244140625
-0.181789921875,-0.20751934326171875,0.5096865625
-0.28415376953125,-0.17639287109375001,0.4558636767578125
-0.325731484375,-0.15605037353515624,0.4907625341796875
-0.31868029296875,-0.07860182861328124,0.4408719140625
-0.31576255859375,-0.0366913818359375,0.4794572705078125
-0.27029453125,0.04688442138671875,0.53622935546875
-0.27783201171875,0.10080429443359375,0.6922911474609375
-0.3262177734375,0.13854820556640626,0.7670041943359375
-0.37119951171875,0.13536203125,0.7620888623046875
-0.31673513671875,0.11207844970703125,0.626179931640625
-0.22385392578125,0.06355056396484375,0.535737822265625
-0.236254296875,0.08634396484375,0.57751814453125
-0.2255559375,0.12972495361328126,0.633061396484375
-0.20975154296875,0.159871064453125,0.694503046875
-0.2347954296875,0.1760470263671875,0.813945615234375
-0.24768208984375,0.19393862060546874,0.8697346337890625
-0.21607330078125,0.112813720703125,0.900455458984375
-0.3349709765625,0.12139188232421876,0.9444476806640625
-0.31673513671875,0.0985984814453125,0.9127437890625
-0.21996361328125,0.06943273193359376,0.987948369140625
-0.26372962890625,0.11649007568359375,0.988931435546875
-0.205131796875,0.1260485986328125,1.02088109375
-0.21266927734375,0.07482471923828125,1.0221099267578124
-0.25059982421875,0.05717821533203125,1.0152284619140626
-0.31089966796875,0.02139502685546875,1.00515203125
-0.2999581640625,0.0544822216796875,0.9916348681640625
-0.205131796875,0.023845930175781252,0.87931953125
-0.16185207031249998,-0.00262382568359375,0.8520394384765625
-0.06970029296875,-0.02027032958984375,0.9031588916015625
-0.1725504296875,-0.045024453125,0.9562444775390625
-0.25157240234375,-0.1195319140625,0.9454307470703125
-0.24768208984375,-0.06977857666015624,0.9815584374999999
-0.37071322265625,0.00521906494140625,0.9842618701171875
-0.361716875,-0.10262068115234375,0.922574453125
-0.2785614453125,-0.06487677001953125,0.9080742236328125
-0.387976484375,-0.060710234375,0.8643277685546875
-0.2513292578125,-0.037916833496093746,0.87440419921875
-0.1949197265625,-0.06389640869140625,0.8746499658203125
-0.2707808203125,-0.12075736572265625,0.9124980224609375
-0.14799283203125,-0.100905048828125,0.9788550048828125
-0.1555303125,-0.10115013916015625,0.99433830078125
-0.23698373046875,-0.04477936279296875,1.0582376171875
-0.16015005859375,-0.05482806640625,1.053813818359375
-0.24087404296875,-0.07909200927734375,1.0009739990234374
-0.24865466796875,-0.0602200537109375,0.9852449365234375
-0.30117388671875,-0.1102184814453125,0.94715111328125
-0.18932740234375,-0.0513968017578125,0.9508376123046876
-0.28853037109375,-0.10605194580078126,1.0117877294921875
-0.31722142578125,-0.077376376953125,1.102967138671875
-0.2566784375,-0.0406128271484375,1.1268064990234374
-0.2513292578125,-0.05213207275390625,1.18505318359375
-0.25108611328125,-0.0006631030273437505,1.1835785839843749
-0.2513292578125,-0.03203466552734375,1.0884669091796875
-0.16452666015625,0.04100225341796875,1.08281427734375
-0.21364185546875,-0.03448556884765625,1.12312
-0.214857578125,-0.07419020263671874,1.111814736328125
-0.2367405859375,-0.10164031982421876,1.1565442578125
-0.24233291015625,-0.011201987304687501,1.2428083349609376
-0.28755779296875,-0.010221625976562499,1.20078224609375
-0.28464005859375,-0.0411030078125,1.22437583984375
-0.28974609375,-0.0013983740234375002,1.2039772119140626
-0.3126016796875,-0.04477936279296875,1.2000449462890626
-0.19564916015625,-0.071494208984375,1.141306728515625
-0.33375525390625,-0.053847705078125,1.1125520361328125
-0.22725794921875,-0.03987755615234375,1.06315294921875
-0.13048642578125,-0.0739451123046875,1.0678225146484375
-0.2581373046875,-0.0729647509765625,1.160968056640625
-0.21169669921875,-0.045024453125,1.16145958984375
-0.29679728515625,-0.091101435546875,1.03366095703125
-0.28804408203125,-0.10727739746093751,1.0506188525390625
-0.224583359375,-0.0631611376953125,1.0122792626953125
-0.24719580078125,-0.0945327001953125,1.0181776611328126
-0.1764407421875,-0.0582593310546875,1.1125520361328125
-0.255705859375,-0.0621807763671875,1.08871267578125
-0.17571130859375,-0.09281706787109376,0.9646005419921875
-0.2338228515625,-0.09281706787109376,0.9144641552734375
-0.26056875,-0.1161006494140625,0.92748978515625
-0.21850474609375,-0.08987598388671875,0.92355751953125
-0.30068759765624997,-0.07860182861328124,0.8970147265625
-0.26032560546875,-0.049926259765625,0.8854636962890625
-0.21412814453125,-0.07222947998046875,0.8812856640625
-0.32597462890625,-0.0621807763671875,0.9292101513671875
-0.222638203125,-0.046740085449218746,0.9233117529296875
-0.257651015625,-0.02468195556640625,0.9267524853515625
-0.3135742578125,-0.00703545166015625,0.9690243408203125
-0.23357970703125,0.010856142578125,0.952557978515625
-0.2357680078125,-0.09012107421875,0.946168046875
-0.28998923828125,-0.08423890625,1.0162115283203126
-0.1813036328125,-0.00850599365234375,0.984999169921875
-0.19029998046875,-0.077376376953125,0.914218388671875
-0.302389609375,-0.00507472900390625,1.01006736328125
-0.2211793359375,0.0008074389648437498,1.0599579833984376
-0.31284482421875,-0.0474753564453125,0.946168046875
-0.273212265625,-0.02027032958984375,0.9886856689453125
-0.2581373046875,-0.00801581298828125,1.0624156494140624
-0.24962724609375,-0.0063001806640625,1.0592206835937499
-0.31478998046875,0.0030132519531249997,1.04152548828125
-0.25983931640625,-0.100905048828125,0.9439561474609375
-0.19370400390625,-0.03154448486328125,0.912252255859375
-0.13145900390625,-0.11634573974609375,0.7736398925781249
-0.17376615234375,-0.0768861962890625,0.827708544921875
-0.12756869140625,-0.008996174316406251,0.996795966796875
-0.26907880859375,-0.14281549560546875,0.970253173828125
-0.3233000390625,-0.0219859619140625,0.9542783447265625
-0.19808060546875,-0.00801581298828125,0.891607861328125
-0.2065906640625,-0.023456503906250002,0.8481071728515625
-0.23357970703125,-0.07271966064453125,0.9120064892578125
-0.2007551953125,-0.07419020263671874,0.926015185546875
-0.2571647265625,-0.09085634521484375,0.9596852099609375
-0.25157240234375,-0.0494360791015625,1.0280083251953125
-0.28658521484375,-0.04428918212890625,1.0255506591796875
-0.232363984375,-0.040122646484374996,0.9100403564453124
-0.14799283203125,-0.0729647509765625,0.840488408203125
-0.2717533984375,-0.04036773681640625,0.9306847509765624
-0.203186640625,0.008895419921875,0.9449392138671875
-0.24379177734375002,-0.03154448486328125,1.0309575244140625
-0.21655958984375,-0.00458454833984375,1.0014655322265624
-0.31697828125,-0.0435539111328125,1.040542421875
-0.22920310546875,0.0280124658203125,1.0599579833984376
-0.28658521484375,-0.0435539111328125,0.9975332666015625
-0.32840607421875,-0.03497574951171875,0.9567360107421875
-0.24038775390625,-0.00262382568359375,0.893573994140625
-0.1920019921875,-0.0337502978515625,0.849336005859375
-0.16160892578125,-0.06536695068359374,0.91077765625
-0.35272052734375,-0.05409279541015625,0.96484630859375
-0.1774133203125,-0.0043394580078125,1.022355693359375
-0.257651015625,-0.05360261474609375,0.979100771484375
-0.2474389453125,-0.03129939453125,1.027271025390625
-0.19248828125,-0.042083369140625,1.0053977978515625
-0.220693046875,-0.02027032958984375,1.0314490576171875
-0.3028758984375,-0.06683749267578125,1.01989802734375
-0.2036729296875,-0.110708662109375,0.921099853515625
-0.195406015625,-0.0690433056640625,0.8441749072265625
-0.190543125,-0.04968116943359375,0.952557978515625
-0.1978374609375,-0.024436865234375,1.0137538623046876
-0.2221519140625,-0.10286577148437501,0.9827872705078124
-0.25059982421875,0.02360083984375,1.070525947265625
-0.218747890625,-0.03546593017578125,1.0122792626953125
-0.29825615234375,-0.05360261474609375,0.9537868115234375
-0.1949197265625,-0.0092412646484375,0.956490244140625
-0.2124261328125,-0.02272123291015625,0.9065996240234375
-0.09158330078125,-0.03522083984375,0.9341254833984375
-0.24816837890625,-0.10727739746093751,0.9567360107421875
-0.22750109375,-0.1004148681640625,1.0869923095703125
-0.25594900390624997,-0.00777072265625,1.0501273193359375
-0.27053767578125,-0.0406128271484375,0.9601767431640625
-0.2416034765625,-0.04772044677734375,0.9228202197265625
-0.2085358203125,-0.01291761962890625,0.983033037109375
-0.2766162890625,-0.06291604736328126,1.016948828125
-0.23601115234375,-0.0175743359375,1.02776255859375
-0.2503566796875,-0.02125069091796875,1.0466865869140625
-0.19710802734375,-0.068553125,1.064136015625
-0.308225078125,-0.0612004150390625,1.0068723974609375
-0.24184662109375,-0.0161037939453125,1.0422627880859374
-0.201241484375,-0.10556176513671875,0.9818042041015624
-0.21364185546875,-0.055808427734375,0.9284728515625
-0.18251935546875,-0.0925719775390625,0.8658023681640625
-0.28220861328125,-0.09134652587890625,0.8992266259765624
-0.19516287109375,-0.02027032958984375,1.01006736328125
-0.25983931640625,-0.1023755908203125,1.0402966552734374
-0.2333365625,-0.0043394580078125,1.05233921875
-0.22823052734375,-0.0719843896484375,0.9837703369140625
-0.1958923046875,-0.12026718505859375,1.0309575244140625
-0.25108611328125,-0.08938580322265625,1.079865078125
-0.2153438671875,-0.07222947998046875,1.06806828125
-0.16598552734375,-0.114630107421875,0.934862783203125
-0.19856689453125,-0.07419020263671874,0.973202373046875
-0.14167107421875,-0.11144393310546875,1.04349162109375
-0.2017277734375,-0.12369844970703125,1.016457294921875
-0.15869119140625,-0.05115171142578125,1.1012467724609376
-0.21801845703125,-0.05311243408203125,1.0958399072265625
-0.284883203125,-0.1259042626953125,0.9719735400390626
-0.1827625,-0.151883837890625,0.9105318896484375
-0.18884111328125,-0.02149578125,1.0230929931640624
-0.12708240234375,-0.12565917236328125,0.96681244140625
-0.14604767578125,-0.08619962890625,0.98942296875
-0.24281919921875,-0.02272123291015625,1.0594664501953126
-0.2036729296875,-0.07762146728515625,1.02186416015625
-0.15577345703125,-0.022476142578125,1.023338759765625
-0.1472633984375,-0.016593974609375,0.9567360107421875
-0.20780638671875,-0.076396015625,0.9324051171875
-0.06678255859375,-0.0151234326171875,1.040542421875
-0.19248828125,-0.07860182861328124,1.0294829248046875
-0.2698082421875,-0.03546593017578125,1.056763017578125
-0.125380390625,-0.012427438964843749,1.0098215966796875
-0.15869119140625,-0.0435539111328125,0.9931094677734374
-0.19370400390625,-0.03497574951171875,1.00220283203125
-0.16063634765625,-0.09134652587890625,1.0216183935546874
-0.10325423828125,-0.0670825830078125,1.0149826953125
-0.18227621093750002,-0.11438501708984375,1.0083469970703125
-0.12805498046875,-0.0960032421875,0.978117705078125
-0.076751484375,-0.07835673828125,0.96288017578125
-0.15334201171875,-0.0964934228515625,0.98254150390625
-0.1472633984375,-0.106787216796875,0.9609140429687499
-0.08817927734375,-0.052867343750000004,0.996795966796875
-0.12173322265625,-0.10409122314453124,1.021372626953125
-0.10033650390625,-0.02076051025390625,1.0658563818359374
-0.1151683203125,-0.05997496337890625,1.0700344140625
-0.138996484375,-0.07222947998046875,1.0324321240234375
-0.10374052734375,-0.03742665283203125,0.9729566064453125
-0.1073876953125,0.00472888427734375,0.964354775390625
-0.16647181640625,-0.12663953369140624,0.9065996240234375
-0.028122578125000002,0.00276816162109375,0.966320908203125
-0.12319208984375,-0.0474753564453125,1.0211268603515624
-0.13000013671875,-0.107767578125,1.0457035205078125
-0.15625974609374998,-0.04306373046875,1.024813359375
-0.06289224609374999,-0.07664110595703125,1.0393135888671874
-0.16841697265625,-0.08644471923828125,1.012525029296875
-0.1399690625,-0.02076051025390625,1.0442289208984374
-0.05170759765625,-0.09673851318359375,1.0196522607421874
-0.09352845703125,-0.10703230712890625,0.97074470703125
-0.12221951171875,-0.0170841552734375,1.032677890625
-0.1034973828125,-0.08938580322265625,1.00416896484375
-0.12902755859375,-0.0592396923828125,1.0152284619140626
-0.19856689453125,-0.05262225341796875,1.0943653076171875
-0.10325423828125,-0.10556176513671875,1.0132623291015626
-0.18251935546875,-0.091101435546875,0.93437125
-0.065080546875,-0.073454931640625,0.98843990234375
-0.07115916015625,-0.11732610107421874,0.9827872705078124
-0.11322316406249999,-0.0327699365234375,1.05233921875
-0.10860341796875,-0.10164031982421876,1.137374462890625
-0.12756869140625,-0.07173929931640625,1.0801108447265624
-0.12756869140625,-0.037916833496093746,1.0196522607421874
-0.10228166015625,-0.07051384765625,1.0068723974609375
-0.06799828125,-0.08644471923828125,0.966320908203125
-0.16598552734375,-0.10972830078125,0.986965302734375
-0.11881548828124999,-0.026397587890625,1.0506188525390625
-0.11541146484375,-0.11585555908203125,0.9614055761718749
-0.06629626953125001,-0.0411030078125,1.0378389892578126
-0.16987583984375,-0.0925719775390625,1.06806828125
-0.09790505859375,-0.07173929931640625,1.0692971142578125
-0.14629082031250001,-0.037916833496093746,1.02383029296875
-0.080641796875,-0.07443529296875,1.0727378466796875
-0.14458880859375,-0.02909358154296875,1.02579642578125
-0.12221951171875,-0.09967959716796874,0.9370746826171875
-0.07893978515625,-0.11364974609375,0.91569298828125
-0.01426333984375,-0.02223105224609375,0.9739396728515625
-0.14969484375,-0.09526797119140624,0.9953213671875
-0.1200312109375,-0.13129625,1.0112961962890625
-0.15431458984375,-0.0121823486328125,1.039067822265625
-0.111764296875,-0.047965537109375,1.0343982568359376
-0.1025248046875,-0.107767578125,0.9714820068359376
-0.08866556640625001,-0.0016434643554687498,1.06020375
-0.156502890625,-0.08448399658203125,1.0629071826171874
-0.19759431640625,-0.10703230712890625,0.966320908203125
-0.11079171875,-0.07909200927734375,0.979100771484375
-0.12027435546875,-0.0915916162109375,0.9523122119140625
-0.022773398437500002,-0.00409436767578125,1.0501273193359375
-0.1560166015625,-0.08840544189453126,1.0444746875
-0.08988128906250001,-0.08399381591796876,1.1066536376953124
-0.09693248046875,-0.04772044677734375,1.0516019189453125
-0.21315556640625,0.011346323242187501,1.0860092431640624
-0.08526154296874999,-0.0857094482421875,1.0496357861328125
-0.10422681640625,-0.07811164794921875,0.9862280029296875
-0.121490078125,-0.11732610107421874,1.0267794921875
-0.11346630859375,-0.0562986083984375,1.0039231982421875
-0.045628984375,-0.0827683642578125,0.9532952783203125
-0.12367837890625,-0.15310928955078124,0.922082919921875
-0.11881548828124999,-0.08105273193359375,1.0230929931640624
-0.06751199218750001,-0.06193568603515625,1.010558896484375
-0.15480087890625,-0.19820591064453125,0.924049052734375
-0.074806328125,-0.12516899169921875,0.9297016845703125
-0.08137123046875,-0.08619962890625,0.9827872705078124
-0.12708240234375,-0.15359947021484374,1.040542421875
-0.0937716015625,-0.1004148681640625,1.084288876953125
-0.076751484375,-0.03889719482421875,1.13098453125
-0.08866556640625001,-0.0455146337890625,1.120662333984375
-0.19370400390625,-0.077376376953125,1.0031858984375
-0.11249373046875,0.050070595703125,1.07888201171875
-0.12173322265625,-0.10213050048828125,1.0530765185546875
-0.13389044921874999,-0.0533575244140625,1.05233921875
-0.08137123046875,-0.044044091796875,0.98843990234375
-0.1093328515625,-0.1190417333984375,0.9881941357421875
-0.10033650390625,-0.03448556884765625,1.0014655322265624
-0.09547361328125001,-0.03399538818359375,0.979100771484375
-0.1511537109375,-0.0455146337890625,1.0284998583984375
-0.09158330078125,-0.07222947998046875,1.1484339599609374
-0.15480087890625,-0.02321141357421875,1.1361456298828125
-0.144831953125,-0.01193725830078125,1.050864619140625
-0.1229489453125,-0.07051384765625,1.04742388671875
-0.16209521484375,-0.06732767333984375,1.0132623291015626
-0.13243158203125,-0.06683749267578125,0.94518498046875
-0.13097271484375,-0.09624833251953124,0.9245405859375
-0.05219388671875,-0.059729873046875,0.958456376953125
-0.0811280859375,-0.12418863037109375,0.9818042041015624
-0.00891416015625,-0.08987598388671875,1.01399962890625
-0.14750654296875,-0.128355166015625,1.0294829248046875
-0.08039865234375,-0.07271966064453125,1.131476064453125
-0.0597313671875,-0.09673851318359375,1.04349162109375
-0.11492517578125,-0.0915916162109375,0.9926179345703126
-0.18859796875,-0.0631611376953125,1.0919076416015625
-0.07115916015625,-0.0533575244140625,1.1209081005859376
-0.15382830078125,-0.128355166015625,0.964354775390625
-0.09693248046875,-0.02713285888671875,1.0039231982421875
-0.06483740234375,-0.0945327001953125,0.9523122119140625
-0.0927990234375,-0.04085791748046875,0.97467697265625
-0.046358417968749996,-0.04772044677734375,0.9835245703125
-0.125380390625,-0.08889562255859375,0.983033037109375
-0.02131453125,-0.01928996826171875,1.048406953125
-0.138996484375,-0.06928839599609375,1.0289913916015625
-0.035903203125000005,-0.01978014892578125,1.0936280078125
-0.09790505859375,-0.0072805419921875,1.048898486328125
-0.228473671875,-0.00458454833984375,1.0742124462890625
-0.07942607421875,0.0035034326171875,1.070525947265625
-0.1103054296875,-0.028113220214843748,0.9528037451171875
-0.09450103515625,-0.03301502685546875,0.97467697265625
-0.06629626953125001,-0.07370002197265625,0.992863701171875
-0.10908970703125,0.0003172583007812497,1.0739666796875
-0.0859909765625,-0.10997339111328125,1.01006736328125
-0.16598552734375,-0.0837487255859375,0.9872110693359375
-0.12513724609375,-0.057769150390625,1.032677890625
-0.09985021484375001,-0.08105273193359375,1.0152284619140626
-0.044899550781250006,-0.0567887890625,1.0024485986328124
-0.1200312109375,-0.07443529296875,1.0073639306640625
-0.08331638671875,-0.0082609033203125,1.141306728515625
-0.143859375,0.01600303955078125,1.1125520361328125
-0.10811712890625,-0.03522083984375,1.0712632470703125
-0.06410796875,0.0211499365234375,1.0447204541015624
-0.15480087890625,0.02531647216796875,1.052830751953125
-0.100093359375,-0.08154291259765625,1.0171945947265626
-0.089395,0.0074248779296875,1.0039231982421875
-0.11225058593750001,-0.02149578125,0.980083837890625
-0.10301109375,-0.0523771630859375,1.020389560546875
-0.0295814453125,-0.052867343750000004,1.0088385302734375
-0.16258150390625,-0.059729873046875,0.9542783447265625
-0.0344443359375,-0.03644629150390625,1.03661015625
-0.08477525390625,-0.0259074072265625,1.0110504296875
-0.125380390625,-0.05115171142578125,1.083305810546875
-0.11784291015625001,-0.0016434643554687498,1.05332228515625
-0.170118984375,-0.0523771630859375,1.0481611865234375
-0.11930177734375,-0.073454931640625,1.0284998583984375
-0.14604767578125,-0.0474753564453125,0.9896687353515625
-0.04100923828125,-0.09624833251953124,0.941744248046875
-0.13243158203125,-0.09624833251953124,0.938795048828125
-0.11200744140625,-0.03448556884765625,1.0329236572265625
-0.12465095703125,0.01208159423828125,1.072000546875
-0.12367837890625,-0.05899460205078125,1.048898486328125
-0.21801845703125,-0.0249270458984375,1.0314490576171875
-0.070916015625,0.0289928271484375,1.1007552392578126
-0.16744439453124998,-0.022476142578125,0.99630443359375
-0.049276152343750004,-0.03889719482421875,1.0130165625
-0.1492085546875,0.008895419921875,1.0255506591796875
-0.13486302734375,0.0446786083984375,1.0737209130859375
-0.14507509765624998,-0.1396293212890625,0.9596852099609375
-0.18154677734375,-0.03595611083984375,0.9874568359375
-0.0276362890625,-0.08203309326171875,0.9395323486328125
-0.082586953125,-0.0906112548828125,0.983033037109375
-0.14750654296875,-0.05409279541015625,1.07691587890625
-0.23066197265625,-0.02615249755859375,1.080356611328125
-0.07845349609375,-0.089140712890625,0.9847534033203125
-0.2172890234375,-0.01438816162109375,0.9621428759765625
-0.0714023046875,-0.0317895751953125,1.0658563818359374
-0.1647698046875,-0.02027032958984375,0.986965302734375
-0.13145900390625,-0.0121823486328125,1.0658563818359374
-0.11079171875,-0.0337502978515625,1.100017939453125
-0.20026890625,-0.01830960693359375,1.1474508935546874
-0.20440236328125,0.01183650390625,1.0997721728515626
-0.2133987109375,-0.0121823486328125,1.0250591259765625
-0.1317021484375,-0.13350206298828124,1.0127707958984375
-0.19759431640625,-0.04477936279296875,1.05332228515625
-0.066053125,0.0044837939453125,1.1626884228515626
-0.25351755859375,-0.14575657958984375,1.028254091796875
-0.20780638671875,-0.014633251953124999,1.047915419921875
-0.129270703125,-0.0406128271484375,1.0034316650390624
-0.03274232421875,-0.0523771630859375,1.0221099267578124
-0.1832487890625,-0.147962392578125,1.0307117578125
-0.18349193359375,-0.02958376220703125,0.9557529443359375
-0.20877896484375,-0.01585870361328125,0.8382765087890625
-0.17230728515625,0.00963069091796875,0.83901380859375
-0.12440781249999999,-0.02958376220703125,0.8259881787109375
-0.03298546875,-0.046740085449218746,0.8431918408203125
-0.009886738281250002,-0.06095532470703125,0.8623616357421875
-0.0859909765625,-0.03522083984375,0.9282270849609375
-0.11832919921875,-0.05801424072265625,1.0555341845703126
-0.228473671875,0.15423398681640624,1.2010280126953126
-0.46019041015625,0.03757098876953125,1.0953483740234375
-0.29728357421875,0.07286399658203124,1.0904330419921875
-0.17862904296875,0.0289928271484375,0.9646005419921875
-0.19127255859375,0.02923791748046875,0.800182685546875
-0.05802935546875,-0.03938737548828125,0.76823302734375
-0.10544253906250001,-0.157766005859375,0.7989538525390625
-0.11541146484375,-0.08227818359375,0.7552073974609375
-0.10690140625,-0.059729873046875,0.738249501953125
-0.13607875,0.0093856005859375,0.8977520263671875
-0.17036212890625,-0.0455146337890625,1.03759322265625
-0.20926525390625,0.04198261474609375,1.19488384765625
-0.23309341796875,0.0059543359375,1.228799638671875
-0.23795630859375,0.00816014892578125,1.208155244140625
-0.29387955078125,0.019679394531249998,1.134425263671875
-0.33181009765625,-0.0161037939453125,1.098051806640625
-0.35466568359375,0.03512008544921875,0.9847534033203125
-0.22385392578125,-0.08423890625,0.87243806640625
-0.1744955859375,-0.046249904785156254,0.8461410400390625
-0.0733474609375,-0.07026875732421875,0.8692431005859375
-0.100093359375,-0.12761989501953125,1.053813818359375
-0.1404553515625,-0.0347306591796875,1.147205126953125
-0.26421591796875,0.04443351806640625,1.158510390625
-0.3330258203125,0.03512008544921875,1.1223827001953124
-0.2756437109375,0.07237381591796875,1.15752732421875
-0.25108611328125,0.013552136230468751,1.115747001953125
-0.356853984375,-0.0710040283203125,1.103950205078125
-0.21972046875,-0.07909200927734375,1.0801108447265624
-0.16185207031249998,-0.06340622802734375,1.036118623046875
-0.29509527343749997,0.0172284912109375,1.226833505859375
-0.27199654296875,-0.10360104248046875,1.2708257275390624
-0.3962433984375,0.03953171142578125,1.2194605078125
-0.22774423828125,-0.1200220947265625,1.07888201171875
-0.11200744140625,-0.03987755615234375,1.032186357421875
-0.3067662109375,-0.18055940673828125,0.9795923046875
-0.144831953125,-0.2371752734375,1.020389560546875
-0.162338359375,-0.20948006591796875,0.8599039697265625
-0.30603677734375,-0.21095060791015624,0.7301392041015625
-0.1725504296875,-0.19232374267578126,0.701876044921875
-0.058272500000000005,-0.222469853515625,0.6669771875
-0.08428896484375001,-0.17516741943359376,0.7743771923828124
-0.11152115234375,-0.22761675048828126,0.970253173828125
-0.23528171875,-0.1116890234375,1.11820466796875
-0.39162365234375,0.01208159423828125,1.090187275390625
-0.273212265625,0.071638544921875,0.991880634765625
-0.18640966796875,0.065756376953125,0.850319072265625
-0.23503857421875,0.13462676025390624,0.7247323388671875
-0.0879361328125,0.01747358154296875,0.6092220361328125
-0.17327986328125,-0.0543378857421875,0.53426322265625
-0.1229489453125,0.01306195556640625,0.4435753466796875
0.0156434375,-0.01585870361328125,0.434973515625
-0.011588750000000002,0.04884514404296875,0.6318325634765625
-0.10617197265625,0.19491898193359375,0.8540055712890625
-0.25594900390624997,0.27089698486328123,1.1420440283203126
-0.35126166015625,0.367707666015625,1.4187772216796875
-0.27102396484375,0.4172159130859375,1.509956630859375
-0.177899609375,0.37873673095703125,1.402802392578125
-0.221665625,0.0691876416015625,1.19684998046875
-0.24816837890625,0.026296833496093748,1.0806023779296874
-0.3106565234375,0.01698340087890625,0.9599309765625
-0.333512109375,-0.07443529296875,0.9469053466796875
-0.1725504296875,-0.20948006591796875,0.8171405810546875
-0.1166271875,-0.2758995458984375,0.751029365234375
-0.0431975390625,-0.2386458154296875,0.7613515625
-0.044170117187499996,-0.25947849365234377,0.7640549951171876
-0.081614375,-0.28545806884765623,0.8535140380859375
-0.15285572265625,-0.23300873779296874,0.933879716796875
-0.25886673828125,-0.27712499755859377,0.943710380859375
-0.25594900390624997,-0.23153819580078125,0.951574912109375
-0.21607330078125,-0.20604880126953126,0.8658023681640625
-0.1424005078125,-0.22369530517578126,0.8471241064453126
-0.20780638671875,-0.15212892822265625,0.984016103515625
-0.2177753125,-0.10752248779296875,1.1479424267578124
-0.26032560546875,0.0309535498046875,1.2305200048828124
-0.3651208984375,0.1628121484375,1.1621968896484376
-0.26178447265625,0.24148614501953125,1.0520934521484375
-0.17619759765625,0.2642795458984375,1.0614325830078124
-0.12805498046875,0.30079800537109375,1.0904330419921875
-0.111764296875,0.30079800537109375,1.217002841796875
-0.3106565234375,0.1191860693359375,1.344801474609375
-0.327676640625,0.15080272216796875,1.296631220703125
-0.27491427734375,0.10595119140625,1.111814736328125
-0.41545181640625,0.04639424072265625,1.1852989501953124
-0.27053767578125,0.02580665283203125,1.0855177099609374
-0.21899103515625,-0.0013983740234375002,1.0334151904296875
-0.2211793359375,-0.0817880029296875,1.086255009765625
-0.19078626953125,-0.09330724853515625,1.1408151953125
-0.16914640625,-0.09918941650390625,1.1449932275390624
-0.30895451171875,-0.1430605859375,0.9316678173828125
-0.21266927734375,-0.0710040283203125,0.7778179248046875
-0.18397822265625,-0.13595296630859374,0.653705791015625
-0.109819140625,-0.21095060791015624,0.6632906884765625
-0.040279804687500004,-0.0803174609375,0.749063232421875
-0.259596171875,-0.012672529296875,0.9262609521484375
-0.27613,0.081442158203125,1.0157199951171876
-0.27053767578125,0.09737302978515625,1.0575003173828126
-0.2824517578125,0.19736988525390625,1.04742388671875
-0.38287044921875,0.13658748291015624,1.022355693359375
-0.203186640625,0.1093824560546875,0.938303515625
0.01734544921875,0.04124734375,0.772656826171875
-0.04441326171875,-0.06046514404296875,0.838522275390625
-0.2357680078125,-0.128355166015625,0.956490244140625
-0.19905318359375002,-0.10899302978515625,0.920116787109375
0.00591765625,0.03904153076171875,0.993355234375
-0.17668388671875,0.1495772705078125,1.031203291015625
-0.159420625,-0.079337099609375,1.127543798828125
-0.23066197265625,0.0446786083984375,1.284834423828125
-0.42906791015625,0.13560712158203125,1.073475146484375
-0.21753216796875,0.00987578125,0.8825144970703125
-0.26761994140625,0.08070688720703124,0.7689703271484375
-0.23066197265625,-0.0004180126953125,0.6185611669921875
-0.16744439453124998,-0.22320512451171876,0.6406801611328125
-0.0431975390625,-0.27222319091796876,0.6976980126953125
-0.0363894921875,-0.30653583740234375,0.8159117480468749
0.005674511718750001,-0.23202837646484376,1.067576748046875
-0.1151683203125,-0.063651318359375,1.2187232080078125
-0.20683380859375,-0.013162709960937501,1.260257763671875
-0.15066742187499998,0.0750698095703125,1.4050142919921875
-0.38627447265625,0.1584005224609375,1.6045767724609374
-0.39989056640625,0.1809488330078125,1.50356669921875
-0.30944080078125,0.1133039013671875,1.304495751953125
-0.28658521484375,0.130460224609375,1.049881552734375
-0.15358515625,0.03561026611328125,0.9631259423828125
-0.10228166015625,-0.013652890625,1.015474228515625
-0.2639727734375,0.00987578125,1.0543053515625
-0.14653396484375,0.0451687890625,1.08478041015625
-0.15139685546875,0.0593840283203125,1.0255506591796875
-0.10301109375,0.13119549560546875,0.9756600390625
-0.13486302734375,0.08021670654296875,0.9228202197265625
-0.10276794921875,0.18511536865234374,0.9402696484374999
-0.04830357421875,-0.0239466845703125,0.8834975634765625
-0.1297569921875,0.07923634521484375,1.0184234277343749
-0.3203823046875,-0.02174087158203125,1.2319946044921875
-0.380195859375,-0.046004814453125,1.3258774462890626
-0.34737134765625,-0.071494208984375,1.1405694287109376
-0.20002576171875,-0.09183670654296874,1.01399962890625
-0.0383346484375,-0.12271808837890624,0.8751414990234375
-0.1511537109375,-0.046004814453125,0.8353273095703125
-0.09644619140624999,0.00521906494140625,0.819844013671875
-0.14215736328125,0.03512008544921875,0.83213234375
-0.0626491015625,0.0608545703125,0.9719735400390626
-0.0388209375,0.02678701416015625,1.0184234277343749
-0.038577792968749997,-0.061690595703125004,1.024813359375
-0.092312734375,0.04884514404296875,0.973202373046875
-0.0976619140625,-0.11732610107421874,0.8127167822265625
-0.16501294921875,-0.0415931884765625,0.859166669921875
-0.26640421875,-0.052867343750000004,0.96681244140625
-0.2202067578125,-0.0935523388671875,1.1027213720703124
-0.20683380859375,-0.03105430419921875,1.1722733203125
-0.18981369140625,-0.0004180126953125,1.087729609375
-0.13534931640625,0.04051207275390625,1.0039231982421875
-0.13826705078125,-0.0063001806640625,0.9292101513671875
-0.27783201171875,0.1231075146484375,0.9754142724609375
-0.16015005859375,0.08756941650390625,0.931913583984375
-0.0006472460937500014,0.06306038330078124,0.8274627783203125
-0.07845349609375,0.136342392578125,0.738249501953125
-0.0500055859375,-0.02149578125,0.6647652880859375
0.01588658203125,-0.09771887451171875,0.72301197265625
-0.05316646484375,0.06747200927734374,0.9877026025390625
-0.179844765625,0.0515411376953125,1.245020234375
-0.2571647265625,0.004973974609375,1.3964124609375
-0.24476435546875,0.02335574951171875,1.3946920947265624
-0.36098744140625,-0.0396324658203125,1.22240970703125
-0.2902323828125,-0.10507158447265624,1.1012467724609376
-0.1832487890625,-0.09379742919921875,1.046932353515625
-0.14021220703125,-0.05409279541015625,0.97860923828125
-0.13340416015625,-0.0700236669921875,0.926998251953125
-0.006482714843750001,-0.17271651611328126,0.7925639208984375
-0.022530253906250002,-0.14502130859375,0.663536455078125
-0.018883085937500002,-0.15286419921875,0.6335529296875
0.01953375,-0.175412509765625,0.710723642578125
-0.04052294921875,-0.0425735498046875,0.841471474609375
-0.1064151171875,-0.01561361328125,1.0584833837890626
-0.181789921875,-0.00262382568359375,1.2216724072265626
-0.31478998046875,0.008895419921875,1.1140266357421875
-0.22944625,0.0505607763671875,1.0987891064453126
-0.08137123046875,0.05521749267578125,1.15752732421875
-0.1569891796875,0.0368357177734375,1.252884765625
-0.18689595703125,-0.03644629150390625,1.261240830078125
-0.23309341796875,-0.0435539111328125,1.1990618798828125
-0.11881548828124999,-0.00213364501953125,1.086255009765625
-0.076751484375,-0.02615249755859375,1.01203349609375
-0.0466015625,-0.12909043701171874,0.93732044921875
-0.009400449218749999,-0.1033559521484375,0.885709462890625
0.012239414062499999,-0.104826494140625,0.839505341796875
-0.05170759765625,-0.11487519775390626,0.930438984375
-0.05657048828125,-0.03987755615234375,1.0516019189453125
-0.1667149609375,0.04737460205078125,1.157035791015625
-0.27199654296875,0.0319339111328125,1.223884306640625
-0.23698373046875,0.00619942626953125,1.1845616503906249
-0.16185207031249998,0.04884514404296875,1.19390078125
-0.20634751953125,0.009140510253906251,1.1430270947265626
-0.152612578125,-0.0533575244140625,1.132459130859375
0.034122421875,-0.0435539111328125,1.137374462890625
-0.09401474609375,-0.089140712890625,1.114763935546875
-0.11443888671875,-0.15507001220703126,1.1081282373046875
-0.06483740234375,-0.04134809814453125,0.974185439453125
-0.07456318359375,-0.05801424072265625,0.8304119775390625
-0.01037302734375,-0.03448556884765625,0.788385888671875
-0.10957599609375,-0.09845414550781251,0.771673759765625
-0.0256911328125,-0.07075893798828126,0.8431918408203125
-0.0159653515625,-0.10580685546875,0.8628531689453125
-0.08988128906250001,-0.142080224609375,0.871455
-0.12076064453125,-0.1288453466796875,0.996795966796875
-0.16987583984375,-0.07222947998046875,1.166374921875
-0.20926525390625,0.01845394287109375,1.1902142822265624
-0.228473671875,0.1005592041015625,1.189968515625
-0.16136578125,0.1074217333984375,1.2076637109375
-0.0986344921875,0.05717821533203125,1.0597122167968749
-0.13923962890625,0.10619628173828125,0.92650671875
-0.02715,0.10521592041015625,0.7748687255859374
0.006403945312499999,0.062080021972656246,0.6964691796875
0.012968847656250001,0.0946770361328125,0.655671923828125
0.05673486328125,-0.010221625976562499,0.7552073974609375
-0.032012890625,-0.046740085449218746,0.976151572265625
-0.14799283203125,-0.06928839599609375,1.1218911669921874
-0.14896541015625,-0.20653898193359374,1.174730986328125
-0.1569891796875,-0.18742193603515625,1.21061291015625
-0.265431640625,-0.1038461328125,1.209138310546875
-0.201241484375,-0.0038492773437499997,1.0919076416015625
-0.18592337890625,-0.0562986083984375,0.986965302734375
-0.21266927734375,-0.04772044677734375,0.9945840673828125
0.02026318359375,0.02531647216796875,1.066593681640625
-0.07213173828125,-0.0327699365234375,1.0034316650390624
0.02463978515625,0.00963069091796875,0.9454307470703125
-0.017181074218750002,-0.03301502685546875,0.81935248046875
-0.0276362890625,-0.0371815625,0.7633176953125
-0.0480604296875,-0.09379742919921875,0.7822417236328125
-0.15042427734375,-0.0028689160156250004,1.0412797216796874
-0.189570546875,-0.07664110595703125,1.0850261767578124
-0.19248828125,-0.02149578125,1.11230626953125
-0.22434021484375,0.02286556884765625,0.98057537109375
-0.1025248046875,-0.10801266845703125,0.8884128955078126
0.012482558593749998,-0.0180645166015625,1.05528841796875
-0.0850183984375,-0.030319033203124998,1.2231470068359376
-0.15188314453125001,-0.02321141357421875,1.3420980419921875
-0.08574783203125,-0.0690433056640625,1.27746142578125
-0.02398912109375,-0.0857094482421875,1.13000146484375
0.0005684765624999998,-0.04085791748046875,1.1105859033203125
-0.0733474609375,-0.05874951171875,1.0835515771484374
-0.10860341796875,-0.0631611376953125,1.088221142578125
-0.17473873046875,-0.02321141357421875,1.0579918505859376
-0.10203851562499999,-0.01585870361328125,1.024813359375
-0.17376615234375,-0.02615249755859375,0.9601767431640625
-0.11978806640625,-0.0249270458984375,1.0149826953125
-0.08988128906250001,0.0985984814453125,1.0147369287109376
-0.0772377734375,0.00766996826171875,0.946659580078125
-0.037362070312499995,-0.022476142578125,1.01399962890625
-0.16841697265625,-0.06536695068359374,1.121645400390625
-0.09985021484375001,-0.08448399658203125,1.129509931640625
0.01491400390625,-0.151883837890625,1.0717547802734375
-0.07966921874999999,-0.06781785400390625,1.10640787109375
-0.1083602734375,-0.07026875732421875,1.1447474609375
-0.1696326953125,0.00668960693359375,1.1415524951171876
-0.2800203125,-0.00262382568359375,1.004660498046875
-0.12343523437500001,-0.052867343750000004,0.910286123046875
-0.060460800781250004,-0.03914228515625,0.9473968798828125
-0.15674603515625,-0.06634731201171876,0.96681244140625
-0.06629626953125001,-0.02125069091796875,0.8977520263671875
-0.06775513671875,-0.0567887890625,0.8144371484375
-0.046358417968749996,-0.08644471923828125,0.8972604931640625
-0.0821006640625,-0.07811164794921875,1.08281427734375
-0.15431458984375,-0.0837487255859375,1.1597392236328126
-0.0529233203125,-0.03129939453125,1.1150097021484375
-0.11687033203125,-0.023456503906250002,1.0245675927734375
-0.0490330078125,-0.03522083984375,0.9631259423828125
-0.09450103515625,-0.01683906494140625,0.9609140429687499
-0.10617197265625,0.008405239257812499,0.97860923828125
-0.1633109375,0.00399361328125,0.9820499707031249
-0.09134015625,-0.02860340087890625,0.9768888720703125
-0.0859909765625,-0.0386521044921875,0.8687515673828125
-0.02885201171875,-0.00654527099609375,0.812962548828125
-0.02009880859375,0.01747358154296875,0.8183694140625
-0.01474962890625,-0.03522083984375,0.847369873046875
-0.02155767578125,-0.04183827880859375,0.92552365234375
-0.053409609375,0.0289928271484375,1.06708521484375
-0.09936392578125,-0.00948635498046875,1.0525849853515625
-0.09206958984375,-0.053847705078125,0.9626344091796875
-0.0412523828125,0.010611052246093749,0.938303515625
-0.06410796875,-0.01169216796875,0.930930517578125
-0.05462533203125,-0.07615092529296875,0.9164302880859375
-0.07553576171875,-0.01953505859375,0.98057537109375
-0.039307226562500006,-0.0043394580078125,1.070525947265625
-0.15334201171875,-0.0582593310546875,1.0516019189453125
-0.060460800781250004,-0.0464949951171875,1.0398051220703124
-0.10908970703125,-0.04134809814453125,0.9414984814453125
-0.08769298828125,-0.0298288525390625,0.9395323486328125
-0.04100923828125,-0.0925719775390625,0.9397781152343749
-0.113709453125,-0.05850442138671875,0.9557529443359375
-0.06799828125,-0.0337502978515625,0.993846767578125
-0.13291787109375,-0.10188541015625,0.8871840625
-0.054868476562500004,-0.0097314453125,0.929947451171875
-0.103983671875,-0.053847705078125,0.9048792578125
-0.1404553515625,-0.0817880029296875,0.9218371533203125
-0.09085386718749999,-0.01169216796875,1.00613509765625
-0.13413359375,-0.13129625,1.003677431640625
-0.04781728515625,0.00619942626953125,1.06315294921875
-0.057543066406249996,-0.049926259765625,1.08379734375
-0.12319208984375,-0.063651318359375,1.1290183984375
-0.08185751953125,-0.0006631030273437505,1.1636714892578124
-0.107873984375,-0.047965537109375,1.17718865234375
-0.06289224609374999,-0.02149578125,1.2037314453125
-0.10811712890625,-0.046004814453125,1.1882481494140624
-0.1530988671875,0.009140510253906251,1.1880023828125
-0.121490078125,-0.0011532836914062497,1.1494170263671875
-0.1710915625,-0.02958376220703125,1.113780869140625
-0.0957167578125,-0.00507472900390625,1.1184504345703126
-0.08331638671875,-0.046740085449218746,1.044966220703125
-0.09425789062500001,-0.063651318359375,0.9921264013671875
-0.068970859375,-0.0960032421875,0.946168046875
-0.10714455078125,-0.06928839599609375,0.988931435546875
-0.12221951171875,-0.08619962890625,1.0801108447265624
-0.07650833984375,-0.09330724853515625,1.1218911669921874
-0.08720669921875,-0.09036616455078125,1.1263149658203124
-0.17668388671875,-0.0670825830078125,1.0830600439453124
-0.07796720703125,-0.0729647509765625,0.9818042041015624
-0.13826705078125,-0.05164189208984375,0.89209939453125
-0.1103054296875,-0.10311086181640625,0.8608870361328125
-0.08088494140625,-0.13350206298828124,0.88423486328125
-0.06824142578125,-0.06830803466796875,0.97467697265625
-0.0714023046875,-0.08987598388671875,0.972219306640625
-0.09158330078125,-0.12149263671875,1.0108046630859375
-0.0451426953125,0.008895419921875,1.0936280078125
-0.06143337890625,-0.052867343750000004,1.0638902490234374
-0.11857234375,-0.0249270458984375,1.0078554638671875
-0.13243158203125,0.0030132519531249997,1.043983154296875
-0.058272500000000005,0.0044837939453125,0.9857364697265625
-0.1034973828125,-0.034240478515625,0.958456376953125
-0.0422249609375,0.04712951171875,1.064136015625
-0.02787943359375,0.0137972265625,1.022355693359375
-0.12173322265625,0.05129604736328125,1.04742388671875
-0.07407689453124999,0.05570767333984375,1.0425085546875
-0.1336473046875,0.02433611083984375,0.9680412744140625
-0.050491875000000006,0.0133070458984375,0.943710380859375
-0.08574783203125,-0.04330882080078125,0.95304951171875
-0.06410796875,0.03168882080078125,0.972219306640625
-0.08185751953125,-0.02321141357421875,0.8859552294921875
-0.11857234375,-0.015368522949218751,0.853268271484375
-0.06021765625,-0.0043394580078125,0.8267254785156251
-0.0140201953125,-0.04134809814453125,0.8441749072265625
-0.0879361328125,-0.04330882080078125,0.903404658203125
-0.10811712890625,-0.0249270458984375,0.97664310546875
-0.06289224609374999,-0.03350520751953125,0.95796484375
-0.11468203125,-0.069533486328125,0.8839890966796875
-0.07359060546875,-0.040122646484374996,0.932896650390625
-0.07796720703125,-0.03129939453125,0.9508376123046876
-0.07018658203125,-0.08546435791015625,0.9650920751953125
-0.1355924609375,-0.050661530761718754,1.0889584423828125
-0.115654609375,-0.0308092138671875,1.127543798828125
-0.0840458203125,-0.0415931884765625,1.0211268603515624
-0.057299921875,-0.05752406005859375,0.9454307470703125
-0.08720669921875,-0.0415931884765625,0.9638632421875
-0.08526154296874999,-0.1053166748046875,0.9926179345703126
-0.11298001953125,-0.03399538818359375,1.0181776611328126
-0.07188859375000001,-0.028358310546875,0.9734481396484375
-0.1015522265625,-0.06928839599609375,0.97074470703125
-0.06483740234375,-0.0562986083984375,1.02579642578125
-0.0791829296875,-0.07320984130859375,1.0267794921875
-0.037848359375,-0.05311243408203125,1.01203349609375
-0.03274232421875,-0.0474753564453125,0.9754142724609375
-0.07748091796875001,-0.03889719482421875,1.024813359375
-0.05219388671875,0.0005623486328125002,1.0982975732421876
-0.11200744140625,-0.02909358154296875,1.06708521484375
-0.08672041015625,0.0059543359375,1.0943653076171875
-0.10325423828125,-0.00801581298828125,1.0697886474609375
-0.11832919921875,-0.06046514404296875,1.069542880859375
-0.11492517578125,-0.05115171142578125,1.0700344140625
-0.07407689453124999,-0.07051384765625,1.0348897900390626
-0.045628984375,-0.098944326171875,0.9852449365234375
-0.088422421875,-0.059729873046875,1.0073639306640625
-0.055354765624999996,-0.06291604736328126,1.0171945947265626
-0.06191966796875,-0.08105273193359375,0.9729566064453125
-0.138996484375,-0.014633251953124999,1.08379734375
-0.06580998046875,-0.07026875732421875,1.10640787109375
-0.115654609375,-0.04526954345703125,1.0707717138671875
-0.138996484375,-0.02737794921875,1.1174673681640626
-0.097175625,-0.067572763671875,1.085271943359375
-0.11322316406249999,-0.0161037939453125,1.0781447119140626
-0.081614375,-0.010221625976562499,1.1386032958984376
-0.13632189453125,-0.053847705078125,1.1076367041015625
-0.076751484375,-0.057769150390625,1.0756870458984376
-0.107873984375,-0.052867343750000004,1.0319405908203125
-0.103983671875,-0.04085791748046875,1.0388220556640624
-0.08866556640625001,-0.06585713134765625,0.9896687353515625
-0.10665826171875001,-0.0729647509765625,0.9518206787109375
-0.06435111328125,-0.04036773681640625,1.0063808642578125
-0.15528716796875,-0.08595453857421875,0.94321884765625
-0.04830357421875,-0.03399538818359375,0.995812900390625
-0.12246265625,-0.02860340087890625,1.006626630859375
-0.1205175,-0.0259074072265625,1.033169423828125
-0.1064151171875,0.00521906494140625,1.00220283203125
-0.09595990234375,-0.059729873046875,0.9297016845703125
-0.037848359375,-0.06487677001953125,0.9100403564453124
-0.031769746093749995,-0.06095532470703125,0.954524111328125
-0.06824142578125,-0.029338671875,0.988931435546875
-0.10665826171875001,-0.07517056396484376,0.9183964208984375
-0.040766093749999996,0.01012087158203125,0.9397781152343749
-0.04441326171875,-0.0567887890625,0.923065986328125
-0.125380390625,-0.03840701416015625,1.0181776611328126
-0.04003666015625,0.01894412353515625,1.0189149609375
-0.12319208984375,-0.063651318359375,0.88620099609375
-0.125380390625,-0.0063001806640625,0.8778449316406249
-0.053409609375,-0.0332601171875,0.7994453857421875
-0.015479062500000002,-0.0023787353515625003,0.8653108349609375
0.013941425781249999,0.1054610107421875,1.0582376171875
-0.1200312109375,0.04296297607421875,1.134916796875
-0.097175625,0.056933125,1.2088925439453124
-0.1161408984375,0.099088662109375,1.1381117626953126
-0.0791829296875,0.05423713134765625,1.0737209130859375
-0.1706052734375,-0.012427438964843749,1.055779951171875
-0.12027435546875,-0.073454931640625,1.0491442529296875
-0.080641796875,-0.06095532470703125,1.0201437939453124
-0.061676523437500005,-0.11585555908203125,0.988931435546875
-0.16209521484375,-0.10801266845703125,0.942727314453125
-0.060460800781250004,-0.13350206298828124,0.935845849609375
-0.05024873046875,-0.10727739746093751,1.0117877294921875
-0.0621628125,-0.096983603515625,1.056763017578125
-0.0855046875,-0.01438816162109375,1.0638902490234374
-0.09790505859375,-0.08791526123046875,1.0093300634765625
-0.13875333984375,-0.07051384765625,1.067576748046875
-0.0918264453125,-0.052867343750000004,1.1159927685546875
-0.12367837890625,-0.030319033203124998,1.0978060400390626
-0.0986344921875,-0.0268877685546875,1.079865078125
-0.11249373046875,-0.057769150390625,1.0250591259765625
-0.10519939453125,0.00276816162109375,1.0137538623046876
-0.08526154296874999,-0.052867343750000004,1.0570087841796876
-0.08331638671875,-0.0371815625,1.0825685107421874
-0.0879361328125,-0.0955130615234375,1.01989802734375
-0.10957599609375,-0.12565917236328125,1.016457294921875
-0.051950742187499996,-0.10580685546875,1.044966220703125
-0.08769298828125,-0.14722712158203125,0.992863701171875
-0.00502384765625,-0.15212892822265625,0.9481341796875
-0.0704297265625,-0.2366850927734375,0.8933282275390625
0.0190474609375,-0.20506843994140625,0.966320908203125
-0.060460800781250004,-0.26339993896484376,0.9459222802734375
-0.17522501953125,-0.20163717529296876,0.9488714794921875
-0.12246265625,-0.11389483642578124,0.903404658203125
-0.12902755859375,-0.13497260498046876,0.8485987060546875
-0.088422421875,-0.08154291259765625,0.8377849755859375
-0.0295814453125,0.03806116943359375,0.968287041015625
-0.061676523437500005,-0.0249270458984375,1.0727378466796875
-0.0694571484375,-0.0175743359375,1.1789090185546875
-0.089395,0.0387964404296875,1.1916888818359375
-0.14993798828125,0.07041309326171875,1.12312
-0.18154677734375,0.0652661962890625,1.066593681640625
-0.179844765625,0.053992041015625,1.0162115283203126
-0.20002576171875,0.05864875732421875,1.043983154296875
-0.13948277343749999,0.09247122314453125,1.06315294921875
-0.14799283203125,0.05374695068359375,1.0412797216796874
-0.07188859375000001,0.03953171142578125,1.0653648486328124
-0.092312734375,0.04247279541015625,1.0520934521484375
-0.0889087109375,0.06673673828125,1.131476064453125
-0.046358417968749996,0.03659062744140625,1.16145958984375
-0.072861171875,-0.01046671630859375,1.1297556982421875
-0.0879361328125,-0.06781785400390625,1.1676037548828124
-0.09401474609375,-0.0327699365234375,1.131476064453125
-0.10568568359375,-0.0876701708984375,1.057746083984375
-0.11103486328125,-0.05017135009765625,1.0464408203125
-0.06824142578125,-0.047965537109375,1.0992806396484376
-0.06410796875,-0.1347275146484375,1.1218911669921874
-0.09255587890625,-0.1484525732421875,1.0855177099609374
-0.12076064453125,-0.1170810107421875,0.994829833984375
-0.129270703125,-0.19330410400390624,0.8156659814453124
-0.01572220703125,-0.2151171435546875,0.8387680419921875
-0.020341953125,-0.19183356201171875,0.883743330078125
-0.04465640625,-0.22810693115234376,0.9414984814453125
0.0003253320312500002,-0.15948163818359376,1.0284998583984375
-0.032499179687500004,-0.14134495361328125,1.0818312109375
-0.0509781640625,-0.1513936572265625,1.093136474609375
-0.19346085937500002,-0.0866898095703125,1.0919076416015625
-0.17765646484375,0.01698340087890625,1.0830600439453124
-0.1710915625,0.0309535498046875,0.931913583984375
-0.13680818359375,0.067717099609375,0.8962774267578125
-0.07188859375000001,0.0701680029296875,0.8889044287109376
-0.0179105078125,0.06673673828125,0.9591936767578125
-0.0006472460937500014,0.1182057080078125,1.0936280078125
-0.08137123046875,0.07727562255859374,1.1523662255859375
-0.0782103515625,0.08462833251953125,1.1002637060546876
-0.1744955859375,0.06453092529296875,0.952557978515625
-0.1540714453125,0.00570924560546875,0.8220559130859375
-0.06751199218750001,-0.012427438964843749,0.80952181640625
0.0012979101562499984,-0.0006631030273437505,0.93338818359375
-0.16452666015625,-0.0612004150390625,1.031203291015625
-0.22190876953125,-0.0710040283203125,1.0471781201171875
-0.1628246484375,-0.01487834228515625,0.9179048876953125
-0.09085386718749999,-0.02076051025390625,0.792318154296875
-0.02982458984375,-0.11830646240234374,0.785436689453125
0.0039725,-0.14379585693359376,0.8456495068359375
-0.041495527343750005,-0.1857063037109375,0.962388642578125
-0.06410796875,-0.20727425292968749,1.0958399072265625
0.009078535156249998,-0.25310614501953127,1.150154326171875
-0.03687578125,-0.1906081103515625,1.083305810546875
-0.0840458203125,-0.204823349609375,1.063644482421875
-0.1278118359375,-0.12712971435546874,0.9980247998046875
-0.15674603515625,-0.149923115234375,0.966320908203125
-0.1715778515625,-0.060710234375,1.063644482421875
-0.15091056640625,-0.073454931640625,1.0904330419921875
-0.0859909765625,-0.0915916162109375,1.0845346435546874
-0.047574140625,-0.044044091796875,1.0555341845703126
-0.10519939453125,-0.03840701416015625,0.9877026025390625
-0.08428896484375001,-0.008996174316406251,0.950591845703125
-0.1399690625,0.030708459472656248,0.998762099609375
-0.16112263671875,0.019434304199218752,1.03562708984375
-0.1166271875,0.04982550537109375,0.9835245703125
-0.074806328125,0.0338946337890625,0.9675497412109375
-0.1161408984375,-0.067572763671875,0.969270107421875
-0.1647698046875,0.016738310546875,0.9127437890625
-0.15066742187499998,0.01845394287109375,0.8778449316406249
-0.14945169921875,-0.03252484619140625,0.925032119140625
-0.1949197265625,0.00399361328125,1.074458212890625
-0.11006228515625,-0.03889719482421875,1.1041959716796874
-0.12659611328125,-0.114630107421875,1.042017021484375
-0.10276794921875,-0.0955130615234375,1.106899404296875
-0.089395,-0.13399224365234375,1.0457035205078125
-0.08574783203125,-0.0455146337890625,1.0953483740234375
-0.03079716796875,-0.07909200927734375,1.1336879638671875
-0.08283009765625,-0.1327667919921875,1.216019775390625
-0.13413359375,-0.07320984130859375,1.2177401416015625
-0.27102396484375,-0.08742508056640624,1.08281427734375
-0.16209521484375,-0.0739451123046875,0.9820499707031249
-0.11200744140625,-0.11928682373046876,1.007609697265625
-0.10957599609375,-0.05752406005859375,1.095102607421875
-0.039793515625,0.03536517578125,1.172764853515625
-0.12173322265625,-0.0229663232421875,1.1336879638671875
-0.0577862109375,0.00570924560546875,1.1228742333984374
-0.09352845703125,0.0064445166015625,1.0471781201171875
-0.12562353515625,-0.05482806640625,1.133442197265625
-0.074806328125,-0.0072805419921875,1.204222978515625
-0.1346198828125,-0.015368522949218751,1.1422897949218749
-0.14021220703125,0.01845394287109375,1.1150097021484375
-0.1599069140625,0.07678544189453125,1.039067822265625
-0.1579617578125,0.0137972265625,0.9808211376953125
-0.1210037890625,0.04737460205078125,1.02579642578125
-0.06678255859375,0.06306038330078124,1.0250591259765625
-0.06824142578125,0.02360083984375,0.9857364697265625
-0.11322316406249999,-0.03105430419921875,0.9992536328125
-0.0937716015625,-0.01634888427734375,0.9862280029296875
-0.11225058593750001,-0.0347306591796875,0.9614055761718749
-0.08672041015625,-0.037916833496093746,0.9992536328125
-0.10519939453125,-0.03522083984375,0.9832788037109375
-0.1083602734375,-0.05360261474609375,1.005643564453125
-0.1555303125,-0.0803174609375,1.016457294921875
-0.09206958984375,-0.0945327001953125,1.075441279296875
-0.09425789062500001,-0.09722869384765626,0.9999909326171875
-0.07188859375000001,0.02482629150390625,1.0486527197265625
-0.09741876953125,-0.06438658935546875,1.0417712548828124
-0.20780638671875,-0.0018885546875000003,1.067576748046875
-0.24768208984375,-0.059729873046875,1.0063808642578125
-0.16185207031249998,-0.10850284912109374,0.9166760546875
-0.049276152343750004,-0.0788469189453125,0.907336923828125
-0.008184726562500001,-0.12565917236328125,0.93437125
-0.035903203125000005,-0.1013952294921875,1.022355693359375
-0.1569891796875,-0.110708662109375,1.021372626953125
-0.1375376171875,-0.0670825830078125,1.07101748046875
-0.12635296875,-0.024436865234375,1.003677431640625
-0.1404553515625,-0.0097314453125,0.978117705078125
-0.15382830078125,-0.0043394580078125,0.999745166015625
-0.21947732421875,-0.015368522949218751,0.9803296044921875
-0.1988100390625,0.008405239257812499,0.9641090087890625
-0.08526154296874999,-0.0055649096679687505,0.93142205078125
-0.12440781249999999,0.00619942626953125,0.959439443359375
-0.07796720703125,0.02752228515625,1.00810123046875
-0.07699462890625,0.00816014892578125,0.9604225097656249
-0.12270580078125,-0.040122646484374996,0.932896650390625
-0.10033650390625,-0.03840701416015625,0.9700074072265625
-0.127325546875,-0.087179990234375,0.965337841796875
-0.16938955078125,-0.13889405029296875,0.8790737646484375
-0.15139685546875,-0.15310928955078124,0.8694888671875
-0.0840458203125,-0.19845100097656249,0.893573994140625
-0.08185751953125,-0.1822750390625,0.88226873046875
-0.10203851562499999,-0.15556019287109374,0.8731753662109375
-0.10374052734375,-0.1935491943359375,0.941744248046875
-0.09401474609375,-0.21144078857421875,1.0171945947265626
-0.14191421875,-0.1033559521484375,1.083305810546875
-0.13778076171875,-0.13987441162109376,1.000728232421875
-0.07213173828125,-0.142080224609375,0.981066904296875
-0.061676523437500005,-0.0337502978515625,0.965829375
-0.1492085546875,-0.085219267578125,0.9660751416015625
-0.09425789062500001,-0.00703545166015625,1.036118623046875
-0.0655668359375,-0.042328459472656246,1.0417712548828124
-0.12367837890625,-0.0210056005859375,1.058729150390625
-0.10179537109375,0.0142874072265625,1.0324321240234375
-0.14215736328125,-0.0621807763671875,0.9815584374999999
