ax,ay,az
-0.27783201171875,0.011346323242187501,1.1169758349609376
-0.22579908203125,-0.0097314453125,1.0766701123046876
-0.3578265625,-0.05801424072265625,1.000728232421875
-0.2367405859375,0.18266446533203126,0.9719735400390626
-0.2255559375,-0.0229663232421875,0.891607861328125
-0.33521412109375,-0.03546593017578125,0.9414984814453125
-0.12270580078125,0.0927163134765625,0.946168046875
-0.21753216796875,-0.128355166015625,0.8584293701171875
-0.32402947265625,-0.034240478515625,1.0098215966796875
-0.26032560546875,0.0868341455078125,1.072492080078125
-0.34688505859375,-0.1013952294921875,0.9820499707031249
-0.3437241796875,0.004973974609375,0.902421591796875
-0.14896541015625,0.0642858349609375,0.883251796875
-0.26859251953125,-0.02027032958984375,0.8309035107421875
-0.314060546875,0.083402880859375,0.853268271484375
-0.1210037890625,-0.010221625976562499,0.8734211328125
-0.29387955078125,-0.02909358154296875,1.0444746875
-0.2931501171875,-0.03522083984375,1.1526119921875
-0.29363640625,0.01257177490234375,1.0761785791015626
-0.26178447265625,-0.00409436767578125,0.9803296044921875
-0.15164,0.0427178857421875,0.972219306640625
-0.3466419140625,0.01649322021484375,1.071509013671875
-0.290718671875,0.10080429443359375,1.130492998046875
-0.23552486328125,0.0299731884765625,1.044966220703125
-0.37946642578125,-0.0631611376953125,0.9129895556640625
-0.2523018359375,0.07678544189453125,0.9513291455078126
-0.1647698046875,0.01257177490234375,0.8839890966796875
-0.2610550390625,-0.022476142578125,0.803131884765625
-0.30117388671875,0.0623251123046875,0.8360646093749999
-0.23795630859375,-0.0464949951171875,0.9110234228515625
-0.36876806640625,0.04786478271484375,0.86260740234375
-0.09206958984375,-0.07443529296875,0.853268271484375
-0.2386857421875,-0.16291290283203125,0.8481071728515625
-0.33083751953125,-0.13154134033203124,0.9129895556640625
-0.1793584765625,-0.17467723876953126,0.8191067138671875
-0.11103486328125,-0.11977700439453125,0.9559987109375
-0.1890842578125,0.15325362548828125,1.1484339599609374
-0.2474389453125,-0.03595611083984375,1.078390478515625
-0.36001486328125,0.062080021972656246,1.1828412841796876
-0.1920019921875,0.22359455078125,1.1921804150390625
-0.09523046875,-0.12222790771484375,1.0368559228515626
-0.41982841796875,-0.0288484912109375,1.048406953125
-0.1710915625,0.1079119140625,1.16735798828125
-0.312115390625,-0.03350520751953125,0.969761640625
-0.3991611328125,0.008405239257812499,0.8805483642578125
-0.3184371484375,0.13119549560546875,0.9444476806640625
-0.20026890625,0.004973974609375,1.0127707958984375
-0.2873146484375,-0.035711020507812496,0.990897568359375
-0.13413359375,0.0289928271484375,1.126560732421875
-0.48645001953125,-0.02076051025390625,1.0697886474609375
-0.4098594921875,-0.04919098876953125,0.9277355517578125
-0.201241484375,0.1260485986328125,0.9808211376953125
-0.2707808203125,0.0760501708984375,0.903404658203125
-0.36244630859375,-0.06585713134765625,1.0137538623046876
-0.25400384765625,-0.01634888427734375,1.1073909375
-0.24136033203125,-0.02149578125,1.1292641650390625
-0.3330258203125,-0.0494360791015625,1.1282810986328125
-0.27929087890625,0.01894412353515625,1.041033955078125
-0.37800755859375,-0.03889719482421875,0.871946533203125
-0.34980279296875,0.017718671875,0.872929599609375
-0.22288134765625,-0.0033590966796874996,0.965829375
-0.34104958984375,-0.07419020263671874,0.966320908203125
-0.32354318359375,-0.0567887890625,0.8812856640625
-0.31576255859375,-0.04085791748046875,0.7768348583984375
-0.2892598046875,-0.05017135009765625,0.8186151806640625
-0.33326896484375,0.044188427734375,0.9228202197265625
-0.27199654296875,7.216796875000007e-05,0.98057537109375
-0.39867484375,-0.0332601171875,0.8834975634765625
-0.26154132812499997,0.05080586669921875,0.8572005371093749
-0.316005703125,-0.0376717431640625,0.7881401220703125
-0.33642984375,0.05619785400390625,0.822793212890625
-0.38384302734375,0.0012976196289062499,0.8530225048828125
-0.36147373046875,0.0593840283203125,0.8854636962890625
-0.2027003515625,0.0642858349609375,0.8820229638671875
-0.42712275390625,-0.038161923828125,0.907336923828125
-0.30457791015625,0.05497240234375,1.030220224609375
-0.335457265625,0.0044837939453125,1.08871267578125
-0.4711319140625,-0.06487677001953125,1.099034873046875
-0.3291355078125,0.018699033203125,0.985982236328125
-0.2523018359375,-0.03938737548828125,0.866048134765625
-0.40864376953125,-0.05874951171875,0.88620099609375
-0.2834243359375,-0.01732924560546875,0.93732044921875
-0.3262177734375,0.01649322021484375,0.903404658203125
-0.26032560546875,0.01796376220703125,1.023338759765625
-0.29825615234375,-0.013162709960937501,1.016457294921875
-0.1958923046875,-0.03448556884765625,1.04742388671875
-0.329621796875,-0.09232688720703125,0.9980247998046875
-0.26713365234374997,-0.04036773681640625,0.9950756005859375
-0.23406599609375,0.04786478271484375,1.0034316650390624
-0.30992708984375,-0.126394443359375,0.9768888720703125
-0.245980078125,-0.0011532836914062497,0.976151572265625
-0.201241484375,-0.04919098876953125,0.924049052734375
-0.30530734375,0.0584036669921875,1.0152284619140626
-0.17814275390625,0.0020328906249999995,0.961897109375
-0.19321771484375,0.06551128662109375,0.9867195361328125
-0.25692158203125,-0.0317895751953125,0.987948369140625
-0.2610550390625,0.0603643896484375,1.0609410498046874
-0.27929087890625,0.0642858349609375,1.1051790380859374
-0.292663828125,-0.0337502978515625,1.016457294921875
-0.36293259765625,0.03757098876953125,1.124594599609375
-0.2192341796875,0.021885207519531248,1.1449932275390624
-0.37752126953125,-0.07443529296875,1.0471781201171875
-0.21801845703125,0.012816865234374999,1.0732293798828125
-0.3456693359375,-0.03889719482421875,0.883743330078125
-0.24938410156250002,0.010856142578125,0.9088115234375
-0.29436583984375,-0.00360418701171875,0.885709462890625
-0.28561263671875,-0.00581,0.8694888671875
-0.28561263671875,-0.044044091796875,0.9434646142578125
-0.33108066406250003,-0.08938580322265625,0.99827056640625
-0.2960678515625,0.028502646484374998,1.02776255859375
-0.5324043359375,-0.13129625,0.9872110693359375
-0.37217208984375,-0.0023787353515625003,1.02186416015625
-0.2775888671875,-0.1533543798828125,0.87440419921875
-0.44706060546875,-0.12761989501953125,0.8481071728515625
-0.23747001953125,-0.1151202880859375,0.8009199853515625
-0.216802734375,-0.0504164404296875,0.929947451171875
-0.4400094140625,-0.0337502978515625,0.9183964208984375
-0.20440236328125,-0.04183827880859375,0.8992266259765624
-0.43368765625,-0.05605351806640625,0.9046334912109375
-0.3233000390625,0.05521749267578125,0.966320908203125
-0.2523018359375,0.10129447509765625,0.827708544921875
-0.1501811328125,-0.07173929931640625,0.87440419921875
-0.45338236328125,0.07825598388671876,0.99040603515625
-0.36585033203125,-0.01585870361328125,1.108865537109375
-0.38384302734375,-0.023456503906250002,1.1680952880859374
-0.41982841796875,0.11158826904296874,0.985982236328125
-0.19419029296875,-0.0464949951171875,0.8834975634765625
-0.35223423828125,-0.1161006494140625,0.874895732421875
-0.341292734375,0.08707923583984375,0.961897109375
-0.23552486328125,0.03168882080078125,0.907336923828125
-0.22385392578125,0.036345537109375,0.872929599609375
-0.28172232421875,-0.0038492773437499997,0.878827998046875
-0.38676076171875,-0.010711806640625,0.965829375
-0.33472783203125,-0.015368522949218751,1.0019570654296874
-0.4643238671875,0.0299731884765625,0.937811982421875
-0.2999581640625,-0.012672529296875,0.8982435595703124
-0.35174794921875,-0.027868129882812502,0.8834975634765625
-0.37338781249999997,-0.00752563232421875,1.0619241162109374
-0.3967296875,-0.0268877685546875,1.1194335009765626
-0.358799140625,-0.0533575244140625,0.95894791015625
-0.41545181640625,0.02139502685546875,0.9149556884765625
-0.3135742578125,-0.03938737548828125,0.817877880859375
-0.1477496875,-0.095022880859375,0.775606025390625
-0.236254296875,-0.0700236669921875,0.7952673535156249
-0.397702265625,-0.2013920849609375,0.8761245654296875
-0.32451576171875,0.004973974609375,1.138357529296875
-0.53483578125,-0.03546593017578125,1.2113502099609375
-0.35393625,-0.0567887890625,1.173747919921875
-0.41010263671875,-0.0690433056640625,1.0179318945312499
-0.312115390625,0.0030132519531249997,0.974185439453125
-0.32646091796875,-0.045024453125,0.889641728515625
-0.41593810546875,0.0750698095703125,0.9808211376953125
-0.222638203125,0.00668960693359375,1.08379734375
-0.3505322265625,-0.04723026611328125,1.089204208984375
-0.36439146484375,-0.0925719775390625,0.9783634716796875
-0.30020130859375,0.07237381591796875,0.9621428759765625
-0.33667298828125003,-0.0259074072265625,0.911269189453125
-0.36536404296875,-0.01169216796875,0.959439443359375
-0.44025255859375,-0.0229663232421875,0.993355234375
-0.40280830078125,-0.05703387939453125,1.03661015625
-0.403537734375,0.0123266845703125,0.9714820068359376
-0.339347578125,0.04002189208984375,1.0181776611328126
-0.3271903515625,0.04590406005859375,1.02579642578125
-0.37606240234375,0.0044837939453125,1.0673309814453125
-0.38238416015625,0.0093856005859375,1.0520934521484375
-0.3349709765625,-0.06683749267578125,0.8893959619140624
-0.38092529296875,-0.07271966064453125,0.852285205078125
-0.33181009765625,0.04051207275390625,0.8554801708984375
-0.3680386328125,-0.06585713134765625,0.8643277685546875
-0.24136033203125,0.0682072802734375,1.0112961962890625
-0.43149935546875,-0.0332601171875,0.994829833984375
-0.37508982421875,0.01698340087890625,1.0778989453125
-0.3631757421875,0.0221302978515625,1.0648733154296874
-0.25303126953125,-0.02370159423828125,1.04349162109375
-0.32354318359375,-0.08399381591796876,1.0260421923828125
-0.3223274609375,-0.03154448486328125,1.0034316650390624
-0.24695265625,-0.085219267578125,0.9972875
-0.34785763671875003,-0.03448556884765625,1.004660498046875
-0.2668905078125,-0.07713128662109375,0.9567360107421875
-0.317950859375,-0.01487834228515625,1.0071181640625
-0.3033621875,0.0037485229492187503,1.0614325830078124
-0.33813185546875,-0.08595453857421875,0.92552365234375
-0.349073359375,0.03512008544921875,0.99237216796875
-0.34591248046875,0.05668803466796875,1.0078554638671875
-0.341292734375,-0.0268877685546875,0.9164302880859375
-0.32354318359375,-0.02615249755859375,0.992863701171875
-0.37338781249999997,0.07335417724609375,0.9980247998046875
-0.20488865234375,-0.10850284912109374,0.997779033203125
-0.48815203125,0.06551128662109375,1.047915419921875
-0.25983931640625,0.019679394531249998,1.0781447119140626
-0.33861814453125,-0.08595453857421875,0.953541044921875
-0.3408064453125,-0.00507472900390625,0.9621428759765625
-0.28220861328125,-0.0190448779296875,0.8589209033203125
-0.30117388671875,-0.07713128662109375,0.8778449316406249
-0.31697828125,0.0564429443359375,0.971236240234375
-0.392839375,-0.015368522949218751,1.037101689453125
-0.3855450390625,0.06747200927734374,1.1005094726562499
-0.1579617578125,-0.010711806640625,1.0112961962890625
-0.40086314453125,0.0172284912109375,0.993846767578125
-0.28804408203125,-0.09526797119140624,1.0776531787109376
-0.1696326953125,0.0270321044921875,1.109848603515625
-0.46310814453125,-0.0038492773437499997,0.969270107421875
-0.2289599609375,-0.10458140380859375,0.9444476806640625
-0.277102578125,0.103010107421875,1.0216183935546874
-0.29752671875000003,-0.004829638671875,1.04349162109375
-0.3111428125,-0.1337471533203125,0.884726396484375
-0.3500459375,0.05889384765625,0.906353857421875
-0.304334765625,-0.01830960693359375,0.8854636962890625
-0.3320532421875,-0.00605509033203125,0.8712092333984375
-0.3485870703125,-0.02615249755859375,0.8928366943359375
-0.2333365625,0.02531647216796875,0.849336005859375
-0.3262177734375,-0.04036773681640625,0.8026403515625
-0.3164919921875,0.02286556884765625,0.90193005859375
-0.36390517578125,-0.020515419921875,0.965337841796875
-0.294608984375,0.07041309326171875,0.9709904736328125
-0.2843969140625,0.05129604736328125,0.9208540869140625
-0.331566953125,-0.0239466845703125,0.9100403564453124
-0.3466419140625,0.03266918212890625,0.8648193017578125
-0.31576255859375,-0.010221625976562499,0.8957858935546875
-0.34226531250000003,0.03217900146484375,0.90389619140625
-0.26518849609375,0.032424091796875,0.9599309765625
-0.419098984375,0.00816014892578125,0.99433830078125
-0.2678630859375,0.07629526123046874,1.0171945947265626
-0.2639727734375,-0.060710234375,0.885709462890625
-0.28609892578125,-0.02027032958984375,0.944693447265625
-0.3213548828125,0.0037485229492187503,1.03366095703125
-0.3408064453125,-0.10213050048828125,0.910286123046875
-0.25011353515625,0.0530116796875,0.9208540869140625
-0.32086859375,-0.042083369140625,0.8903790283203125
-0.28123603515625,0.05374695068359375,1.02088109375
-0.2114535546875,0.033404453125,0.949608779296875
-0.4614061328125,-0.028113220214843748,0.97369390625
-0.28391062499999997,0.00399361328125,0.9940925341796875
-0.27540056640625,-0.0200252392578125,0.9292101513671875
-0.366579765625,-0.014633251953124999,0.9614055761718749
-0.19759431640625,-0.044534272460937496,0.931913583984375
-0.4011062890625,-0.01291761962890625,0.9356000830078125
-0.31478998046875,-0.0582593310546875,0.9867195361328125
-0.22482650390625,-0.01046671630859375,1.0044147314453125
-0.30871136718750003,-0.0175743359375,1.0221099267578124
-0.31284482421875,-0.05997496337890625,0.9400238818359374
-0.33229638671875,0.0012976196289062499,0.952557978515625
-0.2474389453125,0.03315936279296875,0.958456376953125
-0.2878009375,-0.09624833251953124,0.88620099609375
-0.2785614453125,0.0780108935546875,1.0078554638671875
-0.35199109375,-0.05090662109375,0.9695158740234375
-0.28464005859375,-0.05458297607421875,0.9717277734375
-0.3067662109375,0.0329142724609375,0.9813126708984374
-0.28318119140625,-0.04870080810546875,1.0122792626953125
-0.3408064453125,0.0035034326171875,1.026287958984375
-0.338375,-0.01561361328125,0.977134638671875
-0.27102396484375,-0.089140712890625,0.8928366943359375
-0.25692158203125,0.02433611083984375,0.9397781152343749
-0.32086859375,0.0037485229492187503,0.965337841796875
-0.23747001953125,-0.06585713134765625,1.034152490234375
-0.399647421875,0.044188427734375,1.0511103857421875
-0.28974609375,-0.067572763671875,0.9660751416015625
-0.28804408203125,0.0044837939453125,0.9677955078125
-0.3500459375,-0.047965537109375,0.9926179345703126
-0.3680386328125,-0.06193568603515625,1.00515203125
-0.25303126953125,0.04786478271484375,0.9818042041015624
-0.35758341796875,-0.03840701416015625,0.8500733056640625
-0.29290697265625,-0.03522083984375,0.9346170166015625
-0.317950859375,0.021640117187500002,1.001219765625
-0.34639876953125,-0.01561361328125,0.9714820068359376
-0.24768208984375,-0.0337502978515625,0.97467697265625
-0.3500459375,0.03266918212890625,1.021372626953125
-0.30652306640625,-0.0768861962890625,0.9818042041015624
-0.23601115234375,-0.0016434643554687498,0.9390408154296875
-0.3602580078125,0.0005623486328125002,0.97664310546875
-0.3184371484375,-0.0332601171875,1.026287958984375
-0.2766162890625,0.02776737548828125,0.9881941357421875
-0.32281375,-0.0288484912109375,1.024813359375
-0.33326896484375,-0.04575972412109375,0.9972875
-0.28755779296875,0.00325834228515625,0.9744312060546875
-0.25935302734375,-0.01928996826171875,0.9862280029296875
-0.36925435546875,-0.0621807763671875,0.8987350927734374
-0.2250696484375,-0.0170841552734375,0.9562444775390625
-0.28998923828125,-0.02713285888671875,0.943710380859375
-0.27199654296875,-0.04575972412109375,0.9520664453125
-0.3651208984375,-0.0016434643554687498,0.9621428759765625
-0.22871681640625,-0.03301502685546875,1.061678349609375
-0.3553951171875,-0.01953505859375,1.00613509765625
-0.27394169921875,-0.0180645166015625,0.988931435546875
-0.30992708984375,-0.0063001806640625,0.954032578125
-0.393811953125,0.01208159423828125,1.031203291015625
-0.28585578125,0.0201695751953125,0.9975332666015625
-0.251815546875,-0.05654369873046875,0.8859552294921875
-0.358799140625,-0.02149578125,0.94911724609375
-0.205131796875,-0.02223105224609375,0.949608779296875
-0.3106565234375,-0.02419177490234375,0.965337841796875
-0.33424154296874997,-0.01169216796875,1.027271025390625
-0.24622322265625,-0.01487834228515625,0.9567360107421875
-0.32937865234375,0.00276816162109375,0.9356000830078125
-0.296554140625,-0.02468195556640625,0.9852449365234375
-0.29436583984375,-0.00213364501953125,0.9493630126953125
-0.29509527343749997,-0.0141430712890625,0.9599309765625
-0.2805066015625,-0.048455717773437504,0.98647376953125
-0.31478998046875,-0.03693647216796875,1.004660498046875
-0.33618669921875,0.0005623486328125002,0.9992536328125
-0.24184662109375,-0.059729873046875,0.9459222802734375
-0.3281629296875,-0.02125069091796875,0.8938197607421875
-0.25059982421875,-0.00507472900390625,0.9402696484374999
-0.32451576171875,-0.05605351806640625,0.93338818359375
-0.279047734375,0.04198261474609375,1.043000087890625
-0.3164919921875,-0.012672529296875,0.9940925341796875
-0.3495596484375,0.02041466552734375,1.014491162109375
-0.23455228515625,0.05521749267578125,1.0068723974609375
-0.29387955078125,-0.044044091796875,0.9046334912109375
-0.38238416015625,-0.008996174316406251,0.9820499707031249
-0.25084296875,-0.0268877685546875,1.006626630859375
-0.31235853515625,-0.085219267578125,0.9646005419921875
-0.33253953125,-0.076396015625,0.9508376123046876
-0.2566784375,0.00227798095703125,0.9518206787109375
-0.26713365234374997,-0.008751083984375,0.94223578125
-0.38967849609375,-0.061690595703125004,0.9326508837890625
-0.21947732421875,-0.01193725830078125,0.9390408154296875
-0.30141703125,0.01159141357421875,0.907336923828125
-0.31235853515625,-0.03914228515625,0.946168046875
-0.2834243359375,0.01747358154296875,0.998762099609375
-0.28974609375,-0.067572763671875,1.01006736328125
-0.37606240234375,-0.02468195556640625,0.9847534033203125
-0.290718671875,-0.035711020507812496,0.947642646484375
-0.3033621875,-0.01193725830078125,0.93338818359375
-0.26129818359375,-0.01683906494140625,0.9675497412109375
-0.317950859375,-0.075415654296875,0.9363373828125
-0.32986494140625,-0.0141430712890625,0.943710380859375
-0.24184662109375,-0.065612041015625,0.9110234228515625
-0.33618669921875,0.0069346972656249995,0.9159387548828125
-0.29752671875000003,-0.0006631030273437505,0.9419900146484375
-0.27734572265625,0.02286556884765625,0.9921264013671875
-0.2800203125,-0.03056412353515625,1.0520934521484375
-0.35612455078125,-0.0396324658203125,1.06511908203125
-0.2989855859375,-0.01438816162109375,1.0004824658203124
-0.28755779296875,-0.0161037939453125,0.904387724609375
-0.3096839453125,-0.0866898095703125,0.89209939453125
-0.33472783203125,0.03536517578125,0.93437125
-0.24573693359375,-0.09232688720703125,0.90389619140625
-0.30530734375,-0.0038492773437499997,0.941744248046875
-0.33715927734375,0.0270321044921875,0.977134638671875
-0.28853037109375,-0.0504164404296875,0.9911433349609375
-0.32354318359375,0.0003172583007812497,0.9700074072265625
-0.27588685546875,-0.06830803466796875,0.951574912109375
-0.28391062499999997,-0.0298288525390625,0.8746499658203125
-0.28318119140625,-0.00777072265625,0.8481071728515625
-0.33618669921875,-0.0425735498046875,0.8734211328125
-0.3894353515625,0.00791505859375,0.9842618701171875
-0.24573693359375,0.0012976196289062499,1.02579642578125
-0.37752126953125,-0.051886982421875,0.903404658203125
-0.27151025390625,-0.03644629150390625,0.952557978515625
-0.2941226953125,0.0868341455078125,0.9874568359375
-0.3344846875,-0.0994345068359375,1.0216183935546874
-0.33424154296874997,0.0093856005859375,1.01399962890625
-0.26178447265625,-0.0097314453125,0.9685328076171875
-0.28658521484375,-0.03154448486328125,0.983033037109375
-0.34493990234375,-0.0641414990234375,0.9454307470703125
-0.2464663671875,0.01159141357421875,0.987948369140625
-0.35563826171875,0.040266982421875,0.9614055761718749
-0.26227076171875,-0.07419020263671874,0.90389619140625
-0.3320532421875,-0.05605351806640625,0.88226873046875
-0.32646091796875,0.052031318359375,0.97369390625
-0.19613544921875,-0.01978014892578125,0.927981318359375
-0.3942982421875,-0.08252327392578125,0.8933282275390625
-0.25084296875,0.02752228515625,1.0049062646484375
-0.2095083984375,0.08609887451171874,1.0343982568359376
-0.376305546875,-0.0001729223632812504,1.006626630859375
-0.32597462890625,-0.02909358154296875,1.000728232421875
-0.26081189453125,-0.01953505859375,0.9808211376953125
-0.341292734375,-0.03350520751953125,0.9700074072265625
-0.27248283203125,-0.023456503906250002,0.8672769677734375
-0.29776986328125,-0.1033559521484375,0.8933282275390625
-0.327676640625,0.05570767333984375,1.0049062646484375
-0.32062544921875,-0.08154291259765625,1.008592763671875
-0.315033125,-0.02149578125,0.9331424169921875
-0.26227076171875,0.0294830078125,0.896523193359375
-0.28950294921874997,0.03708080810546875,0.942727314453125
-0.252788125,-0.05654369873046875,0.9324051171875
-0.2775888671875,-0.006790361328125,0.9695158740234375
-0.42177357421875,0.01649322021484375,1.043000087890625
-0.21218298828125,0.05105095703125,0.938795048828125
-0.41350666015625,-0.06291604736328126,0.8687515673828125
-0.23698373046875,0.0044837939453125,0.908319990234375
-0.251815546875,0.081442158203125,0.9316678173828125
-0.2960678515625,-0.04698517578125,0.9872110693359375
-0.28026345703125,0.01257177490234375,0.996795966796875
-0.26664736328125,-0.03522083984375,0.9604225097656249
-0.37800755859375,0.04394333740234375,1.0228472265625
-0.25400384765625,-0.013162709960937501,0.8766160986328125
-0.224583359375,-0.0023787353515625003,0.9080742236328125
-0.34737134765625,-0.057278969726562504,0.958456376953125
-0.26056875,-0.055073156738281254,1.02579642578125
-0.2989855859375,-0.10997339111328125,0.9134810888671875
-0.26810623046875,0.00668960693359375,0.92650671875
-0.31138595703125,-0.0072805419921875,0.9134810888671875
-0.40815748046875,0.0270321044921875,0.9704989404296875
-0.1788721875,0.13511694091796875,0.924049052734375
-0.2785614453125,0.11060790771484375,0.912252255859375
-0.41302037109375,0.13560712158203125,0.9621428759765625
-0.19564916015625,0.046149150390625,1.0801108447265624
-0.314060546875,0.02139502685546875,1.0953483740234375
-0.37144265625,-0.01389798095703125,1.1002637060546876
-0.28998923828125,-0.01291761962890625,1.09067880859375
-0.205131796875,-0.1504132958984375,1.0535680517578125
-0.47575166015625,-0.00654527099609375,1.0818312109375
-0.41618125,-0.04526954345703125,1.1093570703125
-0.27685943359375,-0.0082609033203125,1.0324321240234375
-0.29339326171875,-0.01291761962890625,0.991880634765625
-0.3670660546875,-0.05262225341796875,1.0235845263671874
-0.16841697265625,0.01575794921875,0.9609140429687499
-0.34421046875,0.0417375244140625,0.858183603515625
-0.35855599609375,-0.0553182470703125,0.8871840625
-0.26032560546875,-0.05482806640625,0.9609140429687499
-0.29874244140625,0.00276816162109375,1.093136474609375
-0.38189787109375,-0.05654369873046875,0.984999169921875
-0.3466419140625,-0.04772044677734375,0.934862783203125
-0.358799140625,0.03757098876953125,0.924049052734375
-0.34348103515625,0.0201695751953125,0.821810146484375
-0.31576255859375,-0.03522083984375,0.7593854296875
-0.28512634765625,-0.03595611083984375,0.809030283203125
-0.27977716796875,-0.055073156738281254,0.845403740234375
-0.2766162890625,-0.0161037939453125,0.934862783203125
-0.18689595703125,-0.057769150390625,0.971236240234375
-0.18859796875,-0.09845414550781251,0.9473968798828125
-0.2941226953125,0.05080586669921875,1.006626630859375
-0.28950294921874997,0.05178622802734375,1.1027213720703124
-0.43441708984375,0.04149243408203125,1.1504000927734375
-0.37508982421875,0.19540916259765626,1.2312573046875
-0.43830740234375,0.032424091796875,1.180629384765625
-0.42517759765625,0.055952763671875,1.1499085595703125
-0.33083751953125,0.116735166015625,0.9144641552734375
-0.3476144921875,-0.03056412353515625,0.724486572265625
-0.13340416015625,-0.06095532470703125,0.663044921875
-0.09693248046875,-0.0690433056640625,0.6839350830078125
-0.26275705078125,-0.1435507666015625,0.8427003076171875
-0.277102578125,-0.14820748291015626,1.0130165625
-0.37460353515625,-0.0371815625,1.12803533203125
-0.3378887109375,0.01575794921875,1.168832587890625
-0.30020130859375,0.0358553564453125,1.1376202294921876
-0.3271903515625,0.08953013916015624,1.117713134765625
-0.35563826171875,-0.0009081933593750001,1.062661416015625
-0.39162365234375,0.0373258984375,1.040050888671875
-0.30117388671875,-0.03252484619140625,1.0068723974609375
-0.232363984375,0.009140510253906251,0.9614055761718749
-0.253760703125,-0.061690595703125004,0.9591936767578125
-0.3189234375,0.03561026611328125,1.0771616455078126
-0.2027003515625,-0.04919098876953125,1.0661021484375
-0.38238416015625,-0.0455146337890625,1.0179318945312499
-0.22385392578125,0.1035002880859375,0.998762099609375
-0.27102396484375,-0.0670825830078125,0.8997181591796874
-0.384086171875,0.08119706787109375,1.064136015625
-0.2970404296875,0.04835496337890625,1.090187275390625
-0.3578265625,0.04786478271484375,1.0402966552734374
-0.35515197265625,-0.0180645166015625,1.0461950537109375
-0.31333111328125,0.057913486328125,1.0594664501953126
-0.24719580078125,-0.032279755859375,0.9626344091796875
-0.27880458984375,-0.1013952294921875,0.8618701025390625
-0.16987583984375,-0.00703545166015625,0.8574463037109374
-0.21996361328125,0.03217900146484375,0.9360916162109375
-0.2309051171875,0.0012976196289062499,0.993846767578125
-0.26616107421875,0.0936966748046875,1.0216183935546874
-0.230418828125,0.10031411376953125,1.1543323583984375
-0.3806821484375,0.0319339111328125,1.163917255859375
-0.4137498046875,0.03659062744140625,1.0503730859375
-0.35806970703125,0.016738310546875,0.9896687353515625
-0.2955815625,-0.0043394580078125,0.952557978515625
-0.34591248046875,-0.027868129882812502,0.8692431005859375
-0.207076953125,-0.03203466552734375,0.9154472216796875
-0.29363640625,0.0574233056640625,0.9872110693359375
-0.27442798828125,-0.06683749267578125,0.9808211376953125
-0.33278267578125,-0.00948635498046875,0.916184521484375
-0.249870390625,-0.013162709960937501,0.9095488232421876
-0.2484115234375,0.00987578125,0.9557529443359375
-0.29582470703125,0.012816865234374999,0.9763973388671875
-0.30020130859375,-0.03350520751953125,1.011541962890625
-0.4059691796875,0.03144373046875,0.9916348681640625
-0.31333111328125,-0.0151234326171875,0.9591936767578125
-0.31673513671875,0.0093856005859375,0.8412257080078125
-0.28415376953125,0.0035034326171875,0.904387724609375
-0.23406599609375,-0.0562986083984375,1.0058893310546875
-0.3680386328125,-0.08938580322265625,1.0717547802734375
-0.2143712890625,-0.0876701708984375,0.906353857421875
-0.23747001953125,-0.0371815625,0.6804943505859375
-0.12951384765625001,0.0137972265625,0.800182685546875
-0.3135742578125,-0.01193725830078125,0.96484630859375
-0.30992708984375,0.01257177490234375,1.16539185546875
-0.40864376953125,0.07923634521484375,1.095102607421875
-0.3972159765625,0.01110123291015625,0.8852179296875
-0.24962724609375,-0.0055649096679687505,0.71121517578125
-0.24525064453125,0.07482471923828125,0.647315859375
-0.251815546875,0.15080272216796875,0.8063268505859374
-0.22871681640625,0.0486000537109375,1.0009739990234374
-0.29752671875000003,0.04712951171875,1.2418252685546876
-0.36098744140625,0.0927163134765625,1.31285181640625
-0.48499115234375,0.04002189208984375,1.3084280175781249
-0.41253408203124997,-0.08619962890625,1.1302472314453125
-0.263486484375,-0.01585870361328125,0.8304119775390625
-0.18738224609375,-0.05090662109375,0.621264599609375
-0.098148203125,-0.183255400390625,0.6195442333984374
-0.1657423828125,-0.02419177490234375,0.8304119775390625
-0.31576255859375,0.064776015625,1.1336879638671875
-0.486206875,-0.0406128271484375,1.3460303076171876
-0.45775896484375,0.1025199267578125,1.3937090283203124
-0.40937320312500003,0.1191860693359375,1.1172216015625
-0.27491427734375,-0.01389798095703125,0.9100403564453124
-0.1793584765625,-0.06781785400390625,0.8834975634765625
-0.2610550390625,-0.038161923828125,0.8156659814453124
-0.26372962890625,-0.04477936279296875,0.7414444677734375
-0.16112263671875,-0.09183670654296874,0.714164375
-0.2941226953125,-0.0332601171875,0.884726396484375
-0.3291355078125,-0.075415654296875,1.0417712548828124
-0.32937865234375,0.06011929931640625,1.16342572265625
-0.48596373046875,0.10129447509765625,0.95796484375
-0.23528171875,-0.05458297607421875,0.744147900390625
-0.12367837890625,0.028502646484374998,0.89406552734375
-0.29169125,0.03806116943359375,1.1032129052734374
-0.397702265625,-0.0724745703125,1.21257904296875
-0.3826273046875,0.13119549560546875,1.088221142578125
-0.26664736328125,-0.04134809814453125,0.8731753662109375
-0.2099946875,-0.02762303955078125,0.7414444677734375
-0.15091056640625,-0.01830960693359375,0.758893896484375
-0.177899609375,-0.0415931884765625,0.8746499658203125
-0.1764407421875,-0.013652890625,0.98647376953125
-0.08720669921875,-0.08791526123046875,1.101984072265625
-0.32402947265625,0.024091020507812498,1.2904870556640624
-0.50687416015625,0.017718671875,1.3819122314453125
-0.60704970703125,-0.09673851318359375,1.13786599609375
-0.17182099609375,-0.0749254736328125,0.8102591162109375
-0.206104375,-0.01193725830078125,0.6745959521484375
-0.27515742187500003,-0.1249239013671875,0.725469638671875
-0.24962724609375,-0.071494208984375,0.7920723876953125
-0.25546271484375,-0.08791526123046875,0.70728291015625
-0.19710802734375,-0.18521612304687501,0.6141373681640625
-0.20537494140625,0.07261890625,0.763809228515625
-0.13291787109375,0.07237381591796875,1.0299744580078125
-0.33570041015625,0.1162449853515625,1.24010490234375
-0.5061447265625,0.2240847314453125,1.3610220703125
-0.38724705078125,0.03512008544921875,1.2659103955078126
-0.53653779296875,0.0966377587890625,1.178663251953125
-0.327676640625,-0.08350363525390625,0.962388642578125
-0.2143712890625,-0.0170841552734375,0.8230389794921875
-0.35028908203125,0.00399361328125,0.8028861181640625
-0.15869119140625,-0.057278969726562504,0.9346170166015625
-0.455084375,-0.06095532470703125,1.0820769775390624
-0.27880458984375,-0.00213364501953125,1.0759328125
-0.17230728515625,0.055952763671875,1.0860092431640624
-0.44365658203125,-0.03595611083984375,1.0368559228515626
-0.31308796875,-0.09820905517578125,1.0108046630859375
-0.30944080078125,0.0250713818359375,0.9877026025390625
-0.442440859375,-0.0072805419921875,0.89603166015625
-0.22434021484375,-0.03105430419921875,0.7741314257812499
-0.458002109375,-0.030319033203124998,0.6446124267578125
-0.36487775390625,-0.06389640869140625,0.567195947265625
-0.15966376953125,-0.0141430712890625,0.6286375976562499
-0.21218298828125,-0.07909200927734375,0.69548611328125
-0.267376796875,-0.08791526123046875,0.842454541015625
-0.27248283203125,0.05325677001953125,1.1100943701171875
-0.3028758984375,-0.00581,1.1381117626953126
-0.1764407421875,0.06649164794921875,1.1798920849609376
-0.32111173828125,0.03119864013671875,1.20864677734375
-0.20877896484375,0.049090234375,1.194392314453125
-0.27029453125,0.0074248779296875,1.14966279296875
-0.347128203125,0.05913893798828125,1.0869923095703125
-0.3631757421875,0.02531647216796875,1.119187734375
-0.292663828125,0.0309535498046875,1.2742664599609375
-0.2736985546875,-0.02027032958984375,1.3652001025390625
-0.4108320703125,-0.0053198193359375,1.23813876953125
-0.24573693359375,0.09492212646484376,1.0722463134765625
-0.2192341796875,-0.048945898437499996,0.8717007666015625
-0.25059982421875,-0.0415931884765625,0.8535140380859375
-0.20877896484375,0.00325834228515625,0.9818042041015624
-0.2766162890625,-0.0955130615234375,0.931913583984375
-0.28512634765625,-0.140119501953125,0.90782845703125
-0.31284482421875,0.01845394287109375,1.0093300634765625
-0.302389609375,-0.0631611376953125,1.0309575244140625
-0.265431640625,0.0221302978515625,0.991880634765625
-0.31673513671875,0.1157548046875,1.0186691943359376
-0.3145468359375,0.0030132519531249997,1.0373474560546876
-0.2912049609375,-0.0013983740234375002,1.06118681640625
-0.2396583203125,-0.06095532470703125,1.1155012353515625
-0.2571647265625,-0.013407800292968751,1.138357529296875
-0.20099833984375,-0.0151234326171875,1.0759328125
-0.37508982421875,-0.06267095703125,1.0747039794921875
-0.24184662109375,0.03315936279296875,1.0464408203125
-0.26567478515625,-0.0200252392578125,0.907336923828125
-0.2999581640625,-0.00581,0.943710380859375
-0.2722396875,0.057913486328125,0.9080742236328125
-0.26761994140625,-0.0043394580078125,0.8495817724609375
-0.32743349609375,-0.004829638671875,0.812962548828125
-0.27418484375,-0.0249270458984375,0.9129895556640625
-0.292663828125,0.00570924560546875,0.97074470703125
-0.292663828125,0.032424091796875,0.9493630126953125
-0.20051205078125,0.0427178857421875,0.91077765625
-0.3038484765625,0.0348749951171875,0.899472392578125
-0.22774423828125,-0.01389798095703125,1.0117877294921875
-0.3456693359375,0.00227798095703125,0.98647376953125
-0.19078626953125,0.03315936279296875,0.9228202197265625
-0.31430369140625003,0.046149150390625,0.8984893261718749
-0.26859251953125,-0.02076051025390625,0.937811982421875
-0.30919765625,0.02727719482421875,0.9245405859375
-0.24184662109375,-0.0567887890625,0.9080742236328125
-0.35466568359375,0.0035034326171875,0.9206083203125
-0.384086171875,-0.0013983740234375002,0.94125271484375
-0.23309341796875,-0.00507472900390625,0.9282270849609375
-0.3057936328125,-0.01438816162109375,0.9488714794921875
-0.36876806640625,0.085363603515625,0.9346170166015625
-0.17960162109375,-0.06340622802734375,0.8458952734375
-0.3563676953125,0.03144373046875,0.8677685009765626
-0.22361078125,-0.0690433056640625,0.950591845703125
-0.331566953125,-0.08203309326171875,0.8510563720703125
-0.2027003515625,0.04198261474609375,0.920116787109375
-0.23139140625,0.03659062744140625,0.9547698779296875
-0.35563826171875,0.036345537109375,0.929947451171875
-0.26567478515625,0.04688442138671875,0.959439443359375
-0.35709712890625,0.0289928271484375,1.028745625
-0.257651015625,0.04051207275390625,0.9717277734375
-0.28464005859375,-0.044044091796875,0.9179048876953125
-0.29436583984375,-0.0288484912109375,0.9704989404296875
-0.29971501953125,0.00570924560546875,0.929947451171875
-0.2630001953125,0.0294830078125,0.950591845703125
-0.25084296875,-0.0018885546875000003,0.9011927587890625
-0.25594900390624997,-0.044534272460937496,0.8977520263671875
-0.36536404296875,0.00791505859375,0.9257694189453125
-0.206104375,-0.0386521044921875,0.84884447265625
-0.1710915625,0.0162481298828125,0.7746229589843749
-0.2542469921875,-0.00997653564453125,0.8476156396484374
-0.28755779296875,-0.03644629150390625,0.983033037109375
-0.36244630859375,0.0564429443359375,1.00515203125
-0.34007701171875,0.00227798095703125,1.0466865869140625
-0.3767918359375,0.04345315673828125,1.002694365234375
-0.28391062499999997,0.0059543359375,1.0068723974609375
-0.27102396484375,-0.046740085449218746,0.9985163330078125
-0.28658521484375,-0.01683906494140625,0.9832788037109375
-0.380195859375,-0.0680629443359375,0.9626344091796875
-0.1633109375,0.0294830078125,0.90389619140625
-0.279047734375,0.02972809814453125,0.9046334912109375
-0.32013916015625,-0.0200252392578125,0.9965502001953125
-0.230418828125,-0.028113220214843748,1.004660498046875
-0.28415376953125,-0.02125069091796875,1.0240760595703124
-0.25059982421875,0.040266982421875,1.0442289208984374
-0.36755234375,0.02041466552734375,0.985490703125
-0.216802734375,-0.05164189208984375,1.0329236572265625
-0.32986494140625,0.038306259765625,1.0732293798828125
-0.3145468359375,-0.020515419921875,1.0346440234375
-0.30311904296875003,0.0544822216796875,0.95108337890625
-0.1676875390625,0.0623251123046875,0.8933282275390625
-0.25546271484375,0.0378160791015625,0.935845849609375
-0.20415921875,-0.029338671875,0.949608779296875
-0.22701480468750002,-0.04281864013671875,0.992863701171875
-0.21121041015625,-0.011201987304687501,1.0496357861328125
-0.38530189453125,-0.030319033203124998,1.1150097021484375
-0.26761994140625,0.0672269189453125,1.20078224609375
-0.36293259765625,-0.01291761962890625,1.056763017578125
-0.349073359375,-0.034240478515625,0.906845390625
-0.2814791796875,0.01159141357421875,0.9061080908203125
-0.2912049609375,-0.04772044677734375,0.823776279296875
-0.29825615234375,-0.018554697265625,0.8048522509765625
-0.24038775390625,-0.0033590966796874996,0.914709921875
-0.27248283203125,-0.06242586669921875,0.930930517578125
-0.2902323828125,-0.03105430419921875,0.9759058056640625
-0.33326896484375,0.044188427734375,1.048406953125
-0.30944080078125,-0.00777072265625,1.01203349609375
-0.24476435546875,0.0012976196289062499,0.97369390625
-0.36390517578125,0.01698340087890625,0.98057537109375
-0.330594375,0.0456589697265625,1.019406494140625
-0.2882872265625,0.03144373046875,0.9621428759765625
-0.27977716796875,-0.01953505859375,0.9090572900390625
-0.23528171875,0.0466393310546875,1.0530765185546875
-0.26275705078125,0.028502646484374998,1.0776531787109376
-0.26372962890625,-0.046004814453125,0.9994993994140625
-0.1881116796875,0.00865032958984375,0.9714820068359376
-0.27880458984375,0.00276816162109375,0.9940925341796875
-0.24938410156250002,-0.0033590966796874996,1.016948828125
-0.3189234375,-0.00360418701171875,1.0363643896484376
-0.31527626953125,-0.01634888427734375,1.0275167919921875
-0.28634207031250003,0.04443351806640625,0.9763973388671875
-0.28269490234375,-0.07222947998046875,0.93338818359375
-0.32111173828125,0.0319339111328125,0.9877026025390625
-0.29752671875000003,-0.0455146337890625,0.9041419580078125
-0.31478998046875,0.0054641552734375,0.896523193359375
-0.284883203125,0.0003172583007812497,0.92552365234375
-0.2542469921875,-0.089140712890625,1.0031858984375
-0.2878009375,0.0250713818359375,1.0874838427734375
-0.3690112109375,-0.12075736572265625,0.958456376953125
-0.18057419921875,-0.09404251953125001,0.8736668994140625
-0.29290697265625,-0.015368522949218751,0.8230389794921875
-0.24379177734375002,-0.0817880029296875,0.8869382958984375
-0.30919765625,-0.0219859619140625,0.9021758251953125
-0.36585033203125,-0.03889719482421875,0.9577190771484375
-0.3155194140625,0.0270321044921875,0.9953213671875
-0.20464550781250002,-0.013652890625,0.93732044921875
-0.3135742578125,0.02139502685546875,0.9518206787109375
-0.22190876953125,0.0495804150390625,1.0078554638671875
-0.3126016796875,-0.05850442138671875,0.95501564453125
-0.22482650390625,0.00987578125,0.9990078662109375
-0.29825615234375,-0.00703545166015625,1.0319405908203125
-0.29485212890625,-0.03350520751953125,1.05332228515625
-0.21193984375,0.07261890625,1.05725455078125
-0.34032015625,-0.01144707763671875,1.026287958984375
-0.32305689453124997,0.0035034326171875,1.0865007763671874
-0.20002576171875,-0.01389798095703125,0.9729566064453125
-0.31041337890625,-0.0415931884765625,0.9198710205078124
-0.21193984375,-0.02664267822265625,0.9070911572265625
-0.2464663671875,-0.03350520751953125,0.867522734375
-0.27005138671875,-0.053847705078125,0.9179048876953125
-0.29339326171875,-0.010221625976562499,0.9481341796875
-0.24136033203125,-0.01879978759765625,0.938795048828125
-0.29047552734375,-0.042083369140625,0.994829833984375
-0.30895451171875,-0.008996174316406251,1.022355693359375
-0.2488978125,-0.0161037939453125,0.950591845703125
-0.2289599609375,-0.028113220214843748,0.9614055761718749
-0.32864921874999997,-0.00997653564453125,0.97369390625
-0.26324333984375,0.03119864013671875,0.9795923046875
-0.28609892578125,0.01992448486328125,0.985982236328125
-0.30068759765624997,-0.05801424072265625,0.949608779296875
-0.22871681640625,-0.04281864013671875,0.9242948193359375
-0.30603677734375,-0.057769150390625,0.9498545458984375
-0.21412814453125,-0.08007237060546875,1.021372626953125
-0.31381740234375,-0.05752406005859375,0.97369390625
-0.19905318359375002,-0.02076051025390625,0.9685328076171875
-0.25935302734375,-0.02370159423828125,0.9115149560546875
-0.2566784375,-0.044044091796875,0.949608779296875
-0.21947732421875,-0.0406128271484375,0.9636174755859375
-0.3019033203125,-0.02517213623046875,0.9356000830078125
-0.2221519140625,-0.02149578125,0.9616513427734374
-0.23212083984375,-0.0474753564453125,0.8608870361328125
-0.271267109375,-0.046249904785156254,0.84884447265625
-0.24670951171875,-0.06732767333984375,0.9061080908203125
-0.27880458984375,-0.010711806640625,0.9872110693359375
-0.2566784375,0.028257556152343752,1.075441279296875
-0.31138595703125,-0.038161923828125,1.0228472265625
-0.26372962890625,0.023845930175781252,0.9223286865234375
-0.2036729296875,0.009140510253906251,0.915201455078125
-0.24914095703125,-0.00262382568359375,0.9395323486328125
-0.2902323828125,-0.00997653564453125,0.9120064892578125
-0.28634207031250003,0.05178622802734375,0.965337841796875
-0.27418484375,-0.0016434643554687498,1.0167030615234376
-0.2873146484375,0.04345315673828125,0.942727314453125
-0.21850474609375,0.0250713818359375,0.974185439453125
-0.28634207031250003,0.01257177490234375,0.995812900390625
-0.33181009765625,-0.07713128662109375,0.9061080908203125
-0.2834243359375,0.07139345458984375,0.9542783447265625
-0.28415376953125,-0.01683906494140625,0.916184521484375
-0.1958923046875,-0.0254172265625,0.9292101513671875
-0.30846822265625,0.0037485229492187503,0.9400238818359374
-0.23844259765625,-0.09918941650390625,1.005643564453125
-0.32111173828125,-0.01169216796875,1.0299744580078125
-0.25838044921875,0.02090484619140625,1.081339677734375
-0.31381740234375,-0.1190417333984375,0.9414984814453125
-0.31770771484375,-0.0513968017578125,0.85867513671875
-0.183735078125,-0.02762303955078125,0.853268271484375
-0.2941226953125,-0.0768861962890625,0.7945300537109374
-0.3057936328125,-0.045024453125,0.8989808593749999
-0.21218298828125,0.00399361328125,0.962388642578125
-0.31673513671875,-0.0239466845703125,0.9604225097656249
-0.1881116796875,-0.04085791748046875,0.999745166015625
-0.26907880859375,0.0976181201171875,1.038084755859375
-0.37898013671874997,-0.00311400634765625,0.9582106103515625
-0.2775888671875,0.050070595703125,0.95796484375
-0.23406599609375,0.03757098876953125,0.9390408154296875
-0.2834243359375,-0.01830960693359375,0.95698177734375
-0.1346198828125,0.0059543359375,0.9134810888671875
-0.33253953125,-0.06781785400390625,0.8579378369140624
-0.19564916015625,0.0012976196289062499,0.9026673583984375
-0.2600824609375,-0.068553125,1.00810123046875
-0.33618669921875,-0.02762303955078125,1.0402966552734374
-0.21655958984375,-0.059484782714843754,0.938303515625
-0.3072525,0.03855135009765625,0.8535140380859375
-0.16501294921875,0.01575794921875,0.902421591796875
-0.23941517578125,0.042227705078125,1.040050888671875
-0.3446967578125,0.04884514404296875,1.076424345703125
-0.2182616015625,-0.013407800292968751,1.0412797216796874
-0.27685943359375,0.0137972265625,0.9532952783203125
-0.19346085937500002,0.023845930175781252,0.931913583984375
-0.263486484375,-0.046740085449218746,0.880794130859375
-0.31624884765625,0.11379408203125,1.04742388671875
-0.17765646484375,0.036345537109375,1.0923991748046875
-0.356853984375,0.03364954345703125,1.084288876953125
-0.2347954296875,-0.061690595703125004,1.0727378466796875
-0.26056875,0.08413815185546875,1.0919076416015625
-0.18008791015625,-0.11193411376953125,1.0186691943359376
-0.2960678515625,-0.02713285888671875,0.991880634765625
-0.28123603515625,-0.0038492773437499997,0.9724650732421874
-0.3223274609375,0.01649322021484375,1.00023669921875
-0.16063634765625,-0.1151202880859375,1.02776255859375
-0.41885583984375,0.030463369140625002,1.03562708984375
-0.13340416015625,-0.06585713134765625,1.0624156494140624
-0.2931501171875,0.0142874072265625,1.0083469970703125
-0.2824517578125,-0.00777072265625,1.0314490576171875
-0.22968939453125,-0.07615092529296875,1.025304892578125
-0.40329458984375,0.0103659619140625,1.0516019189453125
-0.18835482421875,0.02433611083984375,1.028745625
-0.3111428125,-0.0004180126953125,0.8795652978515625
-0.25254498046875,0.0358553564453125,0.9179048876953125
-0.259596171875,-0.05262225341796875,0.9414984814453125
-0.31527626953125,0.0211499365234375,0.9975332666015625
-0.265431640625,-0.0621807763671875,1.00023669921875
-0.290718671875,0.0064445166015625,0.9931094677734374
-0.36876806640625,0.0010525292968750002,0.8633447021484375
-0.16015005859375,-0.0337502978515625,0.7817501904296875
-0.24281919921875,0.13903838623046874,0.8852179296875
-0.33861814453125,-0.01928996826171875,1.0346440234375
-0.25886673828125,0.01110123291015625,1.04939001953125
-0.18008791015625,0.150067451171875,1.006626630859375
-0.25983931640625,0.056933125,1.041033955078125
-0.29387955078125,-0.04575972412109375,1.0742124462890625
-0.26664736328125,0.05668803466796875,1.1661291552734374
-0.3203823046875,0.0829127001953125,1.07888201171875
-0.249870390625,0.0064445166015625,1.0014655322265624
-0.1866528125,-0.0180645166015625,0.9641090087890625
-0.2591098828125,-0.03497574951171875,1.02972869140625
-0.41058892578125,0.019679394531249998,0.9670582080078125
-0.27807515625,-0.0038492773437499997,0.9395323486328125
-0.1151683203125,-0.05262225341796875,0.9245405859375
-0.37119951171875,-0.08154291259765625,0.8549886376953125
-0.10130908203125,-0.0464949951171875,0.89996392578125
-0.30530734375,0.0436982470703125,0.97369390625
-0.32864921874999997,-0.0999246875,0.9591936767578125
-0.111764296875,-0.05115171142578125,0.9208540869140625
-0.19905318359375002,0.0015427099609375003,0.9115149560546875
-0.3330258203125,0.03953171142578125,1.046932353515625
-0.2707808203125,-0.0567887890625,1.0511103857421875
-0.356853984375,0.04247279541015625,0.9759058056640625
-0.2941226953125,-0.02321141357421875,0.9410069482421874
-0.2698082421875,0.04345315673828125,0.9680412744140625
-0.1686601171875,0.00521906494140625,0.9400238818359374
-0.21607330078125,-0.0298288525390625,0.9297016845703125
-0.26907880859375,0.04296297607421875,0.9614055761718749
-0.19419029296875,-0.0371815625,1.024813359375
-0.32013916015625,0.03855135009765625,1.074458212890625
-0.28634207031250003,0.0750698095703125,1.0936280078125
-0.3281629296875,0.01575794921875,1.0597122167968749
-0.31868029296875,-0.01487834228515625,0.9469053466796875
-0.2318776953125,0.1123235400390625,0.9567360107421875
-0.247925234375,0.0270321044921875,0.9636174755859375
-0.31965287109375,-0.0886505322265625,1.016457294921875
-0.1988100390625,0.06698182861328125,1.0633987158203124
-0.30749564453125,-0.015368522949218751,1.027271025390625
-0.20002576171875,0.05619785400390625,1.052830751953125
-0.3301080859375,0.07825598388671876,1.091170341796875
-0.417153828125,-0.0749254736328125,1.0437373876953124
-0.23844259765625,0.0740894482421875,1.080356611328125
-0.377278125,-0.0425735498046875,0.910286123046875
-0.24719580078125,-0.07713128662109375,0.7724110595703125
-0.18884111328125,0.077520712890625,0.7448852001953125
-0.27807515625,0.02972809814453125,0.86653966796875
-0.21801845703125,-0.01046671630859375,1.112797802734375
-0.380195859375,-0.0141430712890625,1.2194605078125
-0.44924890625,0.111833359375,1.2393676025390625
-0.3301080859375,-0.01046671630859375,1.02186416015625
-0.29582470703125,0.0397768017578125,0.7340714697265625
-0.037848359375,0.0015427099609375003,0.70728291015625
-0.23747001953125,-0.02125069091796875,0.9183964208984375
-0.32257060546875,-0.0710040283203125,0.9493630126953125
-0.26032560546875,0.1000690234375,0.9881941357421875
-0.3072525,0.013552136230468751,0.9660751416015625
-0.252788125,0.010856142578125,1.1002637060546876
-0.36341888671875,0.15031254150390624,1.2017653125
-0.38311359375,-0.0092412646484375,1.11034013671875
-0.27807515625,0.0133070458984375,1.023338759765625
-0.2581373046875,0.04639424072265625,0.9390408154296875
-0.181789921875,-0.0455146337890625,0.9127437890625
-0.15771861328125,-0.0670825830078125,1.0024485986328124
-0.399647421875,0.1706550390625,1.176697119140625
-0.20051205078125,0.04296297607421875,1.2005364794921876
-0.36487775390625,0.122617333984375,1.216019775390625
-0.3072525,-0.04036773681640625,1.1027213720703124
-0.2882872265625,-0.00654527099609375,0.9646005419921875
-0.11589775390625,-0.08938580322265625,0.824759345703125
-0.1083602734375,-0.0082609033203125,0.9719735400390626
-0.35028908203125,-0.011201987304687501,1.161951123046875
-0.38724705078125,-0.059729873046875,1.24207103515625
-0.28609892578125,0.09296140380859375,1.2172486083984375
-0.48693630859375,-0.06781785400390625,1.0112961962890625
-0.12610982421875,-0.06267095703125,0.917167587890625
-0.1088465625,0.022620478515625,0.87243806640625
-0.2600824609375,-0.07811164794921875,0.9857364697265625
-0.3111428125,-0.09820905517578125,0.9459222802734375
-0.18495080078125,-0.0043394580078125,0.90586232421875
-0.209022109375,-0.02664267822265625,0.903404658203125
-0.17279357421875,0.0152677685546875,0.988931435546875
-0.21996361328125,0.10202974609375,1.0850261767578124
-0.43733482421875003,0.02752228515625,1.0643817822265624
-0.29582470703125,0.040266982421875,0.7729025927734375
-0.11322316406249999,0.06673673828125,0.6898334814453125
-0.2581373046875,-0.00213364501953125,0.8441749072265625
-0.296554140625,0.10374537841796876,1.1415524951171876
-0.3135742578125,0.093206494140625,1.1523662255859375
-0.3500459375,0.07384435791015626,1.027271025390625
-0.1166271875,0.07188363525390624,0.9599309765625
-0.2124261328125,0.0417375244140625,1.0157199951171876
-0.30530734375,0.01649322021484375,1.0422627880859374
-0.17376615234375,-0.07075893798828126,0.9614055761718749
-0.30506419921875,0.0020328906249999995,0.998762099609375
-0.24719580078125,0.05570767333984375,1.121645400390625
-0.36974064453125,-0.04134809814453125,1.0545511181640626
-0.2571647265625,0.02482629150390625,1.072492080078125
-0.23357970703125,0.0848734228515625,1.0378389892578126
-0.27248283203125,-0.068553125,0.925032119140625
-0.201241484375,-0.014633251953124999,0.8301662109375
-0.28196546875,-0.015368522949218751,0.80558955078125
-0.1813036328125,-0.0055649096679687505,0.809030283203125
-0.2488978125,0.00865032958984375,0.83213234375
-0.23892888671875,0.0505607763671875,0.8933282275390625
-0.24379177734375002,0.10080429443359375,0.9759058056640625
-0.29242068359375,0.0466393310546875,1.00220283203125
-0.2561921484375,0.014777587890624999,0.9842618701171875
-0.28220861328125,0.0319339111328125,0.8397511083984375
-0.22725794921875,0.03659062744140625,0.8549886376953125
-0.29533841796875,0.0466393310546875,0.86653966796875
-0.26227076171875,0.07580508056640625,0.95501564453125
-0.2085358203125,0.055952763671875,0.9198710205078124
-0.28196546875,0.048109873046875,0.91077765625
-0.19856689453125,0.06992291259765625,0.93437125
-0.28196546875,0.010856142578125,0.9301932177734376
-0.22677166015625,0.06992291259765625,0.99237216796875
-0.247925234375,0.0633054736328125,0.946659580078125
-0.20026890625,0.08364797119140625,0.8938197607421875
-0.300444453125,0.0133070458984375,0.871455
-0.21193984375,0.08413815185546875,0.9604225097656249
-0.24865466796875,0.06109966064453125,0.8987350927734374
-0.27491427734375,0.01575794921875,0.937811982421875
-0.240144609375,-0.00262382568359375,0.843929140625
-0.2474389453125,0.06624655761718751,0.9149556884765625
-0.2221519140625,0.0162481298828125,0.912252255859375
-0.31308796875,0.02090484619140625,0.974185439453125
-0.23066197265625,0.06747200927734374,1.0643817822265624
-0.23844259765625,-0.0092412646484375,0.9960586669921875
-0.27929087890625,0.02482629150390625,0.945676513671875
-0.22190876953125,0.0486000537109375,0.9464138134765625
-0.25692158203125,0.071638544921875,0.9245405859375
-0.28464005859375,-0.0016434643554687498,0.862115869140625
-0.27199654296875,0.03413972412109375,0.911269189453125
-0.310170234375,0.049090234375,0.965337841796875
-0.2503566796875,0.079481435546875,1.00220283203125
-0.23892888671875,-0.0161037939453125,0.950591845703125
-0.26640421875,0.0515411376953125,0.9650920751953125
-0.2377131640625,0.0495804150390625,0.9186421875
-0.25862359375,0.01747358154296875,0.9559987109375
-0.25108611328125,0.02090484619140625,1.025304892578125
-0.30992708984375,0.05031568603515625,1.04349162109375
-0.2114535546875,0.03119864013671875,0.9537868115234375
-0.27418484375,0.05521749267578125,0.9105318896484375
-0.2357680078125,0.0348749951171875,0.9048792578125
-0.18349193359375,0.04712951171875,0.932896650390625
-0.30214646484375,0.0299731884765625,0.97074470703125
-0.1939471484375,0.0397768017578125,0.9567360107421875
-0.30871136718750003,0.0495804150390625,0.9572275439453125
-0.271267109375,0.04786478271484375,0.9734481396484375
-0.30700935546875,0.02923791748046875,0.9896687353515625
-0.27588685546875,-0.01095689697265625,0.9080742236328125
-0.21996361328125,0.0133070458984375,0.8859552294921875
-0.28464005859375,0.0211499365234375,0.924049052734375
-0.24573693359375,-0.010221625976562499,0.9788550048828125
-0.23066197265625,0.06109966064453125,1.042017021484375
-0.30506419921875,0.0515411376953125,1.054796884765625
-0.31138595703125,0.0765403515625,1.026287958984375
-0.28391062499999997,-0.00801581298828125,0.99237216796875
-0.20780638671875,0.026296833496093748,0.9439561474609375
-0.25740787109375,-0.0033590966796874996,0.87440419921875
-0.28707150390625,-0.00311400634765625,0.912252255859375
-0.22968939453125,-0.0523771630859375,0.8712092333984375
-0.2114535546875,-0.00507472900390625,0.9002096923828125
-0.25594900390624997,-0.013162709960937501,0.9616513427734374
-0.27807515625,-0.01561361328125,1.0452119873046875
-0.3096839453125,0.0387964404296875,1.03759322265625
-0.23455228515625,0.07874616455078125,0.98942296875
-0.23917203125,0.0603643896484375,0.871455
-0.18227621093750002,0.09810830078125,0.9115149560546875
-0.2746711328125,0.028257556152343752,1.0031858984375
-0.30555048828125,0.08511851318359374,1.0982975732421876
-0.2299325390625,0.08609887451171874,1.0216183935546874
-0.269321953125,0.055952763671875,1.053813818359375
-0.33570041015625,-0.00262382568359375,1.0162115283203126
-0.237226875,0.09737302978515625,1.001711298828125
-0.28853037109375,0.00619942626953125,0.9690243408203125
-0.23406599609375,-0.02149578125,1.0029401318359374
-0.3009307421875,0.0255615625,0.959439443359375
-0.2163164453125,0.08805959716796875,0.96681244140625
-0.24330548828125,-0.010221625976562499,0.8898874951171875
-0.3106565234375,0.017718671875,0.9636174755859375
-0.2960678515625,0.0191892138671875,0.956490244140625
-0.28366748046875,0.03217900146484375,0.99237216796875
-0.2396583203125,0.02433611083984375,0.983033037109375
-0.341292734375,0.03757098876953125,0.9955671337890625
-0.22190876953125,0.03021827880859375,1.046932353515625
-0.28366748046875,0.0525214990234375,0.9591936767578125
-0.205131796875,0.01747358154296875,0.9341254833984375
-0.244034921875,0.00472888427734375,0.965829375
-0.32889236328125,0.0348749951171875,0.9169218212890625
-0.203186640625,-0.03742665283203125,0.9301932177734376
-0.3096839453125,0.087324326171875,0.9026673583984375
-0.22190876953125,0.009140510253906251,0.8783364648437499
-0.26956509765625,0.0003172583007812497,0.908319990234375
-0.23747001953125,-0.0009081933593750001,0.9646005419921875
-0.2445212109375,0.09051050048828126,0.9665666748046875
-0.28123603515625,0.03610044677734375,0.9783634716796875
-0.29387955078125,0.04051207275390625,0.962388642578125
-0.30141703125,0.08707923583984375,0.94321884765625
-0.18640966796875,0.10521592041015625,0.92945591796875
-0.27540056640625,0.01306195556640625,0.8918536279296875
-0.29679728515625,0.10864718505859375,0.9356000830078125
-0.17619759765625,-0.03546593017578125,0.925032119140625
-0.31187224609374997,-0.0033590966796874996,0.9820499707031249
-0.26518849609375,0.04541387939453125,1.1346710302734375
-0.2814791796875,-0.03105430419921875,1.06806828125
-0.26470220703125,0.02752228515625,1.0464408203125
-0.25205869140625,-0.00948635498046875,1.0014655322265624
-0.30506419921875,0.0064445166015625,0.931913583984375
-0.2017277734375,0.07923634521484375,0.9808211376953125
-0.26227076171875,0.038306259765625,1.0545511181640626
-0.2668905078125,0.0378160791015625,1.05233921875
-0.207076953125,0.032424091796875,1.024321826171875
-0.27394169921875,0.0368357177734375,0.999745166015625
-0.28366748046875,0.028257556152343752,0.9837703369140625
-0.2347954296875,0.0211499365234375,0.946168046875
-0.33181009765625,0.0613447509765625,0.984999169921875
-0.23552486328125,0.0294830078125,1.0245675927734375
-0.29728357421875,-0.0406128271484375,0.92159138671875
-0.21461443359375,0.034384814453125,0.9203625537109374
-0.23819945312500002,0.053992041015625,0.926015185546875
-0.300444453125,-0.02615249755859375,0.9442019140625
-0.2279873828125,0.02678701416015625,0.97271083984375
-0.27880458984375,0.04124734375,0.989914501953125
-0.27491427734375,0.0005623486328125002,1.0211268603515624
-0.29971501953125,0.0270321044921875,0.93928658203125
-0.1521262890625,0.05570767333984375,0.9208540869140625
-0.30263275390625,0.048109873046875,0.9975332666015625
-0.22920310546875,0.02972809814453125,1.0174403613281249
-0.20294349609375,0.06404074462890624,1.0063808642578125
-0.2941226953125,0.05668803466796875,1.00613509765625
-0.21510072265625,-0.02027032958984375,0.983033037109375
-0.26956509765625,0.0255615625,0.9434646142578125
-0.26567478515625,0.04541387939453125,0.933879716796875
-0.2756437109375,0.05913893798828125,0.9877026025390625
-0.22871681640625,-0.01046671630859375,0.9783634716796875
-0.2250696484375,0.03266918212890625,1.0034316650390624
-0.3038484765625,-0.044534272460937496,0.965829375
-0.23917203125,0.07261890625,0.975168505859375
-0.222638203125,0.00178780029296875,0.954032578125
-0.3072525,0.0162481298828125,0.9542783447265625
-0.18932740234375,-0.0141430712890625,0.9709904736328125
-0.22968939453125,0.04394333740234375,0.9813126708984374
-0.3057936328125,-0.0038492773437499997,0.99237216796875
-0.25449013671875,0.05913893798828125,0.9916348681640625
-0.21655958984375,0.0054641552734375,1.0073639306640625
-0.23163455078125,0.06502110595703126,0.969761640625
-0.32013916015625,0.013552136230468751,0.93928658203125
-0.2450075,0.01012087158203125,0.956490244140625
-0.27005138671875,0.0809519775390625,0.977134638671875
-0.2902323828125,-0.00850599365234375,0.9469053466796875
-0.2561921484375,0.03021827880859375,0.98843990234375
-0.23503857421875,0.062080021972656246,1.028254091796875
-0.1968648828125,-0.00654527099609375,0.93535431640625
-0.23114826171875,0.00816014892578125,0.9134810888671875
-0.24865466796875,0.06698182861328125,1.0309575244140625
-0.24038775390625,-0.0072805419921875,0.9874568359375
-0.32159802734375,0.02360083984375,0.968287041015625
-0.212912421875,0.028502646484374998,1.0250591259765625
-0.3155194140625,7.216796875000007e-05,0.9665666748046875
-0.25011353515625,0.0397768017578125,0.9719735400390626
-0.20683380859375,0.05129604736328125,0.9341254833984375
-0.234309140625,0.10276501708984374,0.9370746826171875
-0.27442798828125,0.02752228515625,0.9891772021484375
-0.23455228515625,0.021640117187500002,0.9547698779296875
-0.1900568359375,-0.0018885546875000003,0.946659580078125
-0.26761994140625,-0.00213364501953125,0.938795048828125
-0.32500205078125,0.0069346972656249995,0.9601767431640625
-0.2056180859375,0.06992291259765625,0.9675497412109375
-0.33667298828125003,0.050070595703125,0.9459222802734375
-0.1881116796875,0.0191892138671875,1.0157199951171876
-0.30627992187499997,-0.012427438964843749,0.941744248046875
-0.22288134765625,0.04982550537109375,0.9945840673828125
-0.1978374609375,0.0819323388671875,0.9454307470703125
-0.29776986328125,-0.0327699365234375,0.981066904296875
-0.26713365234374997,-0.0009081933593750001,1.012525029296875
-0.26713365234374997,-0.0641414990234375,0.8638362353515625
-0.20391607421875,0.0608545703125,0.8530225048828125
-0.11443888671875,0.07580508056640625,0.863098935546875
-0.310170234375,0.01183650390625,0.9680412744140625
-0.1715778515625,0.11379408203125,1.20471451171875
-0.40329458984375,0.01575794921875,1.14179826171875
-0.27613,0.01159141357421875,1.033169423828125
-0.14021220703125,-0.01928996826171875,0.8572005371093749
-0.26154132812499997,-0.04723026611328125,0.787402822265625
-0.1521262890625,0.0093856005859375,0.8225474462890625
-0.2177753125,0.02237538818359375,1.0201437939453124
-0.3729015234375,-0.02223105224609375,1.0688055810546875
-0.11881548828124999,0.21207530517578124,1.1331964306640625
-0.3252451953125,0.06845237060546874,1.1430270947265626
-0.37946642578125,0.00227798095703125,1.1646545556640624
-0.2450075,0.171635400390625,1.115747001953125
-0.27613,-0.028113220214843748,0.9773804052734375
-0.234309140625,-0.0097314453125,0.83114927734375
-0.08283009765625,0.0486000537109375,0.7409529345703125
-0.2406308984375,-0.06242586669921875,0.751029365234375
-0.1861665234375,0.0030132519531249997,0.90389619140625
-0.29169125,-0.01389798095703125,1.0049062646484375
-0.232363984375,0.07850107421875,1.0299744580078125
-0.32889236328125,0.057668395996093746,1.1017383056640626
-0.2484115234375,-0.032279755859375,1.1587561572265626
-0.288773515625,0.19884042724609374,1.1213996337890624
-0.195406015625,0.0799716162109375,1.0348897900390626
-0.19953947265625,0.0142874072265625,1.0058893310546875
-0.34834392578125,0.09345158447265625,1.0157199951171876
-0.222638203125,0.01796376220703125,1.0555341845703126
-0.24330548828125,0.00791505859375,0.9798380712890625
-0.29922873046875,-0.08350363525390625,0.8412257080078125
-0.11589775390625,-0.01978014892578125,0.8655566015625
-0.2036729296875,0.026296833496093748,0.926015185546875
-0.30749564453125,0.05423713134765625,1.119679267578125
-0.3048210546875,0.079481435546875,1.18112091796875
-0.40378087890625003,0.1603612451171875,1.1484339599609374
-0.28585578125,0.05080586669921875,1.047915419921875
-0.22774423828125,0.00816014892578125,0.886692529296875
-0.19248828125,-0.0651218603515625,0.876861865234375
-0.26227076171875,-0.03399538818359375,0.86457353515625
-0.15917748046875,-0.0337502978515625,0.81935248046875
-0.327676640625,0.03928662109375,0.817877880859375
-0.1501811328125,-0.055073156738281254,0.966320908203125
-0.156502890625,0.06649164794921875,1.1936550146484375
-0.3787369921875,0.18021356201171876,1.2580458642578125
-0.18154677734375,-0.01634888427734375,1.122628466796875
-0.2124261328125,0.013552136230468751,1.0132623291015626
-0.18884111328125,-0.0553182470703125,0.93338818359375
-0.119544921875,-0.00752563232421875,1.0427543212890624
-0.3913805078125,0.0289928271484375,0.9985163330078125
-0.1599069140625,0.00570924560546875,0.93535431640625
-0.2255559375,0.0358553564453125,0.8154202148437499
-0.20464550781250002,-0.089140712890625,0.83213234375
-0.14312994140625,0.09590248779296875,1.036118623046875
-0.29582470703125,-0.03399538818359375,1.0594664501953126
-0.13486302734375,-0.020515419921875,1.0810939111328124
-0.2766162890625,0.0373258984375,0.9272440185546875
-0.24330548828125,-0.0259074072265625,1.00416896484375
-0.2707808203125,-0.02272123291015625,0.9749227392578125
-0.3009307421875,0.00276816162109375,0.9459222802734375
-0.20804953125,0.018699033203125,0.9375662158203125
-0.304334765625,0.0358553564453125,0.918150654296875
-0.2318776953125,-0.050661530761718754,1.00810123046875
-0.2960678515625,-0.047965537109375,1.0348897900390626
-0.26616107421875,-0.02223105224609375,1.009084296875
-0.15139685546875,0.04198261474609375,0.99237216796875
-0.26178447265625,0.03953171142578125,1.01006736328125
-0.25789416015625,0.004973974609375,1.024321826171875
-0.22044990234375,0.11845079833984375,0.94715111328125
-0.25740787109375,0.017718671875,0.9405154150390624
-0.222638203125,0.03512008544921875,1.0093300634765625
-0.22288134765625,0.0025230712890624996,0.9434646142578125
-0.26129818359375,-0.02076051025390625,0.980083837890625
-0.183735078125,0.03512008544921875,0.9965502001953125
-0.22725794921875,0.01306195556640625,0.925032119140625
-0.23139140625,0.014777587890624999,1.009575830078125
-0.20099833984375,0.07678544189453125,1.0383305224609374
-0.302389609375,0.040266982421875,1.0189149609375
-0.1676875390625,-0.00507472900390625,1.0476696533203125
-0.221665625,0.0466393310546875,0.961897109375
-0.21583015625000002,0.01747358154296875,1.0240760595703124
-0.237226875,-0.01561361328125,1.0191607275390624
-0.25449013671875,0.05668803466796875,0.993355234375
-0.24184662109375,0.02972809814453125,0.9803296044921875
-0.214857578125,-0.01487834228515625,0.9449392138671875
-0.18349193359375,0.03315936279296875,0.9105318896484375
-0.17571130859375,-0.03056412353515625,0.8574463037109374
-0.22677166015625,0.00423870361328125,0.9100403564453124
-0.24038775390625,0.0054641552734375,0.9867195361328125
-0.23892888671875,0.03928662109375,0.9837703369140625
-0.265431640625,0.06894255126953125,1.0211268603515624
-0.23503857421875,-0.02125069091796875,0.9931094677734374
-0.22725794921875,0.02727719482421875,0.987948369140625
-0.21899103515625,0.0544822216796875,0.969761640625
-0.28318119140625,-0.010711806640625,0.86064126953125
-0.18106048828125,0.03364954345703125,0.8962774267578125
-0.29047552734375,0.01575794921875,1.0083469970703125
-0.25351755859375,0.0069346972656249995,1.05233921875
-0.265431640625,-0.0180645166015625,0.9793465380859375
-0.2464663671875,0.08805959716796875,0.98450763671875
-0.2377131640625,0.08242251953125,0.86850580078125
-0.20099833984375,0.05815857666015625,0.904387724609375
-0.18008791015625,0.06453092529296875,0.9247863525390625
-0.22871681640625,0.020659755859375,0.934862783203125
-0.2357680078125,-0.0239466845703125,0.905370791015625
-0.14458880859375,0.03610044677734375,0.8746499658203125
-0.26859251953125,0.0008074389648437498,0.9424815478515625
-0.27515742187500003,0.04443351806640625,1.052830751953125
-0.232363984375,0.0515411376953125,1.0289913916015625
-0.21899103515625,0.01600303955078125,1.0184234277343749
-0.3126016796875,0.04345315673828125,0.93928658203125
-0.1307295703125,-0.046740085449218746,0.871946533203125
-0.18057419921875,0.06845237060546874,0.9169218212890625
-0.18008791015625,0.015022678222656249,0.910286123046875
-0.2377131640625,-0.0097314453125,0.9862280029296875
-0.21801845703125,0.114774443359375,0.9835245703125
-0.19346085937500002,-0.023456503906250002,0.9469053466796875
-0.2095083984375,0.0897752294921875,0.9179048876953125
-0.1803310546875,-0.0170841552734375,0.992863701171875
-0.23114826171875,0.06502110595703126,1.1179589013671876
-0.2552195703125,0.015022678222656249,1.087729609375
-0.1827625,0.13511694091796875,1.1164843017578125
-0.37022693359375003,0.0868341455078125,1.066593681640625
-0.20440236328125,-0.0327699365234375,0.8849721630859375
-0.1599069140625,0.0054641552734375,0.7947758203124999
-0.1472633984375,0.05570767333984375,0.80755568359375
-0.112736875,-0.03105430419921875,0.8874298291015625
-0.16501294921875,0.04884514404296875,1.0501273193359375
-0.2892598046875,0.09492212646484376,1.16932412109375
-0.32548833984375003,0.0809519775390625,1.214053642578125
-0.31527626953125,0.096147578125,1.15359505859375
-0.26640421875,0.06306038330078124,0.9815584374999999
-0.23892888671875,0.08119706787109375,0.8970147265625
-0.2163164453125,0.03757098876953125,0.81738634765625
-0.23503857421875,0.030708459472656248,0.7733941259765625
-0.1511537109375,-0.01487834228515625,0.790352021484375
-0.255705859375,-0.02076051025390625,0.93732044921875
-0.1657423828125,-0.00409436767578125,1.0167030615234376
-0.19224513671875,0.030463369140625002,1.0117877294921875
-0.18786853515625002,0.091245771484375,0.9680412744140625
-0.12270580078125,0.010856142578125,0.862115869140625
-0.152612578125,0.05668803466796875,0.9009469921875
-0.2172890234375,0.09051050048828126,1.042017021484375
-0.30141703125,0.0191892138671875,1.1720275537109375
-0.31430369140625003,0.11967625,1.16244265625
-0.24938410156250002,0.07482471923828125,0.96681244140625
-0.22142248046875002,0.05472731201171875,0.850319072265625
-0.16258150390625,0.10276501708984374,0.9508376123046876
-0.23528171875,0.07041309326171875,1.0668394482421875
-0.2260422265625,0.034384814453125,1.11230626953125
-0.13875333984375,0.0446786083984375,1.04939001953125
-0.1725504296875,0.0211499365234375,0.983033037109375
-0.19808060546875,-0.00507472900390625,0.974185439453125
-0.1424005078125,0.03364954345703125,0.97860923828125
-0.1988100390625,0.120656611328125,1.08871267578125
-0.32257060546875,0.08903995849609375,1.12213693359375
-0.28901666015625,-0.022476142578125,1.0385762890625
-0.32597462890625,0.12825441162109374,0.9174133544921875
-0.2347954296875,0.11771552734375,0.7928096875
-0.1813036328125,0.05178622802734375,0.718096640625
-0.2056180859375,0.11060790771484375,0.7684787939453125
-0.2022140625,0.05913893798828125,0.905370791015625
-0.2007551953125,0.04247279541015625,1.026287958984375
-0.2056180859375,0.0682072802734375,1.024813359375
-0.09741876953125,-0.0009081933593750001,0.9599309765625
-0.16209521484375,0.02923791748046875,0.993846767578125
-0.22677166015625,0.06011929931640625,0.9756600390625
-0.15528716796875,0.05521749267578125,0.9913891015625
-0.27734572265625,0.10374537841796876,1.0501273193359375
-0.29825615234375,0.06281529296875,1.064627548828125
-0.1530988671875,0.08266760986328126,1.068559814453125
-0.2688356640625,0.13315621826171875,1.0543053515625
-0.18738224609375,0.04247279541015625,1.04349162109375
-0.19662173828125,0.07139345458984375,1.0307117578125
-0.2445212109375,0.07629526123046874,1.040542421875
-0.20342978515625,0.02433611083984375,0.9606682763671874
-0.244034921875,0.0878145068359375,0.9567360107421875
-0.146777109375,0.0535018603515625,0.936828916015625
-0.185680234375,0.0829127001953125,0.8613785693359375
-0.19248828125,0.09026541015625,0.92159138671875
-0.21510072265625,0.0819323388671875,0.9498545458984375
-0.2386857421875,0.1084020947265625,0.9704989404296875
-0.19856689453125,0.06673673828125,0.9931094677734374
-0.2902323828125,0.1221271533203125,0.9886856689453125
-0.14945169921875,0.07727562255859374,0.9881941357421875
-0.27929087890625,0.06281529296875,0.9596852099609375
-0.2338228515625,0.0829127001953125,0.987948369140625
-0.20975154296875,0.08854977783203125,0.96877857421875
-0.19467658203125,0.0417375244140625,0.9191337207031249
-0.213885,0.07874616455078125,0.9717277734375
-0.17279357421875,0.03536517578125,0.9341254833984375
-0.20051205078125,0.00963069091796875,0.9218371533203125
-0.22361078125,0.0451687890625,0.892590927734375
-0.21193984375,0.07139345458984375,0.9262609521484375
-0.2644590625,0.06011929931640625,0.9621428759765625
-0.27345541015625,0.0574233056640625,1.0275167919921875
-0.18106048828125,0.05521749267578125,1.028254091796875
-0.22044990234375,0.069677822265625,0.950591845703125
-0.1988100390625,0.057668395996093746,0.97860923828125
-0.1871391015625,0.0358553564453125,0.9970417333984375
-0.17182099609375,0.08242251953125,1.01203349609375
-0.26154132812499997,0.08560869384765625,0.965829375
-0.18495080078125,0.10815700439453126,0.9685328076171875
-0.197351171875,0.0809519775390625,0.9665666748046875
-0.22142248046875002,0.06109966064453125,0.95108337890625
-0.26640421875,0.134381669921875,0.9832788037109375
-0.13510617187500001,0.04002189208984375,0.9614055761718749
-0.3033621875,0.0927163134765625,0.913235322265625
-0.22093619140625,0.0765403515625,0.9360916162109375
-0.20099833984375,0.04247279541015625,0.9166760546875
-0.2172890234375,0.0829127001953125,0.957473310546875
-0.25935302734375,0.0544822216796875,1.024813359375
-0.18081734375,0.103010107421875,1.0189149609375
-0.19346085937500002,0.09002031982421875,0.9768888720703125
-0.15091056640625,0.0765403515625,0.9881941357421875
-0.2484115234375,0.06992291259765625,1.0149826953125
-0.18884111328125,0.0686974609375,1.0206353271484374
-0.20537494140625,0.06796218994140625,0.98647376953125
-0.2873146484375,0.0799716162109375,1.056763017578125
-0.2309051171875,0.0446786083984375,1.0471781201171875
-0.2133987109375,0.033404453125,0.9992536328125
-0.21972046875,0.030708459472656248,1.0181776611328126
-0.205131796875,0.028502646484374998,0.9410069482421874
-0.1385101953125,0.062080021972656246,0.8977520263671875
-0.19467658203125,0.01257177490234375,0.8923451611328125
-0.17960162109375,0.12678386962890625,1.0031858984375
-0.20488865234375,0.024581201171875,0.9862280029296875
-0.21461443359375,0.1035002880859375,1.060695283203125
-0.18446451171875,0.14050892822265626,1.0329236572265625
-0.26859251953125,0.085363603515625,1.007609697265625
-0.1910294140625,0.1074217333984375,1.0147369287109376
-0.1944334375,0.0765403515625,0.980083837890625
-0.1686601171875,0.10178465576171875,0.9970417333984375
-0.24962724609375,0.079481435546875,0.9247863525390625
-0.18300564453125,0.085363603515625,0.907336923828125
-0.20391607421875,0.1142842626953125,0.95108337890625
-0.17814275390625,0.12972495361328126,1.0132623291015626
-0.19248828125,0.12188206298828125,1.0661021484375
-0.214857578125,0.01183650390625,1.045949287109375
-0.22968939453125,0.10178465576171875,1.0427543212890624
-0.2099946875,0.087324326171875,1.0444746875
-0.19905318359375002,0.05497240234375,0.9867195361328125
-0.25789416015625,0.08511851318359374,0.9945840673828125
-0.189570546875,0.03659062744140625,0.9272440185546875
-0.199296328125,0.0682072802734375,0.8812856640625
-0.2182616015625,0.07065818359375,0.950591845703125
-0.13145900390625,0.0985984814453125,1.0049062646484375
-0.232363984375,0.0451687890625,0.973202373046875
-0.251815546875,0.06109966064453125,1.006626630859375
-0.12416466796875,0.10374537841796876,0.9820499707031249
-0.22677166015625,0.10619628173828125,1.0162115283203126
-0.19710802734375,0.0495804150390625,1.042017021484375
-0.18592337890625,0.0809519775390625,1.050864619140625
-0.2124261328125,0.11845079833984375,1.0071181640625
-0.195406015625,0.0770305322265625,0.9601767431640625
-0.1832487890625,0.0780108935546875,0.91372685546875
-0.1968648828125,0.02874773681640625,0.907336923828125
-0.22385392578125,0.1162449853515625,0.9272440185546875
-0.203186640625,0.0486000537109375,0.905370791015625
-0.1900568359375,0.0740894482421875,0.946168046875
-0.17668388671875,0.1510478125,0.9675497412109375
-0.15771861328125,0.0270321044921875,0.94125271484375
-0.25935302734375,0.07972652587890625,0.9601767431640625
-0.13145900390625,0.14516564453125,0.9936010009765625
-0.26421591796875,0.019434304199218752,0.930930517578125
-0.21364185546875,0.08707923583984375,0.9557529443359375
-0.2318776953125,0.06845237060546874,0.9090572900390625
-0.1647698046875,0.06747200927734374,0.946168046875
-0.234309140625,0.06796218994140625,0.929947451171875
-0.17084841796875,0.096147578125,0.9641090087890625
-0.109819140625,0.09394176513671874,0.9537868115234375
-0.25205869140625,0.07433453857421875,0.985982236328125
-0.2279873828125,0.03462990478515625,1.0230929931640624
-0.19759431640625,0.0740894482421875,0.98843990234375
-0.21364185546875,0.1123235400390625,0.96681244140625
-0.1589343359375,0.055952763671875,0.8852179296875
-0.205131796875,0.1309504052734375,0.9402696484374999
-0.113709453125,0.077520712890625,1.044966220703125
-0.2566784375,0.1378129345703125,1.04152548828125
-0.13778076171875,0.07874616455078125,1.0582376171875
-0.22677166015625,0.08634396484375,1.0014655322265624
-0.1633109375,0.09786321044921875,0.970253173828125
-0.19759431640625,0.07850107421875,0.9606682763671874
-0.1530988671875,0.1182057080078125,0.988931435546875
-0.179844765625,0.06109966064453125,0.977626171875
-0.253760703125,0.0603643896484375,1.0112961962890625
-0.1088465625,0.1191860693359375,0.9660751416015625
-0.21583015625000002,0.008895419921875,0.8559717041015625
-0.1569891796875,0.10619628173828125,0.9601767431640625
-0.19564916015625,0.0843832421875,0.9075826904296875
-0.245980078125,0.081442158203125,0.9638632421875
-0.15139685546875,0.1338914892578125,1.0267794921875
-0.205131796875,0.0642858349609375,0.980083837890625
-0.23795630859375,0.10423555908203125,0.98647376953125
-0.12246265625,0.14246965087890626,1.02972869140625
-0.1944334375,0.1289896826171875,1.0289913916015625
-0.199296328125,-0.0063001806640625,0.979100771484375
-0.1589343359375,0.19001717529296874,0.995812900390625
-0.23601115234375,0.042227705078125,0.9336339501953125
-0.1161408984375,0.09786321044921875,0.94518498046875
-0.26518849609375,0.11796061767578125,0.9065996240234375
-0.17960162109375,0.0878145068359375,0.9950756005859375
-0.11541146484375,0.1525183544921875,1.006626630859375
-0.2824517578125,0.10717664306640624,1.0304659912109375
-0.07966921874999999,0.12531332763671876,1.050864619140625
-0.24233291015625,0.09002031982421875,0.97369390625
-0.13729447265625,0.13658748291015624,0.989914501953125
-0.144831953125,0.13315621826171875,0.9321593505859375
-0.23795630859375,0.07678544189453125,0.891607861328125
-0.20877896484375,0.1000690234375,0.976151572265625
-0.1210037890625,0.13119549560546875,0.949608779296875
-0.2177753125,0.06011929931640625,0.9336339501953125
-0.23917203125,0.118695888671875,1.064136015625
-0.1404553515625,0.179478291015625,1.0919076416015625
-0.201241484375,0.06109966064453125,1.0103131298828125
-0.252788125,0.1314405859375,1.0597122167968749
-0.14993798828125,0.0878145068359375,0.9795923046875
-0.230418828125,0.07261890625,0.977134638671875
-0.1229489453125,0.171635400390625,0.9936010009765625
-0.236254296875,0.09026541015625,0.976151572265625
-0.12635296875,0.14737145751953126,0.977626171875
-0.18592337890625,0.1044806494140625,0.9009469921875
-0.1599069140625,0.1084020947265625,0.946168046875
-0.148722265625,0.136342392578125,0.954032578125
-0.21801845703125,0.126538779296875,1.0894499755859375
-0.17619759765625,0.21256548583984375,1.0756870458984376
-0.2488978125,0.1191860693359375,0.9950756005859375
-0.1530988671875,0.20276187255859374,1.020389560546875
-0.2250696484375,0.10080429443359375,0.955507177734375
-0.2027003515625,0.130460224609375,0.961897109375
-0.06751199218750001,0.120656611328125,0.97467697265625
-0.27005138671875,0.11109808837890625,0.9803296044921875
-0.1881116796875,0.0907555908203125,0.965337841796875
-0.20245720703125,0.1319307666015625,0.953541044921875
-0.09595990234375,0.1966346142578125,1.0444746875
-0.23503857421875,0.1471263671875,1.034152490234375
-0.22190876953125,0.12629368896484375,1.0668394482421875
-0.14896541015625,0.14884199951171875,1.024321826171875
-0.277102578125,0.17825283935546876,0.97664310546875
-0.11395259765625,0.05889384765625,0.963371708984375
-0.18397822265625,0.11354899169921875,0.9198710205078124
-0.1375376171875,0.09982393310546875,0.9002096923828125
-0.2289599609375,0.11992134033203125,0.991880634765625
-0.21899103515625,0.14516564453125,1.062661416015625
-0.2221519140625,0.07850107421875,1.009084296875
-0.16258150390625,0.1191860693359375,0.9641090087890625
-0.21412814453125,0.11943115966796874,0.9252778857421875
-0.14847912109375,0.09639266845703125,0.946659580078125
-0.19662173828125,0.175556845703125,0.9537868115234375
-0.2396583203125,0.04590406005859375,0.9626344091796875
-0.13607875,0.21011458251953125,1.0597122167968749
-0.16136578125,0.15717507080078125,1.0520934521484375
-0.228473671875,0.07580508056640625,0.9709904736328125
-0.14069849609375001,0.19638952392578124,0.9501003125
-0.2007551953125,0.09982393310546875,0.954524111328125
-0.16209521484375,0.159871064453125,1.0211268603515624
-0.23017568359375,0.08658905517578125,1.01596576171875
-0.2143712890625,0.15227326416015624,1.043983154296875
-0.18738224609375,0.12335260498046875,0.979100771484375
-0.1317021484375,0.216732021484375,0.9815584374999999
-0.2707808203125,0.10766682373046875,1.0029401318359374
-0.17036212890625,0.10913736572265625,1.016457294921875
-0.18640966796875,0.16599832275390625,0.9953213671875
-0.21364185546875,0.07531489990234375,0.956490244140625
-0.1336473046875,0.09639266845703125,0.94125271484375
-0.18932740234375,0.09590248779296875,0.9336339501953125
-0.20537494140625,0.10864718505859375,1.0339067236328126
-0.2367405859375,0.1770273876953125,1.0661021484375
-0.2279873828125,0.09492212646484376,1.015474228515625
-0.17814275390625,0.1319307666015625,0.9857364697265625
-0.23455228515625,0.13315621826171875,0.91176072265625
-0.22434021484375,0.1270289599609375,0.9363373828125
-0.119544921875,0.1525183544921875,0.9324051171875
-0.2902323828125,0.10031411376953125,0.866048134765625
-0.19856689453125,0.07286399658203124,0.98450763671875
-0.13145900390625,0.1613416064453125,0.99433830078125
-0.24525064453125,0.09002031982421875,0.9191337207031249
-0.18203306640625,0.1289896826171875,0.966320908203125
-0.16938955078125,0.16060633544921876,0.965829375
-0.20099833984375,0.11943115966796874,1.0078554638671875
-0.17133470703125,0.14786163818359374,0.9874568359375
-0.2561921484375,0.07384435791015626,0.9582106103515625
-0.1803310546875,0.14099910888671874,0.9913891015625
-0.16404037109375,0.12947986328125,0.932896650390625
-0.2289599609375,0.12482314697265626,0.9115149560546875
-0.14896541015625,0.14516564453125,0.9773804052734375
-0.2630001953125,0.1201664306640625,0.9965502001953125
-0.11200744140625,0.12825441162109374,1.002694365234375
-0.189570546875,0.06011929931640625,0.9051250244140625
-0.2338228515625,0.15080272216796875,0.99433830078125
-0.17084841796875,0.13707766357421874,0.9975332666015625
-0.2153438671875,0.1427147412109375,1.0425085546875
-0.16987583984375,0.14124419921875,1.030220224609375
-0.2177753125,0.1079119140625,1.026287958984375
-0.19564916015625,0.14516564453125,1.0162115283203126
-0.1803310546875,0.081442158203125,0.9646005419921875
-0.2260422265625,0.09443194580078125,0.9567360107421875
-0.2231244921875,0.12139188232421876,1.0196522607421874
-0.15674603515625,0.096147578125,1.0373474560546876
-0.18227621093750002,0.11060790771484375,1.0228472265625
-0.2800203125,0.11354899169921875,0.98254150390625
-0.12440781249999999,0.16648850341796875,0.97467697265625
-0.1210037890625,0.06502110595703126,0.9166760546875
-0.25157240234375,0.09345158447265625,0.98450763671875
-0.144831953125,0.14908708984375,1.0009739990234374
-0.236254296875,0.0280124658203125,0.961897109375
-0.24038775390625,0.14639109619140625,1.009084296875
-0.15236943359375,0.13364639892578126,0.980083837890625
-0.21558701171875,0.1309504052734375,1.0014655322265624
-0.21947732421875,0.18168410400390625,1.0889584423828125
-0.18884111328125,0.1574201611328125,1.0481611865234375
-0.18689595703125,0.1172253466796875,0.9670582080078125
-0.15066742187499998,0.13707766357421874,0.9638632421875
-0.22288134765625,0.165753232421875,0.941744248046875
-0.20148462890625,0.0407571630859375,0.918150654296875
-0.1813036328125,0.15227326416015624,1.0157199951171876
-0.21169669921875,0.1250682373046875,1.0014655322265624
-0.16501294921875,0.10570610107421875,1.002694365234375
-0.210967265625,0.19295825927734375,1.028254091796875
-0.20804953125,0.16869431640625,0.9759058056640625
-0.19273142578125,0.13609730224609376,0.9292101513671875
