ax,ay,az
-0.30895451171875,0.05815857666015625,1.11230626953125
-0.32086859375,0.03536517578125,1.11427240234375
-0.24281919921875,-0.03252484619140625,1.1209081005859376
-0.18154677734375,-0.023456503906250002,1.1012467724609376
-0.14993798828125,-0.16487362548828124,1.1454847607421874
-0.222638203125,-0.1749223291015625,1.199307646484375
-0.2707808203125,-0.19134338134765624,1.1504000927734375
-0.34834392578125,-0.159726728515625,1.1155012353515625
-0.284883203125,-0.15654055419921875,1.058729150390625
-0.3301080859375,-0.1082577587890625,1.137374462890625
-0.27515742187500003,-0.1278649853515625,1.0909245751953125
-0.2736985546875,-0.13203152099609375,1.093136474609375
-0.26664736328125,-0.15261910888671876,1.07691587890625
-0.267376796875,-0.15457983154296875,0.9847534033203125
-0.2600824609375,-0.09967959716796874,0.930438984375
-0.331566953125,-0.154824921875,0.8215643798828125
-0.31430369140625003,-0.15408965087890625,0.7414444677734375
-0.29169125,-0.13448242431640625,0.664519521484375
-0.268349375,-0.16242272216796874,0.616349267578125
-0.13340416015625,-0.15359947021484374,0.5785012109375
-0.10544253906250001,-0.1494329345703125,0.71907970703125
-0.23649744140625,-0.089140712890625,0.8589209033203125
-0.23309341796875,-0.07443529296875,1.03366095703125
-0.20732009765625,-0.07370002197265625,1.1607222900390626
-0.23066197265625,-0.0347306591796875,1.2383845361328125
-0.22434021484375,0.00791505859375,1.2998261865234375
-0.26032560546875,0.0123266845703125,1.3089195507812499
-0.230418828125,0.053992041015625,1.328089345703125
-0.2377131640625,0.0123266845703125,1.2875378564453124
-0.2367405859375,0.0740894482421875,1.185544716796875
-0.16549923828125,0.1157548046875,1.101984072265625
-0.1920019921875,0.12433296630859375,1.1125520361328125
-0.14458880859375,0.12090170166015625,1.191443115234375
-0.13948277343749999,0.03512008544921875,1.257308564453125
-0.19613544921875,-0.0053198193359375,1.2737749267578125
-0.18981369140625,-0.0915916162109375,1.1091113037109375
-0.16063634765625,-0.010221625976562499,0.9980247998046875
-0.1560166015625,-0.0455146337890625,0.9134810888671875
-0.2211793359375,-0.10556176513671875,0.9262609521484375
-0.2620276171875,-0.0474753564453125,0.9749227392578125
-0.22239505859375,-0.0063001806640625,0.9282270849609375
-0.18786853515625002,0.0003172583007812497,0.8603955029296875
-0.13534931640625,0.0069346972656249995,0.8360646093749999
-0.1774133203125,-0.01389798095703125,0.8407341748046875
-0.074806328125,-0.08448399658203125,0.8608870361328125
-0.09012443359375,-0.08154291259765625,0.8849721630859375
-0.09985021484375001,-0.1317864306640625,0.84884447265625
-0.11249373046875,-0.1195319140625,0.85474287109375
-0.13437673828125,-0.060710234375,0.930930517578125
-0.12367837890625,-0.11242429443359375,1.013508095703125
-0.22044990234375,-0.05262225341796875,1.1813666845703126
-0.2347954296875,-0.04821062744140625,1.2378930029296875
-0.2386857421875,-0.06291604736328126,1.15162892578125
-0.21558701171875,-0.0033590966796874996,1.0589749169921876
-0.23357970703125,-0.0006631030273437505,1.01006736328125
-0.24136033203125,-0.07173929931640625,0.9913891015625
-0.1920019921875,0.024581201171875,0.973202373046875
-0.1492085546875,-0.034240478515625,0.833606943359375
-0.0801555078125,-0.03399538818359375,0.7542243310546874
-0.0334717578125,-0.06830803466796875,0.7419360009765625
-0.05024873046875,-0.04968116943359375,0.76823302734375
-0.1375376171875,-0.027868129882812502,0.8756330322265625
-0.20051205078125,0.020659755859375,0.8989808593749999
-0.27685943359375,-0.00703545166015625,0.86260740234375
-0.1871391015625,-0.00213364501953125,0.846386806640625
-0.138996484375,-0.00262382568359375,0.87637033203125
-0.17960162109375,0.0495804150390625,0.981066904296875
-0.22677166015625,0.0387964404296875,1.0260421923828125
-0.21121041015625,0.0025230712890624996,1.0235845263671874
-0.12221951171875,0.114774443359375,1.0324321240234375
-0.17911533203125,0.05178622802734375,0.98647376953125
-0.11103486328125,0.1211467919921875,1.02383029296875
-0.18932740234375,0.04884514404296875,0.97664310546875
-0.131215859375,-0.0121823486328125,1.0088385302734375
-0.1803310546875,0.05717821533203125,1.0031858984375
-0.23503857421875,-0.0033590966796874996,1.0078554638671875
-0.183735078125,0.0133070458984375,0.9626344091796875
-0.22385392578125,-0.02223105224609375,0.8844806298828125
-0.15747546875,0.00227798095703125,0.8667854345703125
-0.2056180859375,-0.09869923583984375,0.83213234375
-0.1813036328125,-0.07222947998046875,0.8294289111328125
-0.2688356640625,-0.13252170166015625,0.7812586572265625
-0.14215736328125,-0.1352176953125,0.761843095703125
-0.121490078125,-0.0925719775390625,0.7778179248046875
-0.06191966796875,-0.11242429443359375,0.7940385205078125
-0.143859375,-0.120512275390625,0.8397511083984375
-0.07869664062500001,-0.10065995849609374,0.8105048828125
-0.1088465625,-0.128355166015625,0.768724560546875
-0.09085386718749999,-0.10507158447265624,0.8431918408203125
-0.1968648828125,-0.144040947265625,0.888658662109375
-0.25692158203125,-0.0651218603515625,0.9434646142578125
-0.3048210546875,-0.046004814453125,0.930438984375
-0.19637859375,-0.048945898437499996,0.9048792578125
-0.175954453125,-0.011201987304687501,1.0152284619140626
-0.14799283203125,-0.04085791748046875,1.0874838427734375
-0.063135390625,-0.09404251953125001,1.1921804150390625
-0.20634751953125,-0.1082577587890625,1.2993346533203125
-0.25157240234375,-0.059484782714843754,1.246494833984375
-0.22677166015625,0.038306259765625,1.101984072265625
-0.27345541015625,-0.02713285888671875,1.0240760595703124
-0.24038775390625,0.00399361328125,1.0063808642578125
-0.27442798828125,0.069677822265625,1.0697886474609375
-0.2484115234375,0.02580665283203125,1.0766701123046876
-0.20294349609375,0.0701680029296875,1.0570087841796876
-0.174009296875,0.1221271533203125,1.0073639306640625
-0.1511537109375,0.1495772705078125,1.091170341796875
-0.174981875,0.0686974609375,1.1794005517578126
-0.17036212890625,0.09443194580078125,1.18603625
-0.28512634765625,-0.013162709960937501,1.148188193359375
-0.24525064453125,-0.0180645166015625,1.1248403662109374
-0.19127255859375,-0.0857094482421875,1.0825685107421874
-0.1890842578125,-0.08154291259765625,1.079865078125
-0.1890842578125,-0.079337099609375,1.0778989453125
-0.1949197265625,-0.0254172265625,1.1351625634765625
-0.08988128906250001,0.02972809814453125,1.16145958984375
-0.1813036328125,-0.00997653564453125,1.230765771484375
-0.17279357421875,0.0015427099609375003,1.322190947265625
-0.2766162890625,-0.0494360791015625,1.294665087890625
-0.27029453125,-0.08154291259765625,1.1290183984375
-0.24816837890625,-0.1273748046875,0.966320908203125
-0.1958923046875,-0.1700205224609375,0.8476156396484374
-0.10544253906250001,-0.196980458984375,0.820827080078125
-0.1025248046875,-0.23521455078125,0.8938197607421875
-0.113709453125,-0.2278618408203125,0.991880634765625
-0.158448046875,-0.23349891845703125,1.0560257177734376
-0.1997826171875,-0.198941181640625,1.0437373876953124
-0.2172890234375,-0.1435507666015625,0.8928366943359375
-0.252788125,-0.1141399267578125,0.8525309716796875
-0.17571130859375,-0.122472998046875,0.8417172412109375
-0.1725504296875,-0.144040947265625,0.9331424169921875
-0.199296328125,-0.0425735498046875,1.0053977978515625
-0.2065906640625,-0.05654369873046875,0.93338818359375
-0.18081734375,-0.11046357177734376,0.885709462890625
-0.17303671874999998,-0.0827683642578125,0.869980400390625
-0.18008791015625,-0.09796396484375,0.855234404296875
-0.20342978515625,-0.0474753564453125,0.8908705615234375
-0.20877896484375,-0.10703230712890625,0.896523193359375
-0.2347954296875,-0.04330882080078125,0.9301932177734376
-0.17230728515625,-0.0254172265625,1.041033955078125
-0.247925234375,-0.025662316894531252,1.086255009765625
-0.214857578125,0.0003172583007812497,1.0442289208984374
-0.31624884765625,-0.01389798095703125,0.970253173828125
-0.2600824609375,-0.01438816162109375,0.89996392578125
-0.1696326953125,-0.00777072265625,0.858183603515625
-0.19905318359375002,-0.02909358154296875,0.906353857421875
-0.1521262890625,-0.0268877685546875,0.981066904296875
-0.1910294140625,0.0012976196289062499,1.0520934521484375
-0.20537494140625,0.01698340087890625,1.0936280078125
-0.24476435546875,0.0012976196289062499,1.01006736328125
-0.2338228515625,0.010856142578125,0.967303974609375
-0.26251390625,0.0338946337890625,0.9488714794921875
-0.2309051171875,-0.01781942626953125,0.9950756005859375
-0.2902323828125,-0.0582593310546875,1.0044147314453125
-0.24476435546875,-0.00654527099609375,1.044966220703125
-0.2955815625,0.0289928271484375,1.0191607275390624
-0.26372962890625,-0.02517213623046875,0.9724650732421874
-0.2036729296875,0.011346323242187501,0.9641090087890625
-0.25303126953125,-0.04698517578125,0.954524111328125
-0.1958923046875,-0.03448556884765625,0.8697346337890625
-0.24573693359375,-0.0710040283203125,0.766758427734375
-0.13923962890625,-0.03742665283203125,0.7237492724609375
-0.12270580078125,0.01575794921875,0.72891037109375
-0.18786853515625002,0.021885207519531248,0.854251337890625
-0.2411171875,-0.00654527099609375,0.949608779296875
-0.31381740234375,0.010611052246093749,0.9778719384765625
-0.30263275390625,-0.0013983740234375002,0.9046334912109375
-0.25886673828125,0.0191892138671875,0.8800568310546875
-0.26154132812499997,-0.02125069091796875,0.8672769677734375
-0.2484115234375,-0.06977857666015624,0.889641728515625
-0.2999581640625,-0.0710040283203125,0.9046334912109375
-0.23309341796875,-0.07468038330078125,0.8775991650390624
-0.19078626953125,-0.045024453125,0.9129895556640625
-0.206104375,-0.0332601171875,0.891116328125
-0.14604767578125,-0.05115171142578125,0.8717007666015625
-0.15334201171875,-0.048945898437499996,0.866048134765625
-0.1628246484375,-0.023456503906250002,0.91176072265625
-0.23941517578125,-0.0837487255859375,0.9778719384765625
-0.1628246484375,-0.038161923828125,1.041033955078125
-0.13632189453125,-0.03105430419921875,1.0407881884765624
-0.11687033203125,0.0172284912109375,1.1189419677734376
-0.273212265625,-0.0004180126953125,1.1430270947265626
-0.27272597656249997,0.010611052246093749,1.1980788134765625
-0.29290697265625,0.06649164794921875,1.181612451171875
-0.32354318359375,0.05668803466796875,1.121645400390625
-0.27345541015625,0.0466393310546875,1.1071451708984374
-0.224583359375,0.05521749267578125,1.099034873046875
-0.21583015625000002,0.07041309326171875,1.1041959716796874
-0.201241484375,-0.0219859619140625,1.0975602734375
-0.19953947265625,0.0231106591796875,1.0457035205078125
-0.1871391015625,0.03119864013671875,0.95108337890625
-0.11249373046875,-0.029338671875,0.9351085498046875
-0.292663828125,-0.0749254736328125,0.9985163330078125
-0.37071322265625,-0.07860182861328124,0.9528037451171875
-0.3349709765625,-0.106787216796875,0.863098935546875
-0.24622322265625,-0.0562986083984375,0.73087650390625
-0.16841697265625,-0.02321141357421875,0.7611057958984375
-0.07577890625,-0.05874951171875,0.9105318896484375
-0.22944625,-0.0013983740234375002,1.1066536376953124
-0.34883021484375,0.02752228515625,1.1958669140625
-0.30117388671875,0.06453092529296875,1.12606919921875
-0.2931501171875,0.0564429443359375,0.976151572265625
-0.1696326953125,0.01600303955078125,0.9247863525390625
-0.15066742187499998,-0.06291604736328126,0.9206083203125
-0.14969484375,-0.060710234375,0.94321884765625
-0.224583359375,-0.03546593017578125,0.9442019140625
-0.2338228515625,-0.0798272802734375,0.86064126953125
-0.1555303125,-0.0455146337890625,0.8775991650390624
-0.19953947265625,-0.02909358154296875,0.96484630859375
-0.18227621093750002,-0.00262382568359375,1.0555341845703126
-0.25983931640625,0.012816865234374999,1.1621968896484376
-0.32281375,-0.014633251953124999,1.1661291552734374
-0.18470765625,0.0417375244140625,1.07888201171875
-0.24330548828125,0.07261890625,0.9547698779296875
-0.27442798828125,0.0064445166015625,0.823776279296875
-0.226528515625,-0.02958376220703125,0.7650380615234375
-0.18859796875,0.0074248779296875,0.7306307373046875
-0.1637972265625,-0.0332601171875,0.7099863427734375
-0.10690140625,-0.10409122314453124,0.742181767578125
-0.14215736328125,-0.03693647216796875,0.8584293701171875
-0.22190876953125,-0.02468195556640625,0.950591845703125
-0.28391062499999997,-0.012427438964843749,0.9857364697265625
-0.26640421875,0.03659062744140625,0.9994993994140625
-0.27783201171875,0.06109966064453125,0.990897568359375
-0.2255559375,0.05374695068359375,1.0235845263671874
-0.2805066015625,-0.0190448779296875,1.076424345703125
-0.2591098828125,0.03413972412109375,1.0982975732421876
-0.28707150390625,-0.010221625976562499,1.0579918505859376
-0.32986494140625,0.016738310546875,0.9646005419921875
-0.29047552734375,0.00227798095703125,0.8613785693359375
-0.28998923828125,-0.013407800292968751,0.782487490234375
-0.25789416015625,-0.018554697265625,0.7453767333984375
-0.24136033203125,0.015022678222656249,0.72891037109375
-0.142886796875,-0.00262382568359375,0.778555224609375
-0.24962724609375,0.034384814453125,0.9638632421875
-0.2299325390625,0.0378160791015625,1.0953483740234375
-0.27345541015625,0.0348749951171875,1.227816572265625
-0.273212265625,0.0211499365234375,1.2580458642578125
-0.24038775390625,0.02482629150390625,1.2491982666015624
-0.2566784375,-0.0082609033203125,1.2678765283203126
-0.2367405859375,-0.05360261474609375,1.2034856787109376
-0.28561263671875,-0.026397587890625,1.1769428857421875
-0.31673513671875,-0.05090662109375,1.135408330078125
-0.33472783203125,-0.1102184814453125,1.075441279296875
-0.30166017578125,-0.0661022216796875,1.047915419921875
-0.3106565234375,-0.0602200537109375,0.974185439453125
-0.23139140625,-0.0866898095703125,0.885709462890625
-0.1783858984375,-0.151883837890625,0.829674677734375
-0.1560166015625,-0.17810850341796874,0.8584293701171875
-0.17425244140625,-0.198941181640625,0.9759058056640625
-0.1910294140625,-0.19134338134765624,1.0584833837890626
-0.2561921484375,-0.18595139404296876,1.121645400390625
-0.30919765625,-0.21046042724609376,1.1671122216796874
-0.38627447265625,-0.106787216796875,1.1735021533203125
-0.33424154296874997,-0.13595296630859374,1.1135351025390625
-0.298499296875,-0.1626678125,1.0594664501953126
-0.22385392578125,-0.112669384765625,0.9186421875
-0.13875333984375,-0.08987598388671875,0.9159387548828125
-0.1667149609375,-0.08840544189453126,1.0201437939453124
-0.29971501953125,-0.07909200927734375,1.115747001953125
-0.34396732421875,0.0074248779296875,1.104933271484375
-0.36244630859375,0.0010525292968750002,0.973202373046875
-0.42031470703125,0.0255615625,0.890624794921875
-0.43101306640625,0.02090484619140625,0.838522275390625
-0.384086171875,-0.03546593017578125,0.7360376025390625
-0.327676640625,-0.008751083984375,0.702859111328125
-0.34226531250000003,-0.01978014892578125,0.6849181494140625
-0.29144810546875,-0.05360261474609375,0.755944697265625
-0.3033621875,-0.0729647509765625,0.8549886376953125
-0.29922873046875,-0.00850599365234375,0.974185439453125
-0.38773333984375,0.03928662109375,1.1164843017578125
-0.436605390625,0.0740894482421875,1.189968515625
-0.42809533203125,0.07065818359375,1.139340595703125
-0.374360390625,0.0427178857421875,0.9768888720703125
-0.33813185546875,0.08364797119140625,0.83704767578125
-0.33667298828125003,0.077520712890625,0.788877421875
-0.36828177734375,-0.01291761962890625,0.80755568359375
-0.36925435546875,0.02433611083984375,0.8943112939453125
-0.39891798828125,0.030708459472656248,0.8623616357421875
-0.36876806640625,-0.022476142578125,0.83114927734375
-0.384086171875,0.00178780029296875,0.7945300537109374
-0.3135742578125,0.03413972412109375,0.7625803955078125
-0.3048210546875,0.00227798095703125,0.7807671240234375
-0.38700390625000003,0.06796218994140625,0.7940385205078125
-0.34299474609375,0.0686974609375,0.8028861181640625
-0.26081189453125,0.05668803466796875,0.8930824609375
-0.333512109375,-0.0072805419921875,0.999745166015625
-0.28366748046875,0.0809519775390625,0.997779033203125
-0.28634207031250003,0.07629526123046874,0.9390408154296875
-0.380195859375,0.03413972412109375,0.845403740234375
-0.428824765625,-0.0371815625,0.7478343994140625
-0.3826273046875,0.012816865234374999,0.7537327978515624
-0.34591248046875,0.10178465576171875,0.8360646093749999
-0.376305546875,0.1113431787109375,0.9036504248046875
-0.39259623046875003,0.10570610107421875,0.9301932177734376
-0.407428046875,0.01747358154296875,0.8864467626953125
-0.28998923828125,0.057668395996093746,0.8771076318359375
-0.300444453125,0.06158984130859375,0.9238032861328125
-0.2824517578125,0.16109651611328124,1.0132623291015626
-0.37314466796875,0.1848702783203125,1.051847685546875
-0.43927998046875,0.13168567626953126,1.0103131298828125
-0.424934453125,0.128499501953125,0.9149556884765625
-0.3096839453125,-0.18595139404296876,0.8830060302734375
-0.269321953125,-0.17565760009765624,1.0388220556640624
-0.3417790234375,-0.07615092529296875,1.1872650830078124
-0.3437241796875,-0.1229631787109375,1.294665087890625
-0.3291355078125,-0.19526482666015624,1.2536220654296875
-0.417153828125,-0.13889405029296875,1.0329236572265625
-0.43052677734375,-0.04281864013671875,0.8773533984374999
-0.30749564453125,-0.12761989501953125,0.8068183837890625
-0.30530734375,-0.07615092529296875,0.8500733056640625
-0.279047734375,0.01404231689453125,0.9798380712890625
-0.27345541015625,0.00178780029296875,1.0761785791015626
-0.3690112109375,0.0407571630859375,1.1567900244140625
-0.33521412109375,0.0059543359375,1.1046875048828124
-0.33642984375,0.104970830078125,1.1646545556640624
-0.36390517578125,0.0008074389648437498,1.16735798828125
-0.36925435546875,0.04835496337890625,1.093136474609375
-0.30798193359375,0.03266918212890625,1.0255506591796875
-0.29728357421875,-0.05556333740234375,0.97271083984375
-0.3009307421875,-0.03154448486328125,1.0299744580078125
-0.3865176171875,-0.09036616455078125,1.1145181689453125
-0.34688505859375,-0.05654369873046875,1.0486527197265625
-0.37922328125,-0.15507001220703126,0.856217470703125
-0.2581373046875,-0.1004148681640625,0.7807671240234375
-0.2707808203125,-0.14330567626953125,0.6736128857421875
-0.32281375,-0.07811164794921875,0.64043439453125
-0.31527626953125,-0.07909200927734375,0.5863657421875
-0.2921775390625,-0.0513968017578125,0.6102051025390625
-0.3942982421875,-0.0298288525390625,0.628146064453125
-0.28853037109375,0.04639424072265625,0.6613245556640625
-0.1788721875,-0.0082609033203125,0.7797840576171875
-0.34785763671875003,0.04737460205078125,0.952557978515625
-0.4798851171875,0.124578056640625,1.0189149609375
-0.487179453125,0.05889384765625,0.9744312060546875
-0.374360390625,0.11379408203125,0.8682600341796876
-0.26421591796875,0.1162449853515625,0.7827332568359375
-0.2873146484375,0.17090012939453125,0.804606484375
-0.296554140625,0.21403602783203124,0.8451579736328125
-0.29631099609375,0.19222298828125,0.9021758251953125
-0.28512634765625,0.12825441162109374,0.9611598095703124
-0.325731484375,0.11747043701171875,1.0314490576171875
-0.3344846875,0.02752228515625,1.032186357421875
-0.28658521484375,-0.0190448779296875,1.0130165625
-0.2941226953125,-0.004829638671875,0.9041419580078125
-0.32500205078125,-0.034240478515625,0.812471015625
-0.25205869140625,-0.0009081933593750001,0.799199619140625
-0.29582470703125,-0.0406128271484375,0.876861865234375
-0.28269490234375,0.04124734375,1.0171945947265626
-0.20586123046875,0.00865032958984375,1.095594140625
-0.28269490234375,-0.035711020507812496,1.14573052734375
-0.26251390625,0.020659755859375,1.023338759765625
-0.35320681640625,-0.0249270458984375,0.814928681640625
-0.28804408203125,0.0191892138671875,0.7453767333984375
-0.23941517578125,0.0064445166015625,0.7330884033203124
-0.18057419921875,0.06355056396484375,0.8864467626953125
-0.2163164453125,0.091245771484375,0.9493630126953125
-0.298499296875,-0.02370159423828125,0.96288017578125
-0.31041337890625,0.019679394531249998,1.058729150390625
-0.327676640625,-0.068553125,0.956490244140625
-0.37022693359375003,-0.09967959716796874,0.80165728515625
-0.1944334375,-0.067572763671875,0.747097099609375
-0.1744955859375,-0.1273748046875,0.7699533935546875
-0.17619759765625,-0.10115013916015625,0.8368019091796874
-0.26178447265625,-0.11389483642578124,0.89996392578125
-0.31041337890625,-0.10972830078125,0.966320908203125
-0.290718671875,-0.08252327392578125,0.9149556884765625
-0.28998923828125,0.07531489990234375,0.9650920751953125
-0.3456693359375,0.124578056640625,0.899472392578125
-0.25789416015625,0.11599989501953126,0.8490902392578125
-0.12221951171875,0.0917359521484375,0.8544971044921875
-0.18592337890625,0.1211467919921875,1.042017021484375
-0.34299474609375,-0.0006631030273437505,1.0953483740234375
-0.2800203125,-0.10605194580078126,1.1604765234375
-0.224583359375,-0.1249239013671875,1.0975602734375
-0.31989601562500003,-0.1592365478515625,0.9754142724609375
-0.251815546875,-0.07860182861328124,0.975168505859375
-0.20780638671875,-0.1278649853515625,0.9464138134765625
-0.27613,-0.10580685546875,1.0673309814453125
-0.24281919921875,0.0137972265625,1.1145181689453125
-0.335457265625,0.00816014892578125,1.1263149658203124
-0.37363095703125,0.122617333984375,1.0346440234375
-0.28123603515625,0.053992041015625,0.9061080908203125
-0.146777109375,0.0137972265625,0.84491220703125
-0.207076953125,0.07065818359375,0.977134638671875
-0.242089765625,-0.02737794921875,1.014491162109375
-0.32791978515625,0.06894255126953125,1.0825685107421874
-0.48158712890625,-0.02860340087890625,0.8702261669921875
-0.27102396484375,-0.06536695068359374,0.752012431640625
-0.1560166015625,-0.055808427734375,0.7488174658203125
-0.27783201171875,-0.057769150390625,0.908319990234375
-0.401592578125,0.04737460205078125,1.0137538623046876
-0.426879609375,-0.008751083984375,0.912252255859375
-0.315033125,0.10619628173828125,0.8205813134765625
-0.24816837890625,0.0368357177734375,0.7502920654296875
-0.18446451171875,-0.0759058349609375,0.8417172412109375
-0.25740787109375,-0.05556333740234375,0.916184521484375
-0.21899103515625,-0.09796396484375,0.8977520263671875
-0.230418828125,-0.12663953369140624,0.9242948193359375
-0.2153438671875,-0.0425735498046875,1.089204208984375
-0.2542469921875,-0.05703387939453125,1.1641630224609374
-0.2722396875,0.05227640869140625,1.281885224609375
-0.372415234375,0.00717978759765625,1.216019775390625
-0.39794541015625,-0.059484782714843754,1.0442289208984374
-0.3641483203125,0.016738310546875,0.8849721630859375
-0.25254498046875,-0.05703387939453125,0.868014267578125
-0.2411171875,0.0037485229492187503,0.95698177734375
-0.25789416015625,0.0064445166015625,0.928964384765625
-0.189570546875,0.06306038330078124,0.91077765625
-0.158448046875,-0.034240478515625,0.8707177001953125
-0.22750109375,-0.057278969726562504,0.923065986328125
-0.32305689453124997,-0.0396324658203125,0.8989808593749999
-0.269321953125,0.026541923828125,0.905370791015625
-0.24816837890625,0.0427178857421875,0.930438984375
-0.26664736328125,0.09149086181640625,1.0329236572265625
-0.19808060546875,0.15227326416015624,1.0791277783203126
-0.24281919921875,0.12580350830078124,1.2115959765625
-0.35223423828125,0.06796218994140625,1.2408422021484375
-0.2970404296875,0.073599267578125,1.21847744140625
-0.333512109375,0.04345315673828125,1.1007552392578126
-0.232363984375,7.216796875000007e-05,1.03366095703125
-0.144831953125,-0.10458140380859375,1.073475146484375
-0.23114826171875,0.0329142724609375,1.0810939111328124
-0.22920310546875,0.03119864013671875,0.93437125
-0.2027003515625,-0.01561361328125,0.844420673828125
-0.330594375,-0.0092412646484375,0.8026403515625
-0.29144810546875,-0.06585713134765625,0.804606484375
-0.2435486328125,0.04884514404296875,0.847369873046875
-0.22750109375,0.0069346972656249995,0.87047193359375
-0.25838044921875,-0.0288484912109375,0.921099853515625
-0.16549923828125,-0.02713285888671875,0.9913891015625
-0.2454937890625,0.00816014892578125,1.0112961962890625
-0.32743349609375,0.0037485229492187503,1.0629071826171874
-0.2766162890625,-0.11144393310546875,1.10247560546875
-0.3135742578125,-0.112669384765625,1.0294829248046875
-0.25059982421875,-0.02370159423828125,0.915201455078125
-0.1774133203125,-0.09845414550781251,0.82721701171875
-0.1555303125,-0.0808076416015625,0.7483259326171875
-0.13802390625,-0.1229631787109375,0.75250396484375
-0.17279357421875,-0.046004814453125,0.8844806298828125
-0.269321953125,-0.14232531494140624,0.9532952783203125
-0.28901666015625,-0.0016434643554687498,0.9282270849609375
-0.26810623046875,0.108892275390625,0.8572005371093749
-0.27977716796875,0.1427147412109375,0.8913620947265625
-0.18543708984375,0.1471263671875,0.94911724609375
-0.23698373046875,0.1946738916015625,1.065610615234375
-0.2333365625,0.1044806494140625,1.0771616455078126
-0.2756437109375,-0.0562986083984375,1.0039231982421875
-0.197351171875,-0.03252484619140625,0.8458952734375
-0.191515703125,-0.0945327001953125,0.706791376953125
-0.059245078125,-0.108747939453125,0.7571735302734375
-0.070916015625,-0.027868129882812502,1.009084296875
-0.20440236328125,-0.0749254736328125,1.2020110791015626
-0.354908828125,-0.05164189208984375,1.246494833984375
-0.2989855859375,0.04688442138671875,1.0825685107421874
-0.12610982421875,0.08805959716796875,0.9100403564453124
-0.17668388671875,0.053992041015625,0.8972604931640625
-0.1696326953125,0.04786478271484375,1.0083469970703125
-0.3262177734375,-0.02762303955078125,1.076424345703125
-0.224583359375,-0.0425735498046875,1.02776255859375
-0.2095083984375,-0.08252327392578125,0.88816712890625
-0.0490330078125,-0.1131595654296875,0.8353273095703125
-0.10495625,-0.1337471533203125,0.8893959619140624
-0.29728357421875,-0.20310771728515625,0.980083837890625
-0.29290697265625,-0.17810850341796874,0.931913583984375
-0.2488978125,-0.0268877685546875,0.921099853515625
-0.2328502734375,0.01208159423828125,0.867031201171875
-0.13510617187500001,-0.01928996826171875,0.874895732421875
-0.19127255859375,-0.14502130859375,0.8952943603515625
-0.27588685546875,-0.0935523388671875,0.8736668994140625
-0.22093619140625,-0.232273466796875,0.7950215869140624
-0.08963814453125,-0.16634416748046876,0.754961630859375
-0.067025703125,-0.17271651611328126,0.725469638671875
-0.15358515625,-0.2023724462890625,0.7822417236328125
-0.13340416015625,-0.20384298828125,0.9483799462890625
-0.26713365234374997,-0.15556019287109374,0.9992536328125
-0.251815546875,0.11649007568359375,1.1002637060546876
-0.29144810546875,0.0201695751953125,1.11230626953125
-0.2338228515625,0.0760501708984375,1.201273779296875
-0.2182616015625,0.07580508056640625,1.1666206884765624
-0.2902323828125,0.0564429443359375,1.14966279296875
-0.31333111328125,-0.0092412646484375,1.0034316650390624
-0.31965287109375,-0.05605351806640625,0.9739396728515625
-0.237226875,-0.0837487255859375,0.946168046875
-0.302389609375,-0.07320984130859375,1.0579918505859376
-0.22190876953125,-0.038161923828125,1.042017021484375
-0.230418828125,-0.13938423095703126,1.02972869140625
-0.2795340234375,-0.12418863037109375,0.91077765625
-0.18592337890625,-0.12958061767578125,0.8520394384765625
-0.22336763671875,-0.14722712158203125,0.84097994140625
-0.23844259765625,-0.14698203125,0.9820499707031249
-0.1715778515625,-0.083258544921875,1.189968515625
-0.3437241796875,-0.11291447509765624,1.24796943359375
-0.33424154296874997,-0.08399381591796876,1.1209081005859376
-0.28415376953125,-0.15507001220703126,0.931913583984375
-0.2824517578125,-0.11389483642578124,0.9444476806640625
-0.23357970703125,-0.06438658935546875,0.8653108349609375
-0.23309341796875,-0.06267095703125,0.814928681640625
-0.12902755859375,-0.21585241455078125,0.757419296875
-0.14847912109375,-0.23913599609375,0.706791376953125
-0.22434021484375,-0.11977700439453125,0.7099863427734375
-0.14312994140625,-0.15286419921875,0.683197783203125
-0.21315556640625,-0.218548408203125,0.7050710107421875
-0.1633109375,0.0059543359375,0.9493630126953125
-0.36244630859375,-0.03595611083984375,1.1130435693359375
-0.38335673828125,-0.03301502685546875,1.156052724609375
-0.24719580078125,0.10031411376953125,1.154578125
-0.29971501953125,0.14099910888671874,1.034152490234375
-0.27540056640625,0.09296140380859375,0.9262609521484375
-0.32694720703125,-0.01095689697265625,0.908319990234375
-0.23844259765625,-0.0175743359375,0.852285205078125
-0.206104375,-0.01953505859375,0.8466325732421875
-0.164283515625,-0.0513968017578125,0.9675497412109375
-0.3344846875,0.07923634521484375,0.9891772021484375
-0.3111428125,0.06306038330078124,0.84687833984375
-0.18592337890625,-0.020515419921875,0.7414444677734375
-0.197351171875,0.04541387939453125,0.810996416015625
-0.3072525,0.0427178857421875,1.0034316650390624
-0.36755234375,0.12433296630859375,1.1371286962890625
-0.37703498046875,0.10815700439453126,1.0594664501953126
-0.33326896484375,0.1613416064453125,1.0319405908203125
-0.09693248046875,-0.01978014892578125,0.9282270849609375
-0.0733474609375,-0.048455717773437504,1.04545775390625
-0.103983671875,0.019434304199218752,1.1184504345703126
-0.21655958984375,-0.02027032958984375,1.1430270947265626
-0.27977716796875,-0.0533575244140625,1.077407412109375
-0.3145468359375,-0.035711020507812496,1.010558896484375
-0.3320532421875,-0.04919098876953125,0.978117705078125
-0.3033621875,0.10619628173828125,1.0181776611328126
-0.28074974609375003,0.08266760986328126,0.9847534033203125
-0.206104375,-0.00360418701171875,1.0717547802734375
-0.1686601171875,-0.13129625,1.1093570703125
-0.251815546875,0.00472888427734375,1.261240830078125
-0.2445212109375,-0.09232688720703125,1.322190947265625
-0.39478453125,-0.21193096923828125,1.21061291015625
-0.3194097265625,-0.27246828125,1.1073909375
-0.333512109375,-0.195019736328125,0.9385492822265625
-0.1555303125,-0.07860182861328124,0.7247323388671875
-0.12173322265625,-0.155805283203125,0.68565544921875
-0.26081189453125,-0.236194912109375,0.694503046875
-0.35199109375,-0.22271494384765625,0.6220018994140625
-0.23455228515625,-0.149923115234375,0.6138916015625
-0.13680818359375,-0.07517056396484376,0.7340714697265625
-0.113709453125,-0.10016977783203125,0.8242678125
-0.20197091796875,-0.028113220214843748,0.9638632421875
-0.35393625,-0.044044091796875,1.00416896484375
-0.4837754296875,-0.02174087158203125,0.8564632373046875
-0.3670660546875,0.01894412353515625,0.7271900048828125
-0.2800203125,0.011346323242187501,0.666485654296875
-0.04441326171875,-0.03693647216796875,0.664519521484375
-0.15382830078125,-0.1778634130859375,0.7984623193359375
-0.185680234375,-0.14232531494140624,0.8220559130859375
-0.19953947265625,-0.22173458251953124,0.9326508837890625
-0.158448046875,-0.208744794921875,1.0820769775390624
-0.27005138671875,-0.14575657958984375,1.2981058203125
-0.33983386718749997,-0.04330882080078125,1.370361201171875
-0.32646091796875,0.06011929931640625,1.1415524951171876
-0.33229638671875,0.10472573974609375,0.872929599609375
-0.14215736328125,-0.0543378857421875,0.6888504150390625
-0.01961251953125,-0.16462853515625,0.588823408203125
-0.02909515625,-0.16046199951171874,0.7488174658203125
-0.00842787109375,-0.11487519775390626,0.82918314453125
-0.1501811328125,0.03168882080078125,0.9115149560546875
-0.14118478515625,0.0250713818359375,0.9390408154296875
-0.03298546875,-0.04870080810546875,1.0948568408203125
-0.24184662109375,-0.1013952294921875,1.39542939453125
-0.28220861328125,0.021640117187500002,0.9749227392578125
-0.22044990234375,-0.18815720703125,0.6554261572265625
-0.23455228515625,-0.23521455078125,0.44406687988281246
-0.13583560546875,-0.22320512451171876,0.27669982421875
-0.02885201171875,-0.1415900439453125,0.3049629833984375
0.012239414062499999,-0.068553125,0.4998558984375
0.05649171875,-0.01683906494140625,0.75840236328125
0.13259595703125,0.03266918212890625,1.2059433447265624
0.051385683593749995,-0.00262382568359375,1.77882529296875
-0.408400625,0.02752228515625,2.103728740234375
-0.561095390625,0.16403760009765625,1.6834678515625
-0.40086314453125,0.0319339111328125,1.0457035205078125
-0.244034921875,-0.17565760009765624,0.7704449267578125
-0.1560166015625,-0.18497103271484375,0.5581025830078125
-0.13194529296875,-0.1347275146484375,0.519025693359375
-0.005753281249999999,-0.12418863037109375,0.5116526953125
-0.08307324218750001,-0.09771887451171875,0.6352732958984375
-0.23212083984375,-0.10409122314453124,0.76233462890625
-0.3991611328125,-0.0876701708984375,0.9134810888671875
-0.36244630859375,0.049090234375,0.907336923828125
-0.18835482421875,0.1064413720703125,0.931913583984375
-0.08283009765625,0.10472573974609375,0.9095488232421876
-0.25400384765625,0.1397736572265625,0.895540126953125
-0.14580453125,0.1633023291015625,0.8854636962890625
-0.16185207031249998,0.10864718505859375,1.005643564453125
-0.32013916015625,0.03757098876953125,1.1422897949218749
-0.3719289453125,0.01183650390625,1.23617263671875
-0.50444271484375,-0.0141430712890625,1.195375380859375
-0.362689453125,-0.2092349755859375,0.86260740234375
-0.1205175,-0.20163717529296876,0.64829892578125
0.021965195312499998,-0.13350206298828124,0.5824334765625
0.04263248046875,-0.18399067138671876,0.6190527001953126
0.036067578125,-0.25482177734375,0.8176321142578125
-0.10203851562499999,-0.36927896240234376,1.1572815576171875
-0.43174250000000003,-0.31241800537109377,1.351682939453125
-0.2960678515625,-0.18031431640625,1.23224037109375
-0.10908970703125,0.0250713818359375,1.154086591796875
0.104148046875,0.04394333740234375,1.065610615234375
-0.030067734375000002,-0.010221625976562499,1.1553154248046875
-0.09425789062500001,-0.14820748291015626,1.222901240234375
-0.28196546875,0.028257556152343752,1.246494833984375
-0.19370400390625,-0.079337099609375,0.96288017578125
-0.279047734375,0.00570924560546875,0.969270107421875
-0.30652306640625,0.06551128662109375,0.989914501953125
-0.255705859375,-0.01291761962890625,0.9970417333984375
-0.24695265625,0.1152646240234375,0.8667854345703125
-0.259596171875,0.11011772705078125,0.729401904296875
-0.06337853515625,0.05472731201171875,0.6922911474609375
-0.09912078125,-0.00948635498046875,0.7989538525390625
-0.03322861328125,0.075559990234375,0.9783634716796875
0.01369828125,0.1201664306640625,1.2374014697265625
-0.23017568359375,0.19393862060546874,1.3932174951171874
-0.24427806640625,0.1309504052734375,1.442125048828125
-0.3592854296875,-0.0038492773437499997,1.3701154345703126
-0.39405509765625,-0.08227818359375,1.218968974609375
-0.28634207031250003,-0.0175743359375,1.0973145068359376
-0.27880458984375,-0.098944326171875,1.055779951171875
-0.1205175,-0.19207865234375,0.9528037451171875
-0.09109701171875,-0.28349734619140626,1.08871267578125
-0.1633109375,-0.29183041748046873,1.20274837890625
-0.26761994140625,-0.30408493408203124,1.2084010107421874
-0.17692703125,-0.327368515625,1.047915419921875
-0.1307295703125,-0.21168587890625,0.9872110693359375
-0.1774133203125,-0.21952876953125,0.8997181591796874
-0.2211793359375,-0.30947692138671873,0.8431918408203125
-0.19419029296875,-0.26585084228515626,0.7561904638671875
-0.18251935546875,-0.08938580322265625,0.6303579638671875
0.02220833984375,-0.048945898437499996,0.6519854248046875
0.12262703125,-0.06928839599609375,0.8839890966796875
-0.0067258593750000005,-0.14575657958984375,1.2442829345703126
-0.43247193359375,-0.04330882080078125,1.534533291015625
-0.20829267578125,-0.16193254150390626,1.3728188671875
-0.14167107421875,-0.06732767333984375,1.12410306640625
-0.0957167578125,0.153988896484375,1.170798720703125
-0.2435486328125,-0.03914228515625,1.3312843115234374
-0.29363640625,-0.053847705078125,1.339886142578125
-0.37022693359375003,-0.012672529296875,1.07298361328125
-0.2649453515625,-0.13056097900390626,0.8082929833984375
-0.076751484375,-0.11095375244140625,0.700892978515625
0.0025136328124999996,-0.16462853515625,0.64240052734375
-0.002106113281250002,-0.136198056640625,0.588331875
-0.08331638671875,-0.0778665576171875,0.619298466796875
-0.037848359375,-0.0386521044921875,0.75250396484375
-0.13024328125,-0.02149578125,1.001219765625
-0.2814791796875,0.00178780029296875,1.3086737841796876
-0.30141703125,0.10178465576171875,1.425412919921875
-0.08283009765625,0.10595119140625,1.4089465576171876
-0.0607039453125,0.062080021972656246,1.44261658203125
-0.2347954296875,-0.10311086181640625,1.292207421875
-0.1832487890625,-0.1847259423828125,1.1764513525390625
-0.148722265625,-0.19992154296875,0.926998251953125
-0.053409609375,-0.13644314697265625,0.9088115234375
0.037526445312500004,-0.06144550537109375,1.04939001953125
-0.0986344921875,-0.18104958740234375,1.175714052734375
-0.2649453515625,-0.17369687744140624,1.1258234326171874
-0.226528515625,-0.10360104248046875,1.0570087841796876
-0.2357680078125,-0.15752091552734376,0.7832247900390625
-0.12562353515625,-0.079337099609375,0.663536455078125
-0.06921400390625,-0.008996174316406251,0.5905437744140625
-0.008184726562500001,-0.0376717431640625,0.61192546875
-0.0072121484375,0.0535018603515625,0.8436833740234375
-0.06970029296875,0.0809519775390625,1.0707717138671875
-0.27734572265625,0.1152646240234375,1.2826225244140625
-0.4356328125,0.152028173828125,1.224867373046875
-0.30798193359375,-0.0259074072265625,1.0597122167968749
-0.3339983984375,-0.12271808837890624,0.9056165576171875
-0.16987583984375,0.11354899169921875,0.810996416015625
-0.1744955859375,0.158890703125,0.8697346337890625
-0.07602205078125,0.0829127001953125,0.922574453125
0.0010547656249999988,0.10521592041015625,1.145238994140625
-0.12756869140625,0.17335103271484376,1.48193923828125
-0.16015005859375,0.087324326171875,1.4959479345703124
-0.159420625,-0.10458140380859375,1.2251131396484376
-0.1813036328125,-0.16585398681640626,0.9041419580078125
-0.18592337890625,-0.2347243701171875,0.7242408056640625
-0.11103486328125,-0.2611941259765625,0.5816961767578125
0.011753125,-0.2200189501953125,0.53229708984375
0.09806943359375,-0.157766005859375,0.544585419921875
0.07594328125,-0.14575657958984375,0.7674957275390625
-0.18640966796875,-0.16070708984375,0.9803296044921875
-0.19224513671875,-0.11340465576171875,1.1602307568359376
-0.15917748046875,-0.05409279541015625,1.36200513671875
-0.156502890625,-0.08693489990234375,1.2885209228515624
-0.17303671874999998,-0.03987755615234375,0.9626344091796875
-0.011345605468749999,-0.0621807763671875,0.77216529296875
-0.1239215234375,-0.08105273193359375,0.6200357666015625
-0.12610982421875,-0.14526639892578125,0.5045254638671874
0.05722115234375,-0.1641383544921875,0.51853416015625
0.1085246484375,-0.04428918212890625,0.5930014404296875
-0.1569891796875,0.10472573974609375,0.6372394287109375
-0.3009307421875,0.09982393310546875,0.6952403466796875
-0.29193439453125003,0.14492055419921876,0.7748687255859374
-0.08185751953125,0.1858506396484375,0.9945840673828125
-0.0354169140625,0.187321181640625,1.2981058203125
-0.28998923828125,-0.018554697265625,1.0884669091796875
-0.12173322265625,-0.06977857666015624,0.9208540869140625
-0.19346085937500002,0.0064445166015625,0.8584293701171875
-0.11930177734375,-0.1509034765625,0.7891231884765625
-0.1025248046875,-0.05164189208984375,0.93437125
0.0010547656249999988,0.0255615625,0.920116787109375
-0.18495080078125,0.00717978759765625,0.799199619140625
-0.17862904296875,0.06060947998046875,0.8638362353515625
-0.170118984375,0.0883046875,0.95698177734375
-0.1433730859375,0.1505576318359375,1.1263149658203124
-0.1710915625,0.044188427734375,1.0525849853515625
-0.16063634765625,0.1250682373046875,0.8584293701171875
0.03387927734375,0.0162481298828125,0.7684787939453125
-0.0006472460937500014,-0.0646316796875,0.7709364599609375
-0.209022109375,-0.055808427734375,0.9351085498046875
-0.263486484375,-0.10727739746093751,1.09461107421875
-0.02982458984375,-0.14771730224609375,1.0786362451171876
0.1143601171875,-0.05997496337890625,1.219952041015625
-0.02107138671875,-0.01487834228515625,1.3710985009765624
-0.17668388671875,-0.069533486328125,1.2659103955078126
-0.1200312109375,-0.0523771630859375,1.33546234375
-0.34348103515625,-0.0011532836914062497,1.4123872900390624
-0.31673513671875,0.146146005859375,1.4475319140625
-0.26372962890625,0.22825126708984375,1.375276533203125
-0.107873984375,0.1093824560546875,1.3691323681640626
-0.06483740234375,0.2476134033203125,1.3440641748046875
-0.2133987109375,0.12874459228515625,1.15556119140625
-0.20877896484375,0.00521906494140625,0.97369390625
-0.37022693359375003,-0.02370159423828125,0.9528037451171875
-0.26178447265625,-0.18546121337890625,0.763809228515625
-0.12465095703125,-0.03938737548828125,0.86850580078125
-0.21972046875,0.021885207519531248,1.10247560546875
-0.26081189453125,-0.20114699462890626,1.1445016943359374
-0.159420625,-0.12026718505859375,1.1132893359375
-0.06629626953125001,0.06257020263671875,1.192426181640625
-0.12562353515625,-0.018554697265625,1.4148449560546874
-0.304334765625,-0.18252012939453124,1.4349978173828124
-0.32111173828125,-0.09134652587890625,1.395920927734375
-0.3709563671875,-0.1474722119140625,1.159984990234375
-0.3038484765625,-0.10972830078125,0.922574453125
-0.11298001953125,-0.10360104248046875,0.9498545458984375
-0.16720125,-0.193059013671875,1.0260421923828125
-0.14410251953125,-0.05899460205078125,1.0678225146484375
-0.14458880859375,-0.175412509765625,1.15162892578125
-0.096203046875,-0.20898988525390624,1.1459762939453124
-0.12246265625,-0.069533486328125,1.2270792724609374
-0.3252451953125,-0.071494208984375,1.189968515625
-0.31138595703125,0.010611052246093749,1.0098215966796875
-0.16720125,-0.098944326171875,0.849336005859375
0.02853009765625,-0.2357047314453125,0.9341254833984375
-0.21169669921875,-0.15065838623046876,1.071509013671875
-0.16404037109375,-0.05703387939453125,1.0235845263671874
-0.16185207031249998,-0.13301188232421876,1.15162892578125
-0.3369161328125,-0.1259042626953125,1.0363643896484376
-0.24525064453125,0.04835496337890625,0.80853875
-0.0879361328125,-0.09820905517578125,0.6770536181640625
0.071080390625,0.01208159423828125,0.68172318359375
-0.04052294921875,-0.07026875732421875,0.7751144921875
-0.221665625,-0.10580685546875,0.8731753662109375
-0.16841697265625,-0.065612041015625,0.7896147216796875
-0.08769298828125,-0.0006631030273437505,0.68368931640625
-0.1355924609375,0.03512008544921875,0.6421547607421875
-0.17084841796875,-0.0680629443359375,0.621264599609375
0.02658494140625,-0.0690433056640625,0.6414174609375
-0.0276362890625,-0.030319033203124998,0.739232568359375
-0.12416466796875,0.06600146728515625,0.7729025927734375
-0.13729447265625,-0.1626678125,0.663536455078125
-0.1103054296875,-0.01879978759765625,0.9149556884765625
-0.16185207031249998,0.09296140380859375,0.979100771484375
-0.17327986328125,-0.0161037939453125,1.0673309814453125
-0.081614375,0.03462990478515625,1.117713134765625
-0.12756869140625,0.09590248779296875,0.974185439453125
-0.1015522265625,0.10987263671875,0.7704449267578125
-0.0772377734375,-0.0259074072265625,0.589806474609375
0.06743322265625,-0.046004814453125,0.4880591015625
0.052115117187500004,-0.0268877685546875,0.4828980029296875
0.07910416015624999,0.0012976196289062499,0.576043544921875
0.027557519531249998,0.1182057080078125,0.741690234375
-0.09401474609375,0.14394019287109375,0.9704989404296875
-0.20488865234375,0.12041152099609376,1.1961126806640625
-0.31308796875,0.1603612451171875,1.333987744140625
-0.21461443359375,0.08119706787109375,1.2069264111328124
0.016616015625,0.07923634521484375,1.06118681640625
-0.020828242187500002,0.2142811181640625,1.014491162109375
-0.13389044921874999,0.013552136230468751,0.993355234375
-0.234309140625,-0.08423890625,1.1425355615234376
-0.22628537109375,-0.1759026904296875,1.1317218310546875
-0.1307295703125,7.216796875000007e-05,0.9454307470703125
-0.23892888671875,0.0544822216796875,0.7790467578125
-0.0879361328125,0.07825598388671876,0.7266984716796875
0.0803198828125,0.00766996826171875,0.65616345703125
0.1415923046875,-0.0004180126953125,0.6657483544921875
0.12578791015625,-0.07860182861328124,0.8242678125
0.02172205078125,-0.048945898437499996,1.186527783203125
-0.5100350390625,0.030463369140625002,1.4271332861328125
-0.4604335546875,-0.02860340087890625,1.2619781298828125
-0.26664736328125,0.02727719482421875,1.095594140625
-0.1287844140625,0.06649164794921875,1.0299744580078125
-0.3408064453125,0.12384278564453124,1.173747919921875
-0.41156150390625,-0.1513936572265625,1.1907058154296875
-0.28950294921874997,-0.010711806640625,1.097068740234375
-0.10519939453125,-0.1396293212890625,0.8785822314453124
0.08931623046875001,-0.1190417333984375,0.68565544921875
0.09734,-0.023456503906250002,0.6996641455078125
-0.0006472460937500014,-0.13252170166015625,0.7665126611328125
-0.08720669921875,-0.17418705810546875,0.8948028271484375
0.06159775390625,-0.048945898437499996,1.2194605078125
-0.2347954296875,0.05105095703125,1.6407044628906249
-0.4419545703125,0.05472731201171875,1.6945273486328125
-0.40694175781249997,0.07457962890625,1.48193923828125
-0.10276794921875,-0.106787216796875,1.2536220654296875
-0.21558701171875,-0.19526482666015624,1.0112961962890625
-0.2581373046875,-0.216587685546875,0.9717277734375
-0.11589775390625,-0.23202837646484376,1.0149826953125
-0.20877896484375,-0.27246828125,1.14179826171875
-0.2318776953125,-0.29967330810546877,0.98254150390625
-0.081614375,-0.16830489013671876,0.8825144970703125
0.07861787109375,0.10619628173828125,0.8864467626953125
-0.054868476562500004,0.1623219677734375,0.9547698779296875
-0.0295814453125,-0.05752406005859375,0.8254966455078125
-0.11322316406249999,-0.091101435546875,0.83311541015625
-0.1375376171875,-0.046249904785156254,0.804606484375
-0.08088494140625,0.02678701416015625,0.8989808593749999
-0.21218298828125,-0.10286577148437501,0.92945591796875
-0.19953947265625,-0.20359789794921876,1.148188193359375
-0.408400625,-0.081297822265625,1.46031177734375
-0.4614061328125,-0.0190448779296875,1.42098912109375
-0.39210994140625,-0.02321141357421875,1.2344522705078125
-0.23844259765625,0.17384121337890626,1.2737749267578125
-0.26859251953125,0.2485937646484375,1.1445016943359374
-0.10519939453125,0.018699033203125,0.9439561474609375
0.10147345703124999,-0.10727739746093751,0.7318595703125
0.1094972265625,-0.11585555908203125,0.5037881640624999
0.09077509765625,-0.1013952294921875,0.49297443359375
0.04482078125,-0.1484525732421875,0.572111279296875
0.0355812890625,-0.16340308349609375,0.7203085400390625
-0.207076953125,-0.0254172265625,0.9754142724609375
-0.40280830078125,-0.0994345068359375,1.04545775390625
-0.41934212890625,-0.09967959716796874,1.147205126953125
-0.40280830078125,0.030463369140625002,1.012525029296875
0.01977689453125,0.0427178857421875,0.9872110693359375
0.00980796875,-0.20653898193359374,1.25780009765625
-0.10082279296875,-0.2945264111328125,1.103458671875
-0.15820490234375,-0.10507158447265624,0.88030259765625
-0.13389044921874999,-0.0670825830078125,0.7905977880859375
-0.005510136718749999,-0.08595453857421875,0.7188339404296875
0.027314375,-0.1964902783203125,0.8871840625
-0.1258666796875,-0.037916833496093746,0.8812856640625
-0.061676523437500005,0.11207844970703125,0.725469638671875
-0.0013766796875,0.171635400390625,0.8854636962890625
0.07326869140625,0.20178151123046875,1.3047415185546876
-0.236254296875,0.13805802490234376,1.50749896484375
-0.49593265625,0.01894412353515625,1.4219721875
-0.48742259765625,-0.0999246875,1.209138310546875
-0.30409162109375,-0.2886442431640625,0.9719735400390626
-0.3456693359375,-0.05899460205078125,0.8387680419921875
-0.1599069140625,-0.0023787353515625003,0.6728755859375
0.09709685546874999,0.03904153076171875,0.6283918310546874
0.11265810546874999,0.04100225341796875,0.61290853515625
0.11825042968749999,0.00816014892578125,0.666485654296875
0.1231133203125,-0.0121823486328125,0.9709904736328125
0.15642412109375,0.08511851318359374,1.4084550244140626
-0.3067662109375,0.2760438818359375,1.569923681640625
-0.54918130859375,0.1549692578125,1.38166646484375
-0.459947265625,0.008405239257812499,1.0184234277343749
0.19435466796875,-0.044044091796875,1.05233921875
-0.183735078125,-0.23791054443359375,0.9913891015625
-0.35199109375,-0.21879349853515626,0.7729025927734375
-0.18446451171875,-0.31731981201171877,0.8574463037109374
-0.1151683203125,-0.3611909814453125,1.1661291552734374
-0.21899103515625,-0.1641383544921875,1.289749755859375
-0.07699462890625,-0.030319033203124998,1.06905134765625
0.14572576171875,0.004973974609375,1.013508095703125
0.0297458203125,-0.02223105224609375,0.998762099609375
-0.1706052734375,0.095167216796875,0.867031201171875
0.0336361328125,-0.0097314453125,0.681231650390625
-0.013047617187499999,-0.1621776318359375,0.89209939453125
-0.2182616015625,-0.0043394580078125,0.9606682763671874
-0.3748466796875,-0.0494360791015625,0.978117705078125
-0.36196001953125,-0.1062970361328125,1.0457035205078125
-0.2396583203125,-0.20310771728515625,1.2811479248046875
-0.18859796875,0.0010525292968750002,1.2816394580078125
-0.19637859375,-0.2582530419921875,1.2069264111328124
-0.14993798828125,-0.02958376220703125,1.0520934521484375
-0.09109701171875,0.080461796875,0.8038691845703125
-0.18446451171875,-0.10507158447265624,0.718096640625
0.02658494140625,-0.1494329345703125,0.4720842724609375
-0.01231818359375,-0.12222790771484375,0.43005818359375
0.0637860546875,-0.0327699365234375,0.43988884765625
-0.03906408203125,-0.068553125,0.6682060205078125
-0.014506484375,-0.04281864013671875,1.0422627880859374
-0.1112780078125,0.0137972265625,1.630873798828125
-0.43830740234375,0.3275128515625,1.9587264453125
-0.62261095703125,0.2711420751953125,1.704603779296875
-0.483289140625,0.13119549560546875,1.179646318359375
-0.240144609375,0.02678701416015625,0.9582106103515625
-0.10374052734375,-0.13105115966796876,0.710723642578125
-0.06824142578125,-0.1660990771484375,0.6677144873046875
-0.018396796875,-0.1847259423828125,0.7389868017578125
-0.03663263671875,-0.17859868408203125,0.8127167822265625
0.0501699609375,-0.10115013916015625,0.8952943603515625
0.0783747265625,-0.12516899169921875,1.1587561572265626
0.092477109375,-0.167569619140625,1.4222179541015625
0.005431367187500001,0.049090234375,1.473091640625
-0.24476435546875,0.11894097900390625,1.331038544921875
-0.3408064453125,0.0672269189453125,1.1189419677734376
-0.2960678515625,0.09810830078125,0.7203085400390625
-0.280992890625,0.0008074389648437498,0.480686103515625
-0.17036212890625,-0.05090662109375,0.40892225585937503
0.1046343359375,-0.07124911865234375,0.5551533837890625
0.14572576171875,-0.10286577148437501,0.8839890966796875
-0.26907880859375,0.11599989501953126,1.2565712646484375
-0.52146283203125,0.026296833496093748,1.384124130859375
-0.013533906250000002,0.11845079833984375,1.5701694482421875
0.151804375,0.1231075146484375,1.9191580224609375
-0.01742421875,0.189281904296875,1.9525822802734374
-0.49228548828125,0.06281529296875,1.17522251953125
-0.38457246093749997,-0.0210056005859375,0.775606025390625
-0.2484115234375,-0.06536695068359374,0.4526687109375
-0.11930177734375,-0.02737794921875,0.473804638671875
0.0764295703125,-0.14281549560546875,0.509195029296875
0.02512607421875,-0.3070260180664062,0.7276815380859375
-0.14945169921875,-0.4097188671875,1.0304659912109375
-0.2425760546875,-0.37369058837890623,1.1405694287109376
-0.05316646484375,-0.04379900146484375,1.2676307617187499
-0.1141957421875,0.175556845703125,1.3784714990234375
-0.335457265625,0.1250682373046875,1.35119140625
-0.24379177734375002,0.0765403515625,1.08674654296875
-0.07018658203125,0.0883046875,0.7328426367187499
-0.041738671875,0.030708459472656248,0.39466779296875
-0.1589343359375,-0.0719843896484375,0.386311728515625
-0.19564916015625,-0.0935523388671875,0.3477263720703125
-0.17862904296875,-0.14967802490234375,0.497889765625
-0.038091503906250004,-0.24820433837890626,0.7576650634765625
0.0151571484375,-0.27859553955078126,1.1395863623046876
-0.05219388671875,-0.18742193603515625,1.4526930126953124
-0.032012890625,-0.20997024658203126,1.629890732421875
0.03825587890625,-0.16879507080078124,1.36986966796875
-0.0013766796875,0.01257177490234375,1.3170298486328125
-0.06532369140625,0.06747200927734374,1.31973328125
-0.24914095703125,0.04124734375,1.2570627978515625
-0.33181009765625,0.03315936279296875,1.0604495166015624
-0.2425760546875,0.11452935302734375,0.9513291455078126
0.011023691406250001,0.16648850341796875,0.8618701025390625
0.027557519531249998,-0.095022880859375,1.086255009765625
-0.30749564453125,-0.21977385986328124,1.0582376171875
-0.39818855468750003,-0.17908886474609376,0.809030283203125
-0.269321953125,-0.0092412646484375,0.6079932031249999
-0.02909515625,0.053992041015625,0.47921150390625
0.01005111328125,-0.03154448486328125,0.59521333984375
-0.09450103515625,-0.23006765380859376,0.6736128857421875
-0.0855046875,-0.2602137646484375,0.91569298828125
0.094422265625,-0.08448399658203125,1.1140266357421875
0.06111146484375,-0.012427438964843749,1.224867373046875
-0.294608984375,-0.10556176513671875,1.3927259619140624
-0.33035123046875,0.127519140625,1.37183580078125
-0.31673513671875,0.157910341796875,1.1435186279296874
-0.18057419921875,0.1476165478515625,0.936828916015625
-0.009886738281250002,0.0887948681640625,0.87440419921875
0.01199626953125,-0.1278649853515625,0.9166760546875
0.0029999218749999987,-0.059729873046875,1.1636714892578124
-0.08428896484375001,0.0037485229492187503,1.2806563916015625
-0.26032560546875,-0.0700236669921875,1.2315030712890624
-0.22385392578125,0.00865032958984375,1.0009739990234374
-0.34421046875,-0.06046514404296875,0.845403740234375
-0.37898013671874997,0.014777587890624999,0.82918314453125
-0.25084296875,0.18438009765625,0.8343442431640625
-0.060460800781250004,0.19001717529296874,0.8009199853515625
0.07861787109375,0.0348749951171875,0.7910893212890625
0.00616080078125,0.02482629150390625,0.75053783203125
-0.017181074218750002,-0.03522083984375,0.788385888671875
-0.082586953125,-0.2317832861328125,0.864082001953125
-0.0013766796875,-0.006790361328125,1.17325638671875
-0.14069849609375001,0.146146005859375,1.4207433544921875
-0.185680234375,-0.02125069091796875,1.554194619140625
-0.29096181640625,-0.07468038330078125,1.4443369482421875
-0.292663828125,-0.0249270458984375,1.3091653173828126
-0.13000013671875,-0.09624833251953124,1.0031858984375
-0.11492517578125,-0.21977385986328124,0.6598499560546875
-0.2289599609375,-0.03497574951171875,0.5295936572265625
-0.17036212890625,0.0740894482421875,0.462499375
-0.04441326171875,0.175556845703125,0.746114033203125
0.10487748046875,0.08658905517578125,0.990897568359375
0.1133875390625,-0.0915916162109375,1.192426181640625
-0.04684470703125,-0.06634731201171876,1.3352165771484374
0.02172205078125,0.06624655761718751,1.3091653173828126
-0.09523046875,-0.1092381201171875,1.347259140625
-0.362689453125,-0.08252327392578125,1.3455387744140626
-0.36147373046875,-0.17859868408203125,1.118696201171875
-0.2036729296875,-0.220509130859375,0.8655566015625
-0.14969484375,-0.14281549560546875,0.660587255859375
0.02512607421875,-0.1504132958984375,0.671400986328125
0.06743322265625,-0.17271651611328126,0.7989538525390625
-0.03760521484375,0.06624655761718751,1.06806828125
-0.1258666796875,0.05913893798828125,1.30105501953125
-0.17571130859375,-0.03693647216796875,1.551245419921875
-0.0859909765625,0.05374695068359375,1.46227791015625
0.01491400390625,-0.0151234326171875,1.1211538671875
-0.11054857421875,0.03757098876953125,0.7940385205078125
-0.12027435546875,-0.13742350830078126,0.652722724609375
-0.06872771484375,-0.18840229736328126,0.5202545263671875
0.12092501953125,-0.00507472900390625,0.8019030517578125
-0.245980078125,0.18903681396484376,1.0737209130859375
-0.2299325390625,0.0633054736328125,1.0412797216796874
-0.14580453125,-0.15948163818359376,1.1754682861328125
-0.0035649804687499995,0.05668803466796875,1.3145721826171874
0.0171023046875,-0.11561046875,1.3686408349609376
0.00227048828125,-0.20114699462890626,1.363479736328125
-0.1900568359375,-0.155805283203125,1.159984990234375
-0.29387955078125,-0.05605351806640625,0.6062728369140625
-0.14264365234375,0.0012976196289062499,0.3246243115234375
0.0501699609375,-0.044534272460937496,0.34133644042968747
0.09466541015625,-0.053847705078125,0.44504994628906247
0.15593783203125,-0.046740085449218746,0.6986810791015625
0.17976599609375,-0.11830646240234374,0.9616513427734374
0.11217181640625,-0.208744794921875,1.17325638671875
-0.12319208984375,-0.2474690673828125,1.4278705859375
-0.33132380859375,-0.011201987304687501,1.57041521484375
-0.49714837890625,0.03928662109375,1.2836055908203126
-0.36682291015625,0.05619785400390625,0.8348357763671875
-0.019369375,-0.1116890234375,0.5964421728515625
0.07326869140625,-0.1509034765625,0.3742691650390625
0.120681875,-0.044534272460937496,0.4214563525390625
0.105120625,0.06355056396484375,0.61979
0.04555021484375,0.1574201611328125,0.8756330322265625
-0.28318119140625,0.026296833496093748,1.1445016943359374
-0.3967296875,-0.170510703125,1.361513603515625
-0.10422681640625,-0.16144236083984376,1.3047415185546876
0.0987988671875,-0.03889719482421875,1.1290183984375
0.078861015625,0.1025199267578125,1.1150097021484375
-0.05122130859375,-0.14232531494140624,1.1184504345703126
-0.26664736328125,0.06992291259765625,1.2172486083984375
-0.43441708984375,0.15227326416015624,1.2152824755859375
-0.46748474609375,-0.047965537109375,1.10444173828125
-0.44268400390625,0.0221302978515625,0.9439561474609375
-0.10228166015625,0.1348718505859375,0.8662939013671875
0.197515546875,0.02360083984375,0.938303515625
0.20432359375,-0.049926259765625,1.095102607421875
0.12432904296875,-0.14526639892578125,1.3838783642578125
-0.21510072265625,-0.2933009594726563,1.3475049072265626
-0.19613544921875,-0.16144236083984376,0.9164302880859375
-0.21072412109375,0.0927163134765625,0.72891037109375
-0.040766093749999996,0.096147578125,0.696960712890625
0.01880431640625,0.1510478125,0.845403740234375
-0.06532369140625,-0.01144707763671875,1.1002637060546876
-0.17425244140625,-0.1817848583984375,1.1056705712890624
-0.23795630859375,-0.18448085205078124,1.2049602783203124
-0.27977716796875,0.20031096923828126,1.17718865234375
-0.408400625,0.18707609130859376,1.1683410546875
-0.422989296875,0.16746886474609374,1.18112091796875
-0.1579617578125,-0.00703545166015625,1.1213996337890624
0.0608683203125,-0.1386489599609375,0.9464138134765625
0.14037658203125,-0.09796396484375,0.846386806640625
0.102202890625,-0.18006922607421874,0.905370791015625
0.065244921875,-0.2386458154296875,1.02383029296875
-0.23917203125,-0.2278618408203125,1.0511103857421875
-0.28658521484375,0.05570767333984375,0.9714820068359376
-0.13437673828125,0.0015427099609375003,1.003677431640625
-0.2255559375,-0.051886982421875,1.135408330078125
-0.005753281249999999,-0.14085477294921875,1.119187734375
0.06208404296875,-0.1038461328125,1.4359808837890624
-0.17668388671875,-0.00850599365234375,1.6876458837890624
-0.54067125,-0.1906081103515625,1.3101483837890624
-0.3777644140625,-0.08203309326171875,0.720554306640625
-0.22288134765625,-0.0016434643554687498,0.5197629931640625
-0.13534931640625,0.0829127001953125,0.4421007470703125
-0.02155767578125,0.12188206298828125,0.4258801513671875
0.07351183593749999,0.11747043701171875,0.4883048681640625
0.07326869140625,0.146146005859375,0.65419732421875
0.058193730468749996,0.024581201171875,1.0309575244140625
-0.36098744140625,-0.0974737841796875,1.2430541015625
-0.36098744140625,-0.33202523193359373,1.260257763671875
0.02318091796875,-0.29526168212890624,1.2344522705078125
-0.084532109375,-0.37614149169921873,1.06806828125
-0.19662173828125,-0.19722554931640626,1.0432458544921874
-0.13875333984375,-0.0641414990234375,1.0629071826171874
-0.015235917968750002,-0.10262068115234375,0.778555224609375
-0.19248828125,-0.018554697265625,1.0860092431640624
-0.1637972265625,0.1387932958984375,1.247477900390625
-0.1180860546875,0.1260485986328125,1.12017080078125
-0.11857234375,0.03364954345703125,1.0506188525390625
0.0229377734375,-0.049926259765625,0.907336923828125
0.11071294921875,-0.17271651611328126,0.819844013671875
0.057464296875,-0.20653898193359374,0.9547698779296875
-0.18738224609375,-0.2151171435546875,1.0717547802734375
-0.39454138671875,-0.17271651611328126,0.9877026025390625
-0.38335673828125,-0.11536537841796875,0.973202373046875
-0.20415921875,0.04394333740234375,0.957473310546875
-0.082586953125,0.17972338134765625,1.0049062646484375
0.05284455078125,-0.03203466552734375,1.03562708984375
0.1085246484375,-0.00262382568359375,1.1808751513671876
-0.259596171875,0.0686974609375,1.4767781396484374
-0.3592854296875,0.04149243408203125,1.520770361328125
-0.300444453125,0.00472888427734375,1.227816572265625
-0.22628537109375,0.2034971435546875,1.0324321240234375
-0.1103054296875,0.16624341308593749,0.942727314453125
0.15350638671875,0.021885207519531248,0.97074470703125
-0.02496169921875,0.12433296630859375,0.9911433349609375
-0.25935302734375,0.18707609130859376,1.0112961962890625
-0.35855599609375,0.1044806494140625,0.878827998046875
-0.29728357421875,0.097127939453125,0.961897109375
0.018318027343749998,0.11207844970703125,1.2167570751953125
-0.040279804687500004,-0.13007079833984375,1.410175390625
-0.07893978515625,-0.3004085791015625,1.3256316796875
-0.0412523828125,-0.35555390380859375,1.22044357421875
-0.18640966796875,-0.3033496630859375,0.8889044287109376
-0.2882872265625,-0.23742036376953124,0.7542243310546874
-0.2435486328125,-0.25874322265625,0.6544430908203125
-0.03711892578125,-0.2455083447265625,0.6121712353515625
0.1012303125,-0.13742350830078126,0.733825703125
0.18171115234375,-0.0371815625,0.9326508837890625
0.18851919921875,-0.01879978759765625,1.2246216064453126
-0.17522501953125,-0.106787216796875,1.3878106298828126
-0.22774423828125,-0.21732295654296874,1.3067076513671876
-0.09158330078125,-0.0013983740234375002,1.2378930029296875
-0.1190586328125,-0.010221625976562499,1.282868291015625
-0.36050115234375,-0.1239435400390625,1.318258681640625
-0.4244481640625,-0.2298225634765625,1.136391396484375
-0.3612305859375,-0.19600009765625,0.7591396630859375
-0.2309051171875,-0.1553151025390625,0.5271359912109375
-0.03566005859375,-0.08252327392578125,0.4801945703125
0.0910182421875,0.0515411376953125,0.47331310546875
0.031204687499999998,0.1329111279296875,0.663536455078125
0.073025546875,0.1819291943359375,0.8702261669921875
-0.044899550781250006,-0.0455146337890625,1.0545511181640626
-0.11054857421875,-0.3021242114257813,1.1907058154296875
0.036067578125,-0.32418234130859375,1.2939277880859374
0.156667265625,-0.06095532470703125,1.3332504443359374
-0.23309341796875,-0.15163874755859374,1.186527783203125
-0.29582470703125,-0.25212578369140626,0.8515479052734375
-0.18786853515625002,-0.26241957763671875,0.6003744384765625
-0.18738224609375,-0.24722397705078125,0.54409388671875
-0.23552486328125,-0.20310771728515625,0.62667146484375
-0.16306779296875,0.0417375244140625,0.717605107421875
0.04214619140625,0.11796061767578125,0.835573076171875
0.10633634765625,0.1338914892578125,1.1140266357421875
-0.012561328125,-0.1719812451171875,1.3334962109375
-0.1443456640625,-0.3800629370117187,1.462769443359375
-0.033714902343750006,-0.1278649853515625,1.4986513671875
-0.12246265625,-0.02419177490234375,0.9559987109375
0.01540029296875,0.04394333740234375,0.7871570556640625
-0.15674603515625,-0.012672529296875,0.9719735400390626
-0.273212265625,0.0765403515625,1.300071953125
-0.3437241796875,0.2407508740234375,1.4659644091796875
-0.4745359375,0.16305723876953124,1.3728188671875
-0.4497351953125,0.07531489990234375,1.1528577587890625
-0.03128345703125,0.04149243408203125,0.9709904736328125
0.0453070703125,0.12825441162109374,1.10640787109375
0.02463978515625,0.0142874072265625,1.2536220654296875
0.02609865234375,-0.1406096826171875,1.4399131494140625
-0.07407689453124999,-0.09477779052734375,1.2978600537109375
-0.23163455078125,7.216796875000007e-05,1.072492080078125
-0.40329458984375,-0.0023787353515625003,0.9675497412109375
-0.392839375,0.02923791748046875,0.9326508837890625
-0.32864921874999997,0.04296297607421875,0.862115869140625
-0.09547361328125001,0.08756941650390625,0.9931094677734374
-0.21850474609375,-0.02958376220703125,1.08379734375
-0.23503857421875,-0.22761675048828126,1.0874838427734375
-0.1871391015625,-0.3602106201171875,1.0599579833984376
-0.2396583203125,-0.31192782470703123,0.860149736328125
-0.14069849609375001,-0.30383984375,0.7001556787109375
0.06597435546875,-0.23055783447265624,0.805098017578125
0.07715900390625,-0.24477307373046875,1.0226014599609374
-0.05365275390625,-0.17639287109375001,1.2233927734375
-0.2581373046875,-0.12614935302734376,1.35610673828125
-0.24865466796875,-0.1180613720703125,1.20864677734375
-0.321841171875,-0.04330882080078125,0.9783634716796875
-0.15528716796875,0.05668803466796875,0.8918536279296875
-0.17182099609375,0.12825441162109374,0.9105318896484375
-0.3855450390625,-0.06781785400390625,1.0452119873046875
-0.37898013671874997,-0.2869286108398437,1.07298361328125
-0.1385101953125,-0.3435444775390625,0.8820229638671875
0.0268280859375,-0.23521455078125,0.971236240234375
-0.18081734375,-0.3200158056640625,0.930438984375
-0.060947089843749996,-0.1759026904296875,0.8515479052734375
-0.08088494140625,0.036345537109375,0.9626344091796875
0.0545465625,-0.11144393310546875,0.9680412744140625
-0.090367578125,-0.11732610107421874,1.2064348779296874
-0.213885,0.0672269189453125,1.1762055859375
-0.2318776953125,-0.1484525732421875,0.8195982470703125
-0.10811712890625,-0.28594824951171877,0.684180849609375
0.0180748828125,-0.27442900390625,0.859166669921875
-0.1336473046875,-0.22026404052734375,1.1644087890625
-0.152612578125,-0.14085477294921875,1.4354893505859374
-0.32086859375,-0.03350520751953125,1.3794545654296875
-0.51027818359375,-0.15408965087890625,1.051847685546875
-0.304334765625,-0.10580685546875,0.8812856640625
-0.1151683203125,-0.09085634521484375,0.709740576171875
0.0686489453125,-0.083258544921875,0.6529684912109375
0.04117361328125,0.0103659619140625,0.810013349609375
-0.10690140625,-0.0239466845703125,0.7576650634765625
-0.05024873046875,-0.1641383544921875,0.694994580078125
-0.1219763671875,-0.23987126708984374,0.8365561425781249
-0.1190586328125,-0.09575815185546875,1.0304659912109375
0.0278006640625,-0.12124754638671875,1.1970957470703125
-0.26810623046875,0.0074248779296875,1.4239383203125
-0.3369161328125,-0.1151202880859375,1.4305740185546876
-0.3884627734375,-0.2631548486328125,1.1911973486328125
-0.37898013671874997,-0.2131564208984375,0.852285205078125
-0.146777109375,-0.1621776318359375,0.685163916015625
-0.04392697265625,-0.01634888427734375,0.6613245556640625
-0.11346630859375,0.0623251123046875,0.76921609375
-0.0509781640625,0.0838930615234375,0.8431918408203125
-0.006482714843750001,-0.027868129882812502,0.868014267578125
-0.01474962890625,0.0008074389648437498,0.9842618701171875
8.218750000000066e-05,-0.047965537109375,1.0683140478515625
0.05965259765625,-0.069533486328125,1.3332504443359374
-0.0879361328125,-0.03448556884765625,1.6404586962890626
-0.31722142578125,0.05619785400390625,1.7503163671875
-0.487179453125,0.004973974609375,1.552228486328125
-0.448276328125,0.04786478271484375,1.2899955224609374
-0.459947265625,0.05570767333984375,1.0624156494140624
-0.43879369140625,0.03021827880859375,0.868997333984375
-0.24184662109375,-0.0013983740234375002,0.6922911474609375
0.014427714843749998,-0.1509034765625,0.671400986328125
0.09126138671875,-0.13742350830078126,0.699909912109375
0.032177265625,-0.21438187255859376,0.839996875
-0.060460800781250004,-0.26585084228515626,0.9965502001953125
-0.10568568359375,-0.27516427490234374,1.0894499755859375
-0.1083602734375,-0.2082546142578125,1.1125520361328125
-0.04246810546875,-0.055808427734375,1.1695698876953124
-0.2036729296875,-0.01561361328125,1.263206962890625
-0.341292734375,-0.022476142578125,1.389039462890625
-0.4798851171875,-0.0960032421875,1.430328251953125
-0.5134390625,-0.106787216796875,1.3396403759765625
-0.3233000390625,-0.34280920654296876,1.0909245751953125
-0.028122578125000002,-0.27467409423828126,0.8746499658203125
-0.105928828125,-0.25065524169921877,0.880794130859375
0.036797011718749995,-0.21389169189453125,0.9842618701171875
0.07205296875,-0.19379428466796875,1.2079094775390624
0.035095,-0.1768830517578125,1.4615406103515625
-0.22968939453125,-0.2058037109375,1.4753035400390626
-0.31430369140625003,-0.12149263671875,1.212087509765625
-0.26810623046875,-0.026397587890625,1.0543053515625
-0.3291355078125,-0.022476142578125,1.0896957421875
-0.33618669921875,-0.1102184814453125,1.107882470703125
-0.230418828125,-0.21193096923828125,1.1322133642578125
-0.3544225390625,-0.177373232421875,1.0235845263671874
-0.21121041015625,-0.25702759033203126,0.7699533935546875
-0.18543708984375,-0.24330253173828126,0.660587255859375
0.0783747265625,-0.16462853515625,0.6355190625
0.10244603515625,-0.15801109619140624,0.7279273046875
0.08639849609375,-0.2160975048828125,0.8623616357421875
0.08056302734375,-0.22124440185546876,0.9041419580078125
0.06840580078125,-0.2494297900390625,0.8122252490234375
-0.1929745703125,-0.15801109619140624,0.80755568359375
-0.2649453515625,-0.075415654296875,0.6205272998046875
-0.19564916015625,0.052031318359375,0.5949675732421875
-0.039307226562500006,0.081442158203125,0.840488408203125
-0.1958923046875,0.16599832275390625,1.1902142822265624
-0.44025255859375,0.03953171142578125,1.281885224609375
-0.4565432421875,-0.206784072265625,1.0530765185546875
-0.13389044921874999,-0.19992154296875,0.7291561376953125
0.0467659375,-0.15850127685546875,0.554416083984375
0.08056302734375,-0.1004148681640625,0.4841268359375
0.07180982421875,-0.09918941650390625,0.499364365234375
0.07667271484375,-0.09012107421875,0.5782554443359375
0.05576228515625,-0.0259074072265625,0.82525087890625
-0.1219763671875,0.10276501708984374,1.144255927734375
-0.17376615234375,-0.01585870361328125,1.348733740234375
-0.17376615234375,0.09394176513671874,1.3293181787109374
-0.257651015625,0.08217742919921875,1.2885209228515624
-0.27053767578125,-0.05654369873046875,1.2233927734375
-0.35977171875,-0.02909358154296875,1.1838243505859376
-0.3699837890625,-0.08644471923828125,1.195375380859375
-0.39745912109375,-0.2043331689453125,1.1975872802734375
-0.15188314453125001,-0.2881540625,1.116730068359375
-0.05632734375,-0.1425704052734375,0.966320908203125
-0.09134015625,-0.091101435546875,0.8063268505859374
-0.063135390625,-0.011201987304687501,0.70728291015625
-0.1141957421875,-0.0543378857421875,0.718588173828125
-0.0315266015625,-0.118551552734375,0.7325968701171874
-0.022773398437500002,-0.08595453857421875,0.953541044921875
-0.1180860546875,-0.04379900146484375,1.3534033056640624
-0.030067734375000002,-0.16242272216796874,1.7628504638671876
-0.09547361328125001,-0.12173772705078124,2.0213969287109377
-0.384086171875,-0.1180613720703125,2.014269697265625
-0.52292169921875,-0.128355166015625,1.695756181640625
-0.54723615234375,-0.13497260498046876,1.4477776806640625
-0.53118861328125,-0.214626962890625,1.380191865234375
-0.53483578125,-0.25457668701171876,1.1956211474609375
-0.26616107421875,-0.3729553173828125,0.917167587890625
-0.0159653515625,-0.2906049658203125,0.7183424072265625
0.082751328125,-0.17859868408203125,0.698926845703125
0.1075520703125,-0.147962392578125,0.9016842919921875
0.0676763671875,-0.20727425292968749,1.2034856787109376
-0.04003666015625,-0.273448642578125,1.5298637255859375
-0.18835482421875,-0.1729616064453125,1.7584266650390625
-0.368524921875,-0.17712814208984376,1.729180439453125
-0.43830740234375,-0.13742350830078126,1.4915241357421876
-0.45921783203125,-0.2254109375,1.27549529296875
-0.34202216796875,-0.28986969482421876,0.986965302734375
-0.17522501953125,-0.3535931811523437,0.85081060546875
-0.15139685546875,-0.26339993896484376,0.9439561474609375
-0.21850474609375,-0.15948163818359376,1.0597122167968749
-0.1151683203125,-0.18497103271484375,1.0132623291015626
-0.040279804687500004,-0.16487362548828124,0.9370746826171875
-0.007455292968749999,-0.05899460205078125,0.8766160986328125
0.05527599609375,-0.077376376953125,0.7328426367187499
0.074970703125,-0.07713128662109375,0.665502587890625
0.014670859375000001,-0.20114699462890626,0.7045794775390625
-0.089395,-0.006790361328125,0.8402426416015625
-0.1900568359375,-0.183255400390625,0.8466325732421875
-0.25789416015625,-0.13889405029296875,0.8930824609375
-0.2668905078125,-0.0837487255859375,0.9744312060546875
-0.22579908203125,-0.22222476318359374,0.9631259423828125
-0.27929087890625,-0.22271494384765625,1.02383029296875
-0.18008791015625,-0.05017135009765625,0.93437125
-0.011831894531250001,-0.14673694091796874,0.8544971044921875
0.0667037890625,-0.07909200927734375,0.8731753662109375
0.08153560546875,0.00963069091796875,0.86850580078125
0.0010547656249999988,-0.0011532836914062497,0.8466325732421875
0.06500177734375,-0.00458454833984375,0.784453623046875
0.011753125,0.09026541015625,0.8223016796875
-0.00502384765625,0.05913893798828125,0.8874298291015625
-0.156502890625,-0.02737794921875,1.0265337255859375
-0.11832919921875,0.11649007568359375,1.115747001953125
-0.34396732421875,-0.13693332763671875,1.062661416015625
-0.33108066406250003,-0.1504132958984375,0.945676513671875
-0.1710915625,-0.120512275390625,0.804606484375
-0.0966893359375,-0.098944326171875,0.8313950439453125
-0.034687480468750004,-0.126394443359375,0.9562444775390625
-0.12319208984375,-0.14502130859375,1.11820466796875
0.051385683593749995,-0.09722869384765626,1.198324580078125
0.0832376171875,-0.05605351806640625,1.2678765283203126
-0.0033218359375,0.09835339111328124,1.1435186279296874
-0.0033218359375,-0.02762303955078125,0.8874298291015625
0.03971474609375,-0.0719843896484375,0.897506259765625
-0.12635296875,-0.16928525146484374,1.0083469970703125
-0.0490330078125,-0.25702759033203126,1.0383305224609374
-0.1200312109375,-0.17835359375,1.0530765185546875
-0.14215736328125,-0.29771258544921875,1.075441279296875
-0.14604767578125,-0.33521140625,1.1100943701171875
-0.1307295703125,-0.39623889892578124,1.1754682861328125
-0.0461152734375,-0.30604565673828127,1.1789090185546875
-0.09255587890625,-0.3727102270507813,1.088221142578125
-0.103983671875,-0.23055783447265624,1.03366095703125
-0.033714902343750006,-0.1857063037109375,0.8987350927734374
0.1163052734375,-0.1974706396484375,0.9356000830078125
0.06694693359375001,-0.08889562255859375,1.070525947265625
0.0453070703125,-0.07370002197265625,1.198324580078125
-0.2114535546875,0.01208159423828125,1.3492252734375
-0.26324333984375,0.0172284912109375,1.17325638671875
-0.29363640625,0.023845930175781252,1.0346440234375
-0.18251935546875,-0.00360418701171875,0.963371708984375
-0.2177753125,-0.15948163818359376,0.8918536279296875
-0.1647698046875,0.019679394531249998,0.9282270849609375
-0.13923962890625,-0.1759026904296875,1.019406494140625
-0.08234380859375,-0.049926259765625,1.0938737744140625
-0.08744984375,-0.07051384765625,1.2526389990234374
-0.109819140625,-0.09918941650390625,1.512414296875
-0.09255587890625,-0.07443529296875,1.4118957568359374
-0.22434021484375,-0.0371815625,1.1553154248046875
-0.089395,-0.11193411376953125,0.8962774267578125
-0.175954453125,-0.20212735595703124,0.7515208984375
-0.16258150390625,-0.154824921875,0.7094948095703125
-0.16209521484375,-0.20163717529296876,0.7473428662109375
-0.0500055859375,-0.18252012939453124,0.7178508740234375
-0.112736875,-0.20727425292968749,0.8107506494140625
-0.16720125,-0.16683434814453124,0.8800568310546875
-0.17960162109375,-0.1582561865234375,0.8898874951171875
0.008592246093749999,-0.1229631787109375,0.99630443359375
-0.08526154296874999,-0.09967959716796874,1.2201978076171875
-0.12367837890625,-0.04772044677734375,1.44458271484375
-0.23066197265625,-0.05360261474609375,1.479481572265625
-0.20975154296875,-0.0817880029296875,1.17129025390625
-0.04003666015625,-0.09134652587890625,0.95698177734375
-0.04830357421875,-0.00458454833984375,1.0909245751953125
-0.164283515625,-0.0960032421875,1.1312302978515625
-0.230418828125,-0.09526797119140624,1.0727378466796875
-0.111764296875,-0.06732767333984375,0.9493630126953125
-0.12951384765625001,-0.17173615478515625,1.03661015625
-0.04878986328125,-0.12418863037109375,1.1228742333984374
-0.09304216796875,-0.2582530419921875,1.08871267578125
0.0268280859375,-0.22467566650390625,0.9803296044921875
-0.000890390625000001,-0.24967488037109375,0.8987350927734374
-0.1424005078125,-0.24771415771484376,1.01006736328125
-0.17133470703125,-0.21168587890625,1.13196759765625
-0.1477496875,-0.15948163818359376,1.030220224609375
-0.01815365234375,-0.12712971435546874,0.9186421875
0.09028880859374999,-0.1190417333984375,0.97369390625
-0.006239570312500001,-0.08350363525390625,1.108865537109375
-0.02593427734375,-0.0567887890625,1.209138310546875
-0.0947441796875,-0.0376717431640625,1.2155282421875
-0.20586123046875,-0.04036773681640625,1.1189419677734376
-0.07991236328125,-0.12320826904296875,1.0545511181640626
-0.10325423828125,-0.20604880126953126,1.10640787109375
-0.07067287109375,-0.32663324462890625,1.0919076416015625
-0.117599765625,-0.29477150146484377,0.97369390625
-0.098148203125,-0.2504101513671875,0.8490902392578125
-0.026420566406250002,-0.29673222412109374,0.73087650390625
0.052115117187500004,-0.240116357421875,0.7384952685546875
0.038012734374999996,-0.25114542236328125,0.944693447265625
-0.06289224609374999,-0.155805283203125,1.1014925390624999
-0.00842787109375,-0.16193254150390626,1.09461107421875
-0.06021765625,-0.17026561279296876,1.05528841796875
-0.15431458984375,-0.11291447509765624,1.05725455078125
-0.1399690625,-0.0435539111328125,1.0216183935546874
-0.11395259765625,-0.02027032958984375,1.029237158203125
