ax,ay,az
-0.37946642578125,0.034384814453125,0.87931953125
-0.14580453125,-0.0175743359375,0.9400238818359374
-0.213885,-0.2259011181640625,1.07494974609375
-0.39891798828125,-0.11046357177734376,1.17817171875
-0.34737134765625,-0.07173929931640625,1.10444173828125
-0.4176401171875,-0.11364974609375,1.0579918505859376
-0.38189787109375,-0.03987755615234375,0.9931094677734374
-0.282938046875,-0.01438816162109375,0.929947451171875
-0.19516287109375,-0.053847705078125,0.9282270849609375
-0.21801845703125,0.028502646484374998,1.0319405908203125
-0.316005703125,-0.07222947998046875,1.1120605029296875
-0.42031470703125,0.0010525292968750002,1.1054248046875
-0.41836955078125,-0.01561361328125,0.872929599609375
-0.34202216796875,-0.10654212646484375,0.673367119140625
-0.23892888671875,-0.04477936279296875,0.62470533203125
-0.22288134765625,-0.12516899169921875,0.694011513671875
-0.30020130859375,-0.03301502685546875,0.8245135791015625
-0.25838044921875,0.0250713818359375,0.9203625537109374
-0.32257060546875,-0.0082609033203125,1.0737209130859375
-0.358799140625,0.0456589697265625,1.17129025390625
-0.41812640624999997,0.056933125,1.1071451708984374
-0.31284482421875,-0.06536695068359374,0.94321884765625
-0.292663828125,-0.026397587890625,1.0019570654296874
-0.3033621875,-0.1631579931640625,0.9970417333984375
-0.3067662109375,-0.10850284912109374,0.967303974609375
-0.26640421875,0.06404074462890624,1.05332228515625
-0.30700935546875,-0.067572763671875,0.9709904736328125
-0.4730770703125,-0.015368522949218751,0.976151572265625
-0.27248283203125,0.019434304199218752,0.994829833984375
-0.3252451953125,0.009140510253906251,0.9179048876953125
-0.30166017578125,0.0446786083984375,0.9183964208984375
-0.3388612890625,0.00423870361328125,0.9660751416015625
-0.3515048046875,0.0456589697265625,1.09854333984375
-0.35199109375,0.03904153076171875,1.1174673681640626
-0.234309140625,-0.0582593310546875,0.9729566064453125
-0.2566784375,0.0843832421875,0.9356000830078125
-0.244034921875,-0.20800952392578126,0.938303515625
-0.522192265625,0.03536517578125,0.9994993994140625
-0.31041337890625,0.0152677685546875,0.9449392138671875
-0.327676640625,0.03168882080078125,0.9886856689453125
-0.2367405859375,0.11599989501953126,0.886692529296875
-0.1190586328125,-0.12712971435546874,0.8220559130859375
-0.27029453125,-0.18055940673828125,1.05135615234375
-0.42128728515625,-0.161687451171875,1.2469863671875
-0.491069765625,-0.1023755908203125,1.2939277880859374
-0.29509527343749997,-0.0249270458984375,1.1312302978515625
-0.40183572265625,-0.01585870361328125,0.93928658203125
-0.15771861328125,0.0530116796875,0.929947451171875
-0.2970404296875,0.0123266845703125,0.9127437890625
-0.38724705078125,-0.00311400634765625,0.93732044921875
-0.23212083984375,0.032424091796875,0.95698177734375
-0.3291355078125,-0.05752406005859375,1.0088385302734375
-0.41204779296875,0.0012976196289062499,1.0535680517578125
-0.39405509765625,-0.22345021484375,0.912252255859375
-0.20877896484375,-0.13889405029296875,0.832623876953125
-0.2902323828125,-0.1161006494140625,0.8599039697265625
-0.45289607421875,-0.0621807763671875,0.96288017578125
-0.2960678515625,0.00791505859375,0.930438984375
-0.3515048046875,0.056933125,0.89406552734375
-0.2873146484375,0.0672269189453125,0.9638632421875
-0.23528171875,-0.02713285888671875,0.938303515625
-0.23455228515625,0.034384814453125,0.9097945898437501
-0.28707150390625,-0.089140712890625,0.8891501953125
-0.36487775390625,-0.0582593310546875,0.9223286865234375
-0.26178447265625,-0.134237333984375,0.9795923046875
-0.3330258203125,-0.09183670654296874,1.046932353515625
-0.32159802734375,-0.01978014892578125,1.0619241162109374
-0.39210994140625,-0.03914228515625,0.87931953125
-0.20634751953125,0.08168724853515624,0.7822417236328125
-0.20488865234375,0.10031411376953125,0.811979482421875
-0.27685943359375,0.08266760986328126,1.014491162109375
-0.3495596484375,0.07286399658203124,1.0992806396484376
-0.35952857421875,-0.010221625976562499,0.992863701171875
-0.292663828125,-0.00458454833984375,0.8795652978515625
-0.27831830078124997,-0.02737794921875,0.81345408203125
-0.265431640625,-0.05482806640625,0.8481071728515625
-0.30409162109375,-0.042083369140625,0.9739396728515625
-0.40256515625,0.09345158447265625,1.005643564453125
-0.228473671875,0.1348718505859375,0.9478884130859375
-0.2970404296875,0.19736988525390625,1.0181776611328126
-0.33861814453125,0.14492055419921876,1.1474508935546874
-0.3242726171875,-0.08399381591796876,1.1120605029296875
-0.2649453515625,-0.0847290869140625,1.0582376171875
-0.27199654296875,-0.065612041015625,0.908319990234375
-0.33521412109375,-0.08644471923828125,0.8340984765625
-0.2824517578125,-0.04183827880859375,0.9363373828125
-0.44511544921875,-0.06438658935546875,1.0437373876953124
-0.29096181640625,0.1064413720703125,1.0442289208984374
-0.26251390625,0.1515379931640625,0.969761640625
-0.35393625,0.05227640869140625,0.9562444775390625
-0.21972046875,-0.0332601171875,0.9056165576171875
-0.1404553515625,-0.04723026611328125,0.8933282275390625
-0.34226531250000003,-0.05997496337890625,0.9729566064453125
-0.36366203125,0.04786478271484375,0.9994993994140625
-0.2299325390625,-0.0415931884765625,0.9041419580078125
-0.42469130859375,0.042227705078125,0.913235322265625
-0.31138595703125,0.0593840283203125,1.0127707958984375
-0.32257060546875,0.056933125,1.056271484375
-0.288773515625,0.06992291259765625,1.02579642578125
-0.22385392578125,0.04002189208984375,0.897506259765625
-0.29290697265625,0.034384814453125,0.84687833984375
-0.299471875,0.02531647216796875,0.9488714794921875
-0.3194097265625,0.06600146728515625,1.0525849853515625
-0.3699837890625,0.07041309326171875,1.0425085546875
-0.294608984375,0.05913893798828125,0.9913891015625
-0.30360533203125,0.03536517578125,0.956490244140625
-0.29509527343749997,0.0289928271484375,0.9188879541015624
-0.247925234375,0.0417375244140625,0.875387265625
-0.35126166015625,0.040266982421875,0.8166490478515624
-0.42590703125,0.03659062744140625,0.8579378369140624
-0.24233291015625,0.1044806494140625,0.8576920703124999
-0.2639727734375,0.08217742919921875,0.8220559130859375
-0.343237890625,-0.0327699365234375,0.8279543115234375
-0.2532744140625,-0.05703387939453125,0.8498275390625
-0.2255559375,0.021885207519531248,0.92552365234375
-0.30214646484375,-0.0866898095703125,0.9999909326171875
-0.25862359375,0.0451687890625,1.10837400390625
-0.30020130859375,-0.008996174316406251,0.9174133544921875
-0.22434021484375,0.09737302978515625,0.9139726220703125
-0.362689453125,0.14786163818359374,0.87047193359375
-0.24962724609375,0.06453092529296875,0.8667854345703125
-0.2450075,-0.00703545166015625,0.8871840625
-0.29728357421875,0.02727719482421875,1.0093300634765625
-0.16793068359375,-0.1396293212890625,1.008592763671875
-0.45873154296875,-0.04134809814453125,1.0348897900390626
-0.33108066406250003,0.09639266845703125,1.154086591796875
-0.4487626171875,0.08634396484375,1.1120605029296875
-0.308225078125,0.18658591064453126,1.1538408251953125
-0.294608984375,0.073599267578125,1.0624156494140624
-0.22725794921875,0.06257020263671875,0.944693447265625
-0.29485212890625,0.12727405029296876,0.7552073974609375
-0.21753216796875,0.0436982470703125,0.7606142626953125
-0.232363984375,-0.0298288525390625,0.9046334912109375
-0.428824765625,0.040266982421875,1.2988431201171875
-0.4186126953125,-0.02762303955078125,1.3897767626953126
-0.421044140625,0.07629526123046874,1.3047415185546876
-0.370470078125,0.07825598388671876,0.92945591796875
-0.29509527343749997,0.008405239257812499,0.779538291015625
-0.2775888671875,0.042227705078125,0.77609755859375
-0.30603677734375,0.0417375244140625,0.825742412109375
-0.22142248046875002,0.0535018603515625,0.885709462890625
-0.338375,-0.025662316894531252,0.9183964208984375
-0.242089765625,-0.03056412353515625,0.9065996240234375
-0.37363095703125,-0.13644314697265625,0.84884447265625
-0.26761994140625,-0.18055940673828125,0.880794130859375
-0.16404037109375,-0.03644629150390625,0.94223578125
-0.4118046484375,-0.0332601171875,0.9822957373046874
-0.3111428125,-0.06781785400390625,1.1037044384765624
-0.41812640624999997,0.04051207275390625,0.9400238818359374
-0.34591248046875,0.0799716162109375,0.8151744482421874
-0.24719580078125,0.14541073486328124,0.85867513671875
-0.32086859375,0.04712951171875,0.84884447265625
-0.187625390625,0.0593840283203125,0.9223286865234375
-0.24670951171875,-0.08301345458984374,0.8446664404296875
-0.1205175,-0.03742665283203125,0.821810146484375
-0.2503566796875,-0.0190448779296875,0.9139726220703125
-0.43052677734375,0.04149243408203125,1.0309575244140625
-0.44049570312499997,0.11207844970703125,0.9638632421875
-0.40669861328125,0.07874616455078125,0.9469053466796875
-0.3991611328125,0.067717099609375,1.0186691943359376
-0.2591098828125,0.12482314697265626,1.1189419677734376
-0.2133987109375,0.103010107421875,1.16539185546875
-0.30603677734375,0.08364797119140625,1.178663251953125
-0.251815546875,0.13315621826171875,1.1199250341796876
-0.2921775390625,0.00570924560546875,0.9936010009765625
-0.39089421875,0.07629526123046874,1.070525947265625
-0.26956509765625,-0.01487834228515625,1.07888201171875
-0.4088869140625,0.0280124658203125,1.0324321240234375
-0.30700935546875,0.00668960693359375,1.085271943359375
-0.3680386328125,-0.05213207275390625,1.024813359375
-0.296554140625,0.0270321044921875,0.944693447265625
-0.302389609375,-0.08007237060546875,0.9238032861328125
-0.399647421875,-0.029338671875,0.984999169921875
-0.24379177734375002,0.01306195556640625,1.0560257177734376
-0.30919765625,-0.0055649096679687505,0.9090572900390625
-0.335457265625,0.01257177490234375,0.8628531689453125
-0.28269490234375,-0.01193725830078125,0.8515479052734375
-0.236254296875,0.02776737548828125,0.840488408203125
-0.26227076171875,0.0037485229492187503,0.7792925244140625
-0.26518849609375,0.0093856005859375,0.7689703271484375
-0.30506419921875,7.216796875000007e-05,0.7276815380859375
-0.25157240234375,-0.0063001806640625,0.7178508740234375
-0.27296912109375,-0.03203466552734375,0.6952403466796875
-0.284883203125,-0.0347306591796875,0.6745959521484375
-0.142886796875,-0.055808427734375,0.6544430908203125
-0.0655668359375,-0.18006922607421874,0.8436833740234375
-0.299471875,0.0603643896484375,1.2865547900390626
-0.43684853515625,0.13340130859375,1.5298637255859375
-0.48936775390625,0.18560554931640624,1.4866088037109375
-0.43441708984375,0.2280061767578125,1.29515662109375
-0.314060546875,0.075559990234375,1.031203291015625
-0.3116291015625,0.07825598388671876,0.9488714794921875
-0.29728357421875,0.12629368896484375,0.79575888671875
-0.21850474609375,0.0868341455078125,0.624213798828125
-0.18835482421875,0.12041152099609376,0.6136458349609375
-0.25303126953125,0.06649164794921875,0.6859012158203125
-0.2659179296875,-0.0651218603515625,0.949608779296875
-0.37460353515625,-0.093062158203125,1.1749767529296875
-0.44462916015625,0.015022678222656249,1.19390078125
-0.39405509765625,0.00865032958984375,1.030220224609375
-0.37533296875,0.0221302978515625,0.93732044921875
-0.36196001953125,0.06355056396484375,0.887675595703125
-0.28196546875,0.11894097900390625,0.926015185546875
-0.2814791796875,0.0270321044921875,0.979100771484375
-0.16112263671875,0.0672269189453125,1.0796193115234376
-0.312115390625,-0.045024453125,1.0565172509765626
-0.27199654296875,-0.085219267578125,1.0049062646484375
-0.282938046875,0.0137972265625,0.95698177734375
-0.33278267578125,0.0035034326171875,0.9326508837890625
-0.31989601562500003,-0.02076051025390625,0.9159387548828125
-0.36487775390625,0.019679394531249998,0.94223578125
-0.35417939453125,0.0231106591796875,0.9532952783203125
-0.3267040625,0.11943115966796874,0.994829833984375
-0.3116291015625,0.03610044677734375,1.0184234277343749
-0.32597462890625,-0.015368522949218751,0.9650920751953125
-0.24865466796875,0.0760501708984375,1.03562708984375
-0.31819400390625,0.0887948681640625,1.1189419677734376
-0.3320532421875,0.01257177490234375,1.1046875048828124
-0.3267040625,0.0397768017578125,1.0503730859375
-0.3213548828125,0.033404453125,0.9822957373046874
-0.3281629296875,0.052031318359375,0.847369873046875
-0.2396583203125,0.03413972412109375,0.798216552734375
-0.20391607421875,0.08462833251953125,0.7979707861328125
-0.36366203125,0.0525214990234375,0.8250051123046875
-0.34834392578125,-0.01193725830078125,0.8682600341796876
-0.2960678515625,0.0407571630859375,0.89799779296875
-0.26154132812499997,0.040266982421875,0.9088115234375
-0.24476435546875,0.018699033203125,0.996795966796875
-0.2620276171875,0.053992041015625,1.1120605029296875
-0.40767119140625,0.0427178857421875,1.1916888818359375
-0.31527626953125,0.009140510253906251,1.1250861328125
-0.32257060546875,0.0672269189453125,1.006626630859375
-0.3164919921875,0.00816014892578125,0.89996392578125
-0.2513292578125,-0.03546593017578125,0.8495817724609375
-0.3369161328125,0.059874208984374996,0.83704767578125
-0.21899103515625,0.0299731884765625,0.8112421826171875
-0.21023783203125002,0.0054641552734375,0.7117067089843749
-0.0976619140625,0.018699033203125,0.737266435546875
-0.24865466796875,-0.0072805419921875,0.9901602685546875
-0.35417939453125,-0.01634888427734375,1.237155703125
-0.36730919921875,0.00865032958984375,1.2482152001953124
-0.39818855468750003,0.09051050048828126,1.1980788134765625
-0.28391062499999997,0.0789912548828125,0.968287041015625
-0.24695265625,0.01747358154296875,0.876861865234375
-0.33472783203125,0.16011615478515626,0.93928658203125
-0.2630001953125,0.06281529296875,0.97369390625
-0.30457791015625,-0.03840701416015625,0.9257694189453125
-0.244034921875,0.01453249755859375,1.002694365234375
-0.20537494140625,-0.03546593017578125,1.0226014599609374
-0.26518849609375,-0.0175743359375,1.0009739990234374
-0.38432931640625,0.014777587890624999,0.8815314306640625
-0.2921775390625,-0.0018885546875000003,0.8662939013671875
-0.34931650390625,0.04737460205078125,0.8928366943359375
-0.34639876953125,0.08119706787109375,1.003677431640625
-0.30652306640625,0.02139502685546875,1.032677890625
-0.3038484765625,0.024091020507812498,1.084288876953125
-0.30457791015625,0.0780108935546875,1.17325638671875
-0.35588140625,0.00178780029296875,1.117713134765625
-0.36341888671875,0.07727562255859374,1.095594140625
-0.3583128515625,0.07286399658203124,0.9577190771484375
-0.2873146484375,0.00178780029296875,0.758893896484375
-0.2746711328125,-0.01585870361328125,0.693028447265625
-0.29096181640625,-0.00360418701171875,0.574077412109375
-0.23139140625,-0.02321141357421875,0.4897794677734375
-0.22044990234375,-0.045024453125,0.47626230468749997
-0.21193984375,0.0829127001953125,0.5271359912109375
-0.15674603515625,0.06894255126953125,0.5782554443359375
-0.2027003515625,0.03806116943359375,0.812471015625
-0.30360533203125,0.1789881103515625,1.1710444873046875
-0.35515197265625,0.22138873779296875,1.3401319091796875
-0.3213548828125,0.24589777099609375,1.3966582275390624
-0.23917203125,0.27775951416015626,1.382157998046875
-0.24622322265625,0.0897752294921875,1.2270792724609374
-0.34153587890625,0.10227483642578125,1.2354353369140625
-0.358799140625,0.09443194580078125,1.1931634814453125
-0.39648654296875,0.1338914892578125,1.0815854443359374
-0.33618669921875,0.08242251953125,0.9193794873046874
-0.30919765625,0.0123266845703125,0.8186151806640625
-0.39454138671875,-0.04379900146484375,0.7714279931640625
-0.33618669921875,-0.0837487255859375,0.664519521484375
-0.17303671874999998,-0.02272123291015625,0.5340174560546875
-0.20926525390625,-0.014633251953124999,0.4927286669921875
-0.2571647265625,0.03315936279296875,0.624213798828125
-0.22701480468750002,0.04590406005859375,0.83114927734375
-0.38919220703125,0.116735166015625,1.1911973486328125
-0.41691068359375,0.16085142578125,1.4099296240234376
-0.33910443359375,0.13168567626953126,1.3524202392578124
-0.316005703125,-0.0082609033203125,1.24993556640625
-0.21753216796875,0.11403917236328125,1.2226554736328126
-0.38287044921875,-0.079337099609375,1.1263149658203124
-0.257651015625,-0.023456503906250002,0.986965302734375
-0.24865466796875,0.019679394531249998,0.77019916015625
-0.207076953125,-0.03644629150390625,0.7699533935546875
-0.22920310546875,7.216796875000007e-05,0.9174133544921875
-0.370470078125,0.0064445166015625,1.1287726318359375
-0.415208671875,0.12041152099609376,1.2609950634765625
-0.35369310546875,0.10962754638671875,1.2575543310546875
-0.29825615234375,0.1280093212890625,1.1504000927734375
-0.247925234375,0.0436982470703125,1.072492080078125
-0.2464663671875,-0.02076051025390625,1.0914161083984375
-0.37022693359375003,-0.06095532470703125,0.677299384765625
-0.18932740234375,-0.1023755908203125,0.5812046435546875
-0.138996484375,-0.06585713134765625,0.545076953125
-0.2591098828125,0.04786478271484375,0.6387140283203125
-0.2678630859375,0.114774443359375,0.7945300537109374
-0.2843969140625,0.07286399658203124,0.90193005859375
-0.26421591796875,0.0838930615234375,0.928964384765625
-0.308225078125,0.23413343505859374,1.0289913916015625
-0.2639727734375,0.2868278564453125,1.0815854443359374
-0.2688356640625,0.2875631274414063,1.1916888818359375
-0.37581925781250003,0.1760470263671875,1.26566462890625
-0.27005138671875,0.05105095703125,1.3027753857421875
-0.23795630859375,-0.0371815625,1.1720275537109375
-0.25449013671875,0.00399361328125,0.967303974609375
-0.36244630859375,0.057668395996093746,0.9572275439453125
-0.2523018359375,0.080461796875,0.9306847509765624
-0.4438997265625,0.02531647216796875,0.7876485888671875
-0.33910443359375,0.179478291015625,0.8481071728515625
-0.206104375,0.0976181201171875,0.8431918408203125
-0.14191421875,0.15962597412109375,1.03169482421875
-0.2328502734375,0.10619628173828125,1.1690783544921874
-0.28196546875,0.210849853515625,1.2885209228515624
-0.34056330078125,0.199085517578125,1.1331964306640625
-0.40572603515625,0.07090327392578125,1.0825685107421874
-0.38700390625000003,0.1123235400390625,1.090187275390625
-0.3126016796875,-0.08007237060546875,1.0211268603515624
-0.38043900390625,-0.01487834228515625,0.904387724609375
-0.1521262890625,0.11060790771484375,0.82328474609375
-0.2503566796875,-0.08546435791015625,0.771673759765625
-0.14361623046875,0.09443194580078125,0.8535140380859375
-0.28561263671875,0.04394333740234375,1.052830751953125
-0.38043900390625,0.14197947021484375,1.208155244140625
-0.4380642578125,0.2005560595703125,1.199307646484375
-0.423961875,0.1270289599609375,0.981066904296875
-0.2386857421875,0.15472416748046874,0.85081060546875
-0.31138595703125,0.0486000537109375,0.88423486328125
-0.23114826171875,0.0613447509765625,0.9110234228515625
-0.2649453515625,-0.04281864013671875,0.8422087744140625
-0.33229638671875,0.06796218994140625,0.93437125
-0.399647421875,-0.0729647509765625,0.8633447021484375
-0.1793584765625,-0.02468195556640625,0.846386806640625
-0.10130908203125,0.12433296630859375,1.0732293798828125
-0.25643529296875,0.03315936279296875,1.2580458642578125
-0.3694975,0.208889130859375,1.2548508984375
-0.2250696484375,0.0946770361328125,1.0339067236328126
-0.25838044921875,0.22383964111328125,1.0112961962890625
-0.25983931640625,0.252025029296875,0.9867195361328125
-0.36196001953125,0.15521434814453125,1.1705529541015625
-0.483289140625,0.15717507080078125,1.28335982421875
-0.463837578125,0.03364954345703125,1.00810123046875
-0.0855046875,0.1701648583984375,0.7881401220703125
-0.103983671875,0.0574233056640625,0.6947488134765625
-0.1375376171875,0.02286556884765625,0.8225474462890625
-0.3126016796875,0.15276344482421875,1.009575830078125
-0.3485870703125,0.11796061767578125,1.2595204638671875
-0.3456693359375,0.12531332763671876,1.301546552734375
-0.47575166015625,0.169674677734375,1.1553154248046875
-0.28658521484375,0.26011301025390626,0.90782845703125
-0.25862359375,0.1966346142578125,0.6686975537109375
-0.21558701171875,0.21844765380859374,0.741198701171875
-0.2260422265625,0.08364797119140625,0.843437607421875
-0.21266927734375,-0.0288484912109375,1.2391218359375
-0.29339326171875,-0.09281706787109376,1.334970810546875
-0.41447923828125,-0.14085477294921875,1.1272980322265624
-0.20026890625,-0.0175743359375,0.7763433251953125
-0.33181009765625,-0.0298288525390625,0.5706366796875
-0.26810623046875,0.0486000537109375,0.471838505859375
-0.1589343359375,0.1446754638671875,0.669434853515625
-0.30652306640625,0.189281904296875,0.8780906982421874
-0.27491427734375,0.0995788427734375,1.159984990234375
-0.29193439453125003,-0.008751083984375,1.217494375
-0.378250703125,0.146146005859375,1.1607222900390626
-0.33667298828125003,0.05080586669921875,0.9596852099609375
-0.31722142578125,0.12090170166015625,0.8422087744140625
-0.37849384765625,0.1260485986328125,0.7768348583984375
-0.1958923046875,0.07041309326171875,0.777080625
-0.125380390625,0.009140510253906251,0.7672499609375
-0.29631099609375,0.0917359521484375,0.749554765625
-0.24379177734375002,0.06109966064453125,0.868997333984375
-0.2980130078125,0.0799716162109375,1.0130165625
-0.33108066406250003,0.1838899169921875,1.1528577587890625
-0.34639876953125,0.29932746337890626,1.232731904296875
-0.317950859375,0.212810576171875,1.229291171875
-0.36876806640625,0.07923634521484375,1.06315294921875
-0.25303126953125,0.14737145751953126,0.93338818359375
-0.044170117187499996,0.127519140625,0.996795966796875
-0.39818855468750003,0.15619470947265626,1.243545634765625
-0.3485870703125,0.0765403515625,1.30302115234375
-0.46164927734375,-0.04379900146484375,1.1238572998046874
-0.4682141796875,0.00178780029296875,0.83901380859375
-0.37071322265625,0.0397768017578125,0.5871030419921874
-0.13145900390625,-0.069533486328125,0.448244912109375
-0.18349193359375,-0.037916833496093746,0.4096595556640625
-0.17376615234375,-0.0308092138671875,0.537212421875
-0.3038484765625,0.106931552734375,0.867522734375
-0.48645001953125,0.10962754638671875,1.1287726318359375
-0.37581925781250003,0.07433453857421875,1.0343982568359376
-0.352963671875,0.07580508056640625,1.14376439453125
-0.21996361328125,0.02776737548828125,1.01006736328125
-0.0030786914062500004,-0.05311243408203125,1.079865078125
-0.47404964843749997,0.0358553564453125,1.16932412109375
-0.62601498046875,0.07482471923828125,1.1892312158203124
-0.38287044921875,0.069677822265625,0.854251337890625
-0.3544225390625,0.07972652587890625,0.7279273046875
-0.2065906640625,0.00423870361328125,0.715638974609375
-0.10325423828125,0.06551128662109375,0.8304119775390625
-0.310170234375,0.18560554931640624,0.8520394384765625
-0.3077387890625,0.15962597412109375,0.8267254785156251
-0.32475890625,0.2162418408203125,0.9872110693359375
-0.2698082421875,0.17874302001953124,1.2123332763671875
-0.244034921875,-0.02027032958984375,1.3416065087890625
-0.47866939453125,0.1392834765625,1.3479964404296876
-0.413263515625,0.1231075146484375,1.14376439453125
-0.3942982421875,0.0035034326171875,0.7989538525390625
-0.4302836328125,-0.0055649096679687505,0.6849181494140625
-0.224583359375,-0.03742665283203125,0.592755673828125
-0.1637972265625,-0.0646316796875,0.49616939941406246
-0.08963814453125,-0.1425704052734375,0.4745419384765625
-0.09790505859375,-0.14134495361328125,0.43423621582031247
-0.1307295703125,-0.17712814208984376,0.3976169921875
-0.18227621093750002,-0.20163717529296876,0.469872373046875
-0.23601115234375,-0.24281235107421875,0.621264599609375
-0.1511537109375,0.01845394287109375,0.938795048828125
-0.25254498046875,0.3037390893554687,1.394446328125
-0.39818855468750003,0.5542214086914062,1.8093003515625
-0.50930560546875,0.5958867651367188,1.8623859375
-0.43830740234375,0.5762795385742188,1.7343415380859375
-0.5625542578125,0.39050106689453123,1.4359808837890624
-0.34493990234375,-0.0055649096679687505,1.12803533203125
-0.15869119140625,-0.1004148681640625,1.0255506591796875
-0.296554140625,-0.048455717773437504,0.7861739892578125
-0.34591248046875,0.063795654296875,0.6709094531249999
-0.13145900390625,-0.10016977783203125,0.8363103759765624
-0.46529644531250003,-0.0013983740234375002,1.1882481494140624
-0.6072928515625,0.242221416015625,1.3912513623046876
-0.29509527343749997,0.27383806884765627,1.480464638671875
-0.55501677734375,0.35373751708984374,1.560093017578125
-0.7191393359375,0.20619313720703125,1.3568440380859375
-0.33424154296874997,-0.07075893798828126,1.1941465478515625
-0.27637314453125,-0.26241957763671875,0.8694888671875
-0.27418484375,-0.169530341796875,0.5723570458984375
-0.12343523437500001,-0.16291290283203125,0.46520280761718746
-0.13194529296875,-0.23693018310546876,0.661570322265625
-0.4244481640625,-0.12761989501953125,0.9363373828125
-0.4356328125,0.0780108935546875,1.1980788134765625
-0.477453671875,0.008405239257812499,1.4713712744140626
-0.62650126953125,0.09002031982421875,1.3563525048828124
-0.24476435546875,0.150067451171875,1.1125520361328125
-0.11322316406249999,0.0436982470703125,0.928964384765625
-0.3155194140625,0.10276501708984374,0.8970147265625
-0.3816547265625,-0.13448242431640625,0.91372685546875
-0.26032560546875,-0.18497103271484375,1.045949287109375
-0.4186126953125,0.05129604736328125,0.9292101513671875
-0.33764556640625,-0.08301345458984374,0.6898334814453125
-0.08477525390625,-0.05458297607421875,0.56178908203125
-0.28707150390625,0.00816014892578125,0.4479991455078125
-0.27807515625,0.03266918212890625,0.33052270996093747
-0.037848359375,-0.02713285888671875,0.354853603515625
-0.004780703125000001,-0.09281706787109376,0.4094137890625
-0.01280447265625,-0.12909043701171874,0.6357648291015625
0.03485185546875,-0.0396324658203125,1.07888201171875
0.06646064453125,0.10178465576171875,1.575822080078125
-0.22288134765625,0.41157883544921875,2.129718558349609
-0.5858961328125,0.3581491430664063,2.129718558349609
-0.72424537109375,0.40030468017578125,1.8476399414062499
-0.60996744140625,0.3495709814453125,1.2784444921875
-0.4390368359375,0.267710810546875,0.9936010009765625
-0.1307295703125,0.2976118310546875,0.875387265625
-0.121490078125,0.1652630517578125,0.738249501953125
-0.23528171875,0.01404231689453125,0.6669771875
-0.4098594921875,0.05668803466796875,0.562280615234375
-0.43247193359375,0.04541387939453125,0.4917456005859375
-0.36341888671875,0.0868341455078125,0.43005818359375
-0.04538583984375,0.17653720703125,0.793301220703125
-0.22823052734375,0.20178151123046875,1.2821309912109375
-0.65373345703125,0.19246807861328125,1.3047415185546876
-0.47842625,0.0255615625,1.0633987158203124
-0.2853694921875,-0.24232217041015625,0.8871840625
-0.27637314453125,-0.19967645263671874,0.830657744140625
-0.16501294921875,-0.21952876953125,1.1100943701171875
-0.29509527343749997,-0.21928367919921876,1.3177671484375
-0.43247193359375,-0.03742665283203125,1.2103671435546874
-0.25838044921875,-0.1822750390625,0.9164302880859375
-0.29485212890625,-0.12320826904296875,0.7286646044921875
-0.25473328125,0.0843832421875,0.5939845068359375
-0.18495080078125,-0.05164189208984375,0.4814234033203125
-0.1385101953125,0.01208159423828125,0.56178908203125
-0.28220861328125,0.05080586669921875,0.694994580078125
-0.3524773828125,0.034384814453125,0.7881401220703125
-0.24622322265625,0.0436982470703125,1.0235845263671874
-0.44997833984375,-0.05752406005859375,1.1223827001953124
-0.40086314453125,0.08119706787109375,1.215036708984375
-0.423961875,0.1025199267578125,1.307936484375
-0.3816547265625,0.2201632861328125,1.0368559228515626
-0.38919220703125,0.12384278564453124,0.87931953125
-0.29290697265625,0.069677822265625,0.76430076171875
-0.25303126953125,0.09884357177734375,0.6610787890625
-0.1637972265625,0.11452935302734375,0.5726028125
-0.16598552734375,0.1299700439453125,0.617332333984375
-0.2099946875,0.095167216796875,0.745130966796875
-0.257651015625,0.09051050048828126,1.0702801806640625
-0.64741169921875,0.13658748291015624,1.3298097119140624
-0.6403605078125,0.29148457275390627,1.2501813330078124
-0.4526529296875,0.12727405029296876,0.8884128955078126
-0.32402947265625,0.20864404052734375,0.9233117529296875
-0.28561263671875,0.08168724853515624,0.820827080078125
-0.25303126953125,0.0922261328125,0.8761245654296875
-0.36147373046875,0.10031411376953125,0.9002096923828125
-0.2299325390625,-0.004829638671875,0.8082929833984375
-0.10908970703125,-0.004829638671875,0.88816712890625
-0.185680234375,-0.1562954638671875,0.88226873046875
-0.24525064453125,-0.0562986083984375,0.8893959619140624
-0.2416034765625,-0.0778665576171875,0.9599309765625
-0.3563676953125,-0.0406128271484375,0.932896650390625
-0.28755779296875,0.03610044677734375,1.087238076171875
-0.37533296875,0.09345158447265625,1.230765771484375
-0.51708623046875,0.07923634521484375,1.1951296142578125
-0.25935302734375,0.03168882080078125,1.1376202294921876
-0.346155625,-0.02517213623046875,1.1155012353515625
-0.2644590625,-0.0013983740234375002,0.9638632421875
-0.18470765625,-0.03742665283203125,0.8360646093749999
-0.2289599609375,-0.02223105224609375,0.8377849755859375
-0.1647698046875,-0.108747939453125,0.824759345703125
-0.29047552734375,-0.0406128271484375,0.8240220458984375
-0.26907880859375,0.04296297607421875,0.7999369189453125
-0.31722142578125,-0.00262382568359375,0.6991726123046875
-0.2445212109375,0.05815857666015625,0.7571735302734375
-0.29047552734375,0.15570452880859376,0.8498275390625
-0.2454937890625,0.09345158447265625,0.9080742236328125
-0.26664736328125,0.206928408203125,1.0668394482421875
-0.2892598046875,0.1368325732421875,1.172764853515625
-0.3811684375,0.07457962890625,1.249444033203125
-0.3330258203125,0.1392834765625,1.3278435791015626
-0.30530734375,0.1691844970703125,1.276969892578125
-0.32208431640625,0.04100225341796875,1.126560732421875
-0.14604767578125,0.0486000537109375,1.076424345703125
-0.32475890625,0.13560712158203125,1.0904330419921875
-0.27248283203125,-0.0710040283203125,1.031203291015625
-0.27394169921875,0.030708459472656248,1.037101689453125
-0.3339983984375,-0.028358310546875,0.9719735400390626
-0.2678630859375,0.0025230712890624996,0.9611598095703124
-0.33375525390625,0.00276816162109375,0.9007012255859375
-0.271267109375,0.04639424072265625,1.0127707958984375
-0.30846822265625,0.09737302978515625,1.217494375
-0.35199109375,0.010611052246093749,1.21847744140625
-0.37752126953125,-0.00777072265625,1.16735798828125
-0.30530734375,-0.0190448779296875,1.132459130859375
-0.3904079296875,0.057668395996093746,1.031203291015625
-0.36293259765625,-0.063651318359375,0.8923451611328125
-0.2707808203125,0.00987578125,0.843437607421875
-0.24281919921875,-0.07370002197265625,0.79969115234375
-0.26761994140625,-0.09820905517578125,0.82328474609375
-0.2377131640625,0.018699033203125,0.997779033203125
-0.331566953125,0.05129604736328125,1.0346440234375
-0.43879369140625,-0.01634888427734375,0.9292101513671875
-0.32208431640625,0.0652661962890625,0.93437125
-0.3116291015625,-0.0072805419921875,0.9473968798828125
-0.45240978515625,-0.04428918212890625,0.9626344091796875
-0.4040240234375,0.03413972412109375,0.977626171875
-0.37314466796875,-0.1082577587890625,0.8412257080078125
-0.244034921875,0.07972652587890625,0.910286123046875
-0.33278267578125,-0.00850599365234375,0.8520394384765625
-0.2707808203125,-0.05997496337890625,0.8242678125
-0.28512634765625,0.0417375244140625,0.8087845166015625
-0.30214646484375,0.02580665283203125,0.80755568359375
-0.2211793359375,-0.03522083984375,0.7709364599609375
-0.28196546875,0.04884514404296875,0.9257694189453125
-0.39210994140625,0.05913893798828125,1.0108046630859375
-0.45921783203125,0.07335417724609375,0.9832788037109375
-0.36974064453125,0.03315936279296875,0.87047193359375
-0.31527626953125,0.028502646484374998,0.790352021484375
-0.1988100390625,-0.023456503906250002,0.8004284521484375
-0.28998923828125,-0.0994345068359375,0.9621428759765625
-0.191515703125,0.026296833496093748,1.0346440234375
-0.3923530859375,-0.023456503906250002,1.022355693359375
-0.430769921875,-0.0504164404296875,0.996795966796875
-0.18057419921875,0.0574233056640625,0.9424815478515625
-0.31089966796875,-0.04698517578125,0.8485987060546875
-0.31770771484375,-0.07173929931640625,0.957473310546875
-0.205131796875,0.00276816162109375,0.964354775390625
-0.29509527343749997,-0.1180613720703125,0.7556989306640625
-0.25886673828125,-0.037916833496093746,0.7670041943359375
-0.298499296875,0.0731090869140625,0.8033776513671875
-0.36098744140625,-0.08423890625,0.85277673828125
-0.2678630859375,-0.01291761962890625,1.0270252587890625
-0.284883203125,0.03855135009765625,1.1602307568359376
-0.48207341796875003,-0.0406128271484375,1.164900322265625
-0.3339983984375,0.016738310546875,1.1469593603515624
-0.23601115234375,-0.02419177490234375,0.9820499707031249
-0.337402421875,-0.1366882373046875,0.915201455078125
-0.25692158203125,-0.0337502978515625,1.0019570654296874
-0.2182616015625,0.00423870361328125,0.9587021435546875
-0.2644590625,-0.11757119140625,0.859658203125
-0.378250703125,-0.16928525146484374,0.9048792578125
-0.16744439453124998,-0.1210024560546875,0.9567360107421875
-0.2814791796875,-0.03693647216796875,1.0599579833984376
-0.4186126953125,-0.14477621826171874,1.1211538671875
-0.30895451171875,0.06355056396484375,0.9960586669921875
-0.38043900390625,-0.1464918505859375,0.848352939453125
-0.27515742187500003,0.0750698095703125,1.02972869140625
-0.23114826171875,-0.0425735498046875,1.02579642578125
-0.33035123046875,-0.07443529296875,1.1010010058593749
-0.22871681640625,0.06649164794921875,1.1132893359375
-0.4166675390625,-0.044534272460937496,1.015474228515625
-0.27977716796875,-0.06193568603515625,0.950591845703125
-0.20440236328125,-0.14085477294921875,0.7792925244140625
-0.32889236328125,-0.13693332763671875,0.802148818359375
-0.2610550390625,-0.11585555908203125,0.8191067138671875
-0.30263275390625,-0.17712814208984376,0.8446664404296875
-0.4434134375,-0.11193411376953125,0.9341254833984375
-0.2231244921875,-0.00458454833984375,1.0378389892578126
-0.41934212890625,0.020659755859375,1.0444746875
-0.2775888671875,0.07678544189453125,1.0393135888671874
-0.36876806640625,0.07335417724609375,1.002694365234375
-0.34104958984375,-0.0371815625,0.9685328076171875
-0.327676640625,0.03610044677734375,1.0019570654296874
-0.26178447265625,0.0152677685546875,0.977626171875
-0.25108611328125,-0.0847290869140625,0.8515479052734375
-0.3262177734375,-0.0612004150390625,0.94321884765625
-0.323786328125,-0.08497417724609375,0.9609140429687499
-0.33424154296874997,-0.0788469189453125,0.9085657568359375
-0.22944625,0.07825598388671876,0.9695158740234375
-0.35320681640625,-0.0411030078125,1.0466865869140625
-0.28464005859375,0.03315936279296875,1.1329506640625
-0.38311359375,0.0069346972656249995,1.1548238916015625
-0.49714837890625,-0.05213207275390625,1.1194335009765626
-0.32402947265625,-0.00997653564453125,1.0184234277343749
-0.31746457031249997,-0.12271808837890624,0.7979707861328125
-0.20683380859375,-0.05458297607421875,0.668451787109375
-0.059245078125,-0.09012107421875,0.67779091796875
-0.29485212890625,-0.21683277587890626,0.7905977880859375
-0.304334765625,-0.0592396923828125,0.96681244140625
-0.31381740234375,0.01012087158203125,1.0545511181640626
-0.36366203125,-0.08399381591796876,1.1037044384765624
-0.25059982421875,0.01845394287109375,1.17817171875
-0.47648109375000003,0.1338914892578125,1.1835785839843749
-0.458002109375,0.0211499365234375,1.127543798828125
-0.35563826171875,-0.08693489990234375,1.0245675927734375
-0.361716875,-0.0631611376953125,0.9041419580078125
-0.25400384765625,-0.1200220947265625,0.7842078564453125
-0.20804953125,-0.19232374267578126,0.6964691796875
-0.206104375,-0.15065838623046876,0.730384970703125
-0.21218298828125,-0.17663796142578125,0.82918314453125
-0.31916658203125,-0.0023787353515625003,1.0943653076171875
-0.35588140625,0.009140510253906251,1.176697119140625
-0.42663646484375,-0.0033590966796874996,1.1700614208984375
-0.37898013671874997,0.1084020947265625,1.1410609619140626
-0.34153587890625,-0.0028689160156250004,1.094119541015625
-0.4176401171875,-0.0063001806640625,1.1312302978515625
-0.33375525390625,-0.0332601171875,0.97860923828125
-0.321841171875,-0.12565917236328125,0.8864467626953125
-0.28512634765625,-0.14918784423828124,0.8761245654296875
-0.2513292578125,-0.08889562255859375,0.8431918408203125
-0.19564916015625,-0.0651218603515625,0.8775991650390624
-0.24622322265625,-0.1719812451171875,0.8026403515625
-0.300444453125,-0.1043363134765625,0.9397781152343749
-0.2454937890625,-0.08301345458984374,0.92159138671875
-0.18786853515625002,-0.1298257080078125,0.9459222802734375
-0.33375525390625,-0.048455717773437504,1.099034873046875
-0.38724705078125,0.02335574951171875,1.1523662255859375
-0.2960678515625,-0.046004814453125,1.12017080078125
-0.362689453125,-0.0219859619140625,1.0582376171875
-0.42590703125,0.04933532470703125,1.0938737744140625
-0.30141703125,-0.05850442138671875,0.9788550048828125
-0.360744296875,-0.0651218603515625,0.7822417236328125
-0.22385392578125,-0.03889719482421875,0.6834435498046875
-0.222638203125,-0.13546278564453124,0.6863927490234375
-0.32743349609375,-0.13105115966796876,0.7242408056640625
-0.2513292578125,-0.02027032958984375,0.7375122021484375
-0.2882872265625,-0.14330567626953125,0.8707177001953125
-0.12635296875,-0.02958376220703125,1.16342572265625
-0.39989056640625,0.04198261474609375,1.3686408349609376
-0.58857072265625,-0.08252327392578125,1.3563525048828124
-0.41836955078125,-0.081297822265625,1.084288876953125
-0.28196546875,-0.12933552734375,0.908319990234375
-0.29533841796875,-0.20653898193359374,0.8997181591796874
-0.3242726171875,-0.16854998046875,0.84687833984375
-0.2445212109375,-0.19183356201171875,0.7928096875
-0.3233000390625,-0.0886505322265625,0.770690693359375
-0.22701480468750002,-0.1837455810546875,0.7515208984375
-0.29339326171875,-0.14281549560546875,1.0058893310546875
-0.38505875,0.0397768017578125,1.1258234326171874
-0.36487775390625,0.03413972412109375,0.9734481396484375
-0.19467658203125,-0.04698517578125,0.9444476806640625
-0.36730919921875,-0.01561361328125,1.02579642578125
-0.37995271484375,-0.02615249755859375,1.07494974609375
-0.4278521875,-0.11242429443359375,1.0196522607421874
-0.3369161328125,-0.06193568603515625,0.9631259423828125
-0.35855599609375,-0.09624833251953124,0.86064126953125
-0.27491427734375,-0.05482806640625,0.9196252539062499
-0.28220861328125,-0.12541408203125,0.889641728515625
-0.39697283203125,-0.1945295556640625,0.8834975634765625
-0.28950294921874997,-0.0964934228515625,0.9292101513671875
-0.2800203125,-0.085219267578125,0.7704449267578125
-0.1511537109375,-0.08203309326171875,0.8166490478515624
-0.35515197265625,-0.05115171142578125,1.0068723974609375
-0.42177357421875,-0.08399381591796876,1.140323662109375
-0.3563676953125,-0.061690595703125004,1.09854333984375
-0.33229638671875,0.0044837939453125,1.043983154296875
-0.280992890625,-0.0646316796875,0.9188879541015624
-0.352963671875,-0.07026875732421875,0.91372685546875
-0.2347954296875,-0.0406128271484375,1.0329236572265625
-0.36293259765625,-0.13399224365234375,0.951574912109375
-0.280992890625,-0.13301188232421876,0.993846767578125
-0.30506419921875,-0.046740085449218746,1.01006736328125
-0.30627992187499997,-0.1974706396484375,0.95501564453125
-0.25108611328125,-0.07811164794921875,0.973202373046875
-0.2722396875,-0.0994345068359375,0.9469053466796875
-0.3301080859375,-0.04330882080078125,0.9513291455078126
-0.29776986328125,-0.12909043701171874,0.9061080908203125
-0.279047734375,-0.02076051025390625,0.9793465380859375
-0.26859251953125,0.0035034326171875,1.0643817822265624
-0.333512109375,-0.149923115234375,1.040542421875
-0.372415234375,-0.0053198193359375,1.0751955126953125
-0.33813185546875,-0.06340622802734375,0.9056165576171875
-0.3344846875,-0.10801266845703125,0.818860947265625
-0.11541146484375,-0.18742193603515625,0.900455458984375
-0.28634207031250003,-0.17075579345703126,1.040542421875
-0.38287044921875,-0.13546278564453124,0.984999169921875
-0.3203823046875,-0.157766005859375,0.9402696484374999
-0.28318119140625,-0.00605509033203125,0.9478884130859375
-0.26227076171875,-0.1288453466796875,0.8525309716796875
-0.185680234375,-0.03252484619140625,0.9763973388671875
-0.3476144921875,0.01845394287109375,0.9665666748046875
-0.3378887109375,0.033404453125,1.0240760595703124
-0.300444453125,-0.1121792041015625,0.93142205078125
-0.4575158203125,0.017718671875,0.937811982421875
-0.12951384765625001,-0.107767578125,0.8820229638671875
-0.30311904296875003,-0.132276611328125,0.8623616357421875
-0.35588140625,-0.037916833496093746,0.938795048828125
-0.21023783203125002,-0.22467566650390625,0.97074470703125
-0.34688505859375,-0.11977700439453125,1.102967138671875
-0.40523974609375,-0.04723026611328125,1.0506188525390625
-0.17376615234375,-0.15899145751953125,0.823776279296875
-0.21899103515625,-0.03938737548828125,0.6768078515625
-0.2036729296875,-0.02223105224609375,0.7375122021484375
-0.15480087890625,0.0030132519531249997,0.827708544921875
-0.296554140625,0.0358553564453125,1.05528841796875
-0.43004048828125,0.0270321044921875,1.1302472314453125
-0.339347578125,-0.008751083984375,1.0624156494140624
-0.29096181640625,-0.04379900146484375,1.0692971142578125
-0.28220861328125,-0.1474722119140625,1.051847685546875
-0.47672423828125,-0.11585555908203125,1.0373474560546876
-0.36585033203125,-0.02664267822265625,0.875387265625
-0.25983931640625,-0.00262382568359375,0.707774443359375
-0.30068759765624997,0.1407540185546875,0.69351998046875
-0.24865466796875,0.07457962890625,0.8166490478515624
-0.2464663671875,-0.012672529296875,0.8643277685546875
-0.17692703125,0.0466393310546875,0.8510563720703125
-0.19078626953125,-0.05213207275390625,0.984016103515625
-0.29776986328125,-0.13546278564453124,1.09067880859375
-0.4643238671875,-0.0945327001953125,1.1764513525390625
-0.49568951171875,-0.20751934326171875,1.13589986328125
-0.458002109375,-0.15114856689453124,1.030220224609375
-0.42712275390625,-0.1504132958984375,0.8594124365234375
-0.21607330078125,-0.0406128271484375,0.846386806640625
-0.26178447265625,-0.15801109619140624,0.8697346337890625
-0.29728357421875,-0.06683749267578125,0.91569298828125
-0.19953947265625,-0.046740085449218746,0.91765912109375
-0.2800203125,-0.01487834228515625,0.8943112939453125
-0.292663828125,0.02874773681640625,0.8989808593749999
-0.24816837890625,0.0123266845703125,0.844420673828125
-0.267376796875,-0.0803174609375,0.8363103759765624
-0.33813185546875,-0.09379742919921875,0.9390408154296875
-0.2027003515625,-0.15310928955078124,1.0869923095703125
-0.3252451953125,-0.10262068115234375,1.2560797314453125
-0.40621232421875,0.0427178857421875,1.4192687548828125
-0.47769681640625,0.02139502685546875,1.3465218408203126
-0.55696193359375,0.026541923828125,1.1644087890625
-0.4361191015625,0.13168567626953126,0.9473968798828125
-0.21996361328125,0.0451687890625,0.79379275390625
-0.22142248046875002,-0.067572763671875,0.784453623046875
-0.2454937890625,-0.07762146728515625,0.7635634619140625
-0.203186640625,0.026051743164062502,0.7094948095703125
-0.255705859375,0.02482629150390625,0.6296206640625
-0.17473873046875,-0.085219267578125,0.702859111328125
-0.25084296875,0.00178780029296875,1.0206353271484374
-0.24379177734375002,-0.12320826904296875,1.309411083984375
-0.26154132812499997,-0.028113220214843748,1.58221201171875
-0.43757796875,0.0966377587890625,1.3912513623046876
-0.483289140625,-0.0817880029296875,1.1135351025390625
-0.44073884765625,-0.1092381201171875,1.00023669921875
-0.44535859375,-0.05311243408203125,0.936828916015625
-0.28658521484375,-0.023456503906250002,0.8567090039062499
-0.2240970703125,-0.124433720703125,0.668451787109375
-0.06240595703125,-0.08399381591796876,0.59619640625
-0.10714455078125,-0.1406096826171875,0.6642737548828125
-0.16185207031249998,-0.2190385888671875,0.8023945849609375
-0.2503566796875,-0.217568046875,1.0609410498046874
-0.2698082421875,-0.03154448486328125,1.2351895703125
-0.376305546875,-0.055808427734375,1.084288876953125
-0.2163164453125,0.075559990234375,0.95501564453125
-0.35515197265625,0.0338946337890625,0.9228202197265625
-0.34542619140624997,0.1201664306640625,1.0987891064453126
-0.4837754296875,0.1633023291015625,1.1577730908203125
-0.3267040625,0.1534987158203125,1.2693511279296874
-0.26154132812499997,0.09026541015625,1.2251131396484376
-0.251815546875,0.0544822216796875,1.1548238916015625
-0.2027003515625,0.0387964404296875,1.1386032958984376
-0.2250696484375,-0.1170810107421875,1.027271025390625
-0.27199654296875,-0.03252484619140625,1.02579642578125
-0.213885,-0.1180613720703125,0.9695158740234375
-0.430769921875,-0.02027032958984375,0.9051250244140625
-0.20342978515625,-0.032279755859375,0.93732044921875
-0.37314466796875,-0.0200252392578125,0.894557060546875
-0.30409162109375,0.08854977783203125,0.8741584326171875
-0.20099833984375,0.1868310009765625,0.98843990234375
-0.286828359375,0.22089855712890624,1.1567900244140625
-0.31916658203125,0.05105095703125,1.3455387744140626
-0.5343494921875,0.181439013671875,1.3396403759765625
-0.3349709765625,0.0995788427734375,1.125577666015625
-0.419098984375,-0.08644471923828125,0.9744312060546875
-0.0636216796875,-0.10507158447265624,0.83704767578125
-0.02058509765625,-0.02223105224609375,0.8166490478515624
-0.34810078125,-0.052867343750000004,0.78199595703125
-0.39089421875,-0.087179990234375,0.75250396484375
-0.21583015625000002,0.02531647216796875,0.7866655224609375
-0.2688356640625,0.0505607763671875,0.7758517919921875
-0.33521412109375,-0.0562986083984375,0.8078014501953125
-0.23455228515625,0.0270321044921875,0.9449392138671875
-0.3427516015625,0.08805959716796875,0.9596852099609375
-0.31673513671875,-0.0092412646484375,0.9478884130859375
-0.3267040625,0.1387932958984375,1.064136015625
-0.242089765625,-0.02860340087890625,1.1007552392578126
-0.17571130859375,0.12972495361328126,1.1631799560546874
-0.269321953125,0.06600146728515625,1.03562708984375
-0.20026890625,-0.00213364501953125,1.0503730859375
-0.31041337890625,0.17923320068359375,1.022355693359375
-0.2649453515625,0.0446786083984375,0.9587021435546875
-0.28464005859375,-0.030319033203124998,0.9321593505859375
-0.2099946875,-0.0523771630859375,1.0031858984375
-0.34104958984375,0.0054641552734375,1.0464408203125
-0.3359435546875,-0.07051384765625,0.930438984375
-0.30652306640625,0.0417375244140625,0.9065996240234375
-0.296554140625,0.1466361865234375,0.9616513427734374
-0.30506419921875,-0.014633251953124999,0.9700074072265625
-0.356853984375,0.07261890625,1.0110504296875
-0.2202067578125,0.01257177490234375,1.040050888671875
-0.29387955078125,-0.044534272460937496,0.9874568359375
-0.20634751953125,0.0373258984375,0.9321593505859375
-0.195406015625,-0.0847290869140625,0.867522734375
-0.29752671875000003,0.0012976196289062499,0.924049052734375
-0.2921775390625,0.07384435791015626,0.8436833740234375
-0.26859251953125,0.0701680029296875,0.73480876953125
-0.24233291015625,0.19099753662109376,0.893573994140625
-0.13437673828125,0.00472888427734375,0.9223286865234375
-0.18981369140625,-0.05360261474609375,1.0417712548828124
-0.52194912109375,0.023845930175781252,1.151137392578125
-0.56133853515625,-0.16144236083984376,0.907336923828125
-0.16355408203125,-0.052867343750000004,0.6426462939453125
-0.236254296875,-0.01291761962890625,0.5880861083984374
-0.20415921875,-0.01585870361328125,0.60307787109375
-0.10374052734375,0.03536517578125,0.787402822265625
-0.18835482421875,-0.06781785400390625,0.8903790283203125
-0.269321953125,-0.04919098876953125,1.0078554638671875
-0.23503857421875,0.07139345458984375,1.155069658203125
-0.32208431640625,-0.0001729223632812504,1.13000146484375
-0.30749564453125,0.0809519775390625,1.0589749169921876
-0.26251390625,0.1123235400390625,0.911269189453125
-0.39016478515624997,0.05521749267578125,0.8775991650390624
-0.316005703125,0.13903838623046874,0.934862783203125
-0.21655958984375,0.032424091796875,0.9346170166015625
-0.31673513671875,-0.09404251953125001,1.0614325830078124
-0.349073359375,-0.076396015625,1.2074179443359374
-0.284883203125,0.1378129345703125,1.1341794970703125
-0.38700390625000003,-0.06438658935546875,0.8977520263671875
-0.22190876953125,0.01698340087890625,0.9088115234375
-0.12829812499999999,0.00987578125,0.9901602685546875
-0.41739697265625,0.09345158447265625,1.1317218310546875
-0.24816837890625,-0.07615092529296875,1.092153408203125
-0.330594375,0.1280093212890625,0.9936010009765625
-0.40256515625,0.1799684716796875,0.8889044287109376
-0.33181009765625,0.02041466552734375,0.9906518017578125
-0.3223274609375,0.19197789794921874,1.121645400390625
-0.29096181640625,0.07825598388671876,1.0739666796875
-0.39356880859375,0.08413815185546875,1.0307117578125
-0.3203823046875,-0.050661530761718754,1.0653648486328124
-0.48426171875,0.00423870361328125,1.096085673828125
-0.36585033203125,-0.1425704052734375,0.8402426416015625
-0.15966376953125,-0.1768830517578125,0.664519521484375
-0.14215736328125,-0.1533543798828125,0.6092220361328125
-0.2912049609375,-0.0661022216796875,0.5841538427734375
-0.0179105078125,-0.068553125,0.885709462890625
-0.20804953125,-0.026397587890625,1.23813876953125
-0.59391990234375,0.07825598388671876,1.420497587890625
-0.570821171875,0.05105095703125,1.3612678369140625
-0.26372962890625,0.0691876416015625,1.2233927734375
-0.374360390625,0.03315936279296875,0.899472392578125
-0.23649744140625,-0.05311243408203125,0.922082919921875
-0.22385392578125,-0.0028689160156250004,0.81148794921875
-0.2231244921875,-0.01095689697265625,0.6922911474609375
-0.22336763671875,-0.07051384765625,0.7035964111328125
-0.25011353515625,-0.10972830078125,0.911269189453125
-0.21121041015625,-0.048945898437499996,1.1336879638671875
-0.29436583984375,-0.02076051025390625,1.237647236328125
-0.3690112109375,0.01894412353515625,1.0176861279296876
-0.170118984375,-0.1131595654296875,0.7896147216796875
-0.177899609375,0.05889384765625,0.9773804052734375
-0.1881116796875,0.1044806494140625,1.0206353271484374
-0.25205869140625,-0.13129625,0.8771076318359375
-0.2036729296875,0.06649164794921875,0.947642646484375
-0.26251390625,-0.03056412353515625,0.89603166015625
-0.36779548828124997,-0.05311243408203125,1.094119541015625
-0.28074974609375003,-0.04281864013671875,1.2698426611328124
-0.370470078125,0.0623251123046875,1.182103984375
-0.25108611328125,0.056933125,1.0179318945312499
-0.25789416015625,0.06992291259765625,0.9547698779296875
-0.3729015234375,0.0878145068359375,1.04349162109375
-0.22336763671875,0.1103628173828125,1.08478041015625
-0.15164,-0.0376717431640625,1.093136474609375
-0.37338781249999997,0.103010107421875,1.2609950634765625
-0.2114535546875,0.00717978759765625,1.163917255859375
-0.2843969140625,0.0064445166015625,1.136391396484375
-0.49423064453125,0.0691876416015625,1.1290183984375
-0.459947265625,0.0387964404296875,0.924049052734375
-0.2114535546875,-0.07075893798828126,0.719571240234375
-0.300444453125,0.049090234375,0.827708544921875
-0.30652306640625,0.06404074462890624,1.00613509765625
-0.23212083984375,-0.071494208984375,1.0535680517578125
-0.4088869140625,0.0848734228515625,1.22830810546875
-0.34153587890625,-0.011201987304687501,1.173747919921875
-0.34493990234375,-0.0004180126953125,1.0289913916015625
-0.1958923046875,0.0701680029296875,0.8923451611328125
-0.2143712890625,0.03266918212890625,0.8065726171875
-0.11687033203125,-0.0013983740234375002,0.7979707861328125
-0.28318119140625,0.085363603515625,0.8623616357421875
-0.26421591796875,-0.04870080810546875,0.900455458984375
-0.15358515625,0.018699033203125,1.03169482421875
-0.45484123046875,0.0201695751953125,1.0444746875
-0.24379177734375002,0.069677822265625,1.0737209130859375
-0.347128203125,-0.049926259765625,0.924049052734375
-0.30506419921875,0.14345001220703124,0.99433830078125
-0.3748466796875,0.12531332763671876,0.9154472216796875
-0.222638203125,-0.136198056640625,0.859658203125
-0.10495625,0.04541387939453125,0.804606484375
-0.25497642578125,0.04124734375,0.6873758154296875
-0.1190586328125,-0.05605351806640625,0.7183424072265625
-0.067025703125,0.0103659619140625,0.8431918408203125
-0.34250845703125,0.08315779052734375,1.1086197705078125
-0.3369161328125,0.11649007568359375,1.276969892578125
-0.39648654296875,0.1201664306640625,1.253376298828125
-0.36244630859375,0.14492055419921876,1.075441279296875
-0.259596171875,-0.00654527099609375,0.867522734375
-0.27248283203125,0.10178465576171875,0.74463943359375
-0.10665826171875001,-0.02149578125,0.6962234130859375
-0.060947089843749996,0.0074248779296875,0.7670041943359375
-0.20975154296875,0.0789912548828125,1.0191607275390624
-0.39551396484375,0.021885207519531248,1.054796884765625
-0.022530253906250002,-0.020515419921875,1.0206353271484374
-0.34250845703125,0.1044806494140625,1.03366095703125
-0.195406015625,0.024581201171875,1.0289913916015625
-0.203186640625,-0.04281864013671875,0.9223286865234375
-0.2766162890625,0.1348718505859375,1.043983154296875
-0.11978806640625,0.03708080810546875,1.060695283203125
-0.34032015625,0.0642858349609375,1.0174403613281249
-0.191515703125,0.08658905517578125,1.00613509765625
-0.1706052734375,-0.0004180126953125,0.9972875
-0.2022140625,0.04345315673828125,1.0737209130859375
-0.42906791015625,0.0054641552734375,1.061678349609375
-0.366579765625,0.011346323242187501,0.8741584326171875
-0.21364185546875,-0.00948635498046875,0.6296206640625
-0.22385392578125,0.00766996826171875,0.5155849609375
-0.13291787109375,-0.0023787353515625003,0.4317785498046875
-0.022287109375,-0.07320984130859375,0.536720888671875
-0.05365275390625,0.07923634521484375,0.803131884765625
-0.39210994140625,0.080461796875,1.006626630859375
-0.32111173828125,0.0221302978515625,1.244528701171875
-0.34785763671875003,-0.013162709960937501,1.4379470166015624
-0.27977716796875,0.09884357177734375,1.2811479248046875
-0.29096181640625,0.0593840283203125,1.040542421875
-0.177899609375,0.08511851318359374,0.8731753662109375
-0.2488978125,0.017718671875,0.7920723876953125
-0.2153438671875,0.08953013916015624,0.87047193359375
-0.26713365234374997,-0.0239466845703125,1.0127707958984375
-0.29290697265625,0.073599267578125,1.1395863623046876
-0.1637972265625,0.02874773681640625,1.0427543212890624
-0.222638203125,-0.08252327392578125,0.871455
-0.1321884375,0.07972652587890625,0.781504423828125
-0.08817927734375,-0.029338671875,0.7807671240234375
-0.32646091796875,0.11845079833984375,0.9980247998046875
-0.40767119140625,0.08119706787109375,1.063644482421875
-0.33642984375,0.120656611328125,1.073475146484375
-0.292663828125,0.10815700439453126,0.8594124365234375
-0.3189234375,0.13854820556640626,0.803131884765625
-0.2153438671875,0.14590091552734374,0.9513291455078126
-0.31965287109375,0.0338946337890625,0.9410069482421874
-0.2488978125,-0.0009081933593750001,0.9960586669921875
-0.2182616015625,0.05227640869140625,0.818860947265625
-0.18057419921875,0.02972809814453125,0.7168678076171875
-0.17473873046875,0.042227705078125,0.749063232421875
-0.24938410156250002,0.0476196923828125,0.904387724609375
-0.2834243359375,0.0976181201171875,1.0019570654296874
-0.29387955078125,0.10570610107421875,1.124594599609375
-0.3378887109375,0.17188049072265624,1.216019775390625
-0.28391062499999997,0.14541073486328124,1.2192147412109375
-0.4030514453125,0.08903995849609375,1.21651130859375
-0.47332021484375,0.07188363525390624,1.197833046875
-0.428824765625,0.0878145068359375,1.0157199951171876
-0.36196001953125,0.0505607763671875,0.88423486328125
-0.29144810546875,0.01306195556640625,0.7075286767578125
-0.1944334375,-0.00777072265625,0.5905437744140625
-0.07383375,-0.068553125,0.63650212890625
-0.27151025390625,0.01453249755859375,0.7994453857421875
-0.20537494140625,0.02433611083984375,0.916184521484375
-0.22677166015625,-0.100905048828125,1.015474228515625
-0.28634207031250003,-0.0371815625,1.1297556982421875
-0.43976626953125,0.0025230712890624996,1.2206893408203126
-0.26227076171875,-0.011201987304687501,1.172764853515625
-0.310170234375,0.06673673828125,0.9862280029296875
-0.2279873828125,-0.02027032958984375,0.8721922998046875
-0.3077387890625,-0.022476142578125,0.91372685546875
-0.14750654296875,-0.01781942626953125,0.9306847509765624
-0.18835482421875,0.0030132519531249997,0.9134810888671875
-0.24184662109375,0.04590406005859375,0.801165751953125
-0.005753281249999999,0.00963069091796875,0.8933282275390625
-0.0986344921875,-0.04134809814453125,1.2246216064453126
-0.31624884765625,0.22923162841796874,1.503075166015625
-0.41788326171875,0.2672206298828125,1.6402129296874999
-0.36147373046875,0.2280061767578125,1.5396943896484374
-0.452166640625,0.3630509497070312,1.4671932421875
-0.5000661132812501,0.33854191650390625,1.2349438037109375
-0.3972159765625,0.0299731884765625,1.027271025390625
-0.22239505859375,0.0515411376953125,0.89013326171875
-0.1676875390625,0.02090484619140625,0.8171405810546875
-0.1317021484375,-0.14036459228515624,0.9134810888671875
-0.1482359765625,-0.06536695068359374,1.1813666845703126
-0.29509527343749997,-0.008751083984375,1.3175213818359375
-0.41496552734375003,0.114774443359375,1.45048111328125
-0.34056330078125,0.081442158203125,1.529617958984375
-0.31235853515625,-0.01732924560546875,1.4757950732421876
-0.310170234375,0.0858537841796875,1.424429853515625
-0.32451576171875,0.0348749951171875,1.386090263671875
-0.3189234375,-0.10605194580078126,1.2747579931640625
-0.3694975,-0.0396324658203125,1.1720275537109375
-0.407428046875,-0.0788469189453125,1.052830751953125
-0.32791978515625,-0.1229631787109375,0.8014115185546875
-0.25643529296875,-0.1357078759765625,0.5861199755859375
-0.1375376171875,-0.19820591064453125,0.506245830078125
-0.09839134765625,-0.2053135302734375,0.5234494921875
-0.12951384765625001,-0.24305744140625,0.62470533203125
-0.09644619140624999,-0.21242114990234376,0.7876485888671875
-0.19808060546875,-0.028113220214843748,1.0751955126953125
-0.3913805078125,0.0652661962890625,1.3332504443359374
-0.39065107421875,0.1397736572265625,1.412633056640625
-0.41204779296875,0.2927100244140625,1.341852275390625
-0.46213556640625,0.2878082177734375,1.0503730859375
-0.36974064453125,0.26305409423828124,0.781012890625
-0.26081189453125,0.10202974609375,0.5863657421875
-0.14021220703125,0.11060790771484375,0.5168137939453125
-0.105928828125,0.0858537841796875,0.379430263671875
-0.031769746093749995,0.0593840283203125,0.4435753466796875
0.00810595703125,0.00570924560546875,0.820335546875
-0.06678255859375,0.1740863037109375,1.5111854638671876
-0.619450078125,0.3052096313476563,2.0039474999999998
-0.76023076171875,0.316728876953125,1.9299717529296876
-0.27199654296875,0.07482471923828125,1.4357351171875
-0.54188697265625,0.112813720703125,1.1346710302734375
-0.333512109375,-0.023456503906250002,1.0383305224609374
-0.31697828125,0.0020328906249999995,0.8962774267578125
-0.265431640625,0.04124734375,0.75053783203125
-0.3057936328125,-0.02517213623046875,0.5684247802734375
-0.2299325390625,-0.12541408203125,0.5460600195312499
-0.14069849609375001,-0.1396293212890625,0.5300851904296875
-0.22628537109375,-0.046740085449218746,0.5782554443359375
-0.26421591796875,0.08634396484375,0.6426462939453125
-0.3048210546875,-0.0013983740234375002,0.7301392041015625
-0.23017568359375,0.05374695068359375,0.95698177734375
-0.3826273046875,0.1250682373046875,1.1238572998046874
-0.5207333984375,0.19222298828125,1.25780009765625
-0.28561263671875,0.06060947998046875,1.182103984375
-0.28998923828125,0.13217585693359374,1.1223827001953124
-0.4225030078125,0.0701680029296875,1.01203349609375
-0.28585578125,-0.11977700439453125,0.874895732421875
-0.2260422265625,-0.06781785400390625,0.752012431640625
-0.221665625,0.0005623486328125002,0.5684247802734375
-0.1988100390625,-0.03644629150390625,0.531805556640625
-0.13024328125,-0.05801424072265625,0.5261529248046874
-0.20026890625,0.06109966064453125,0.529839423828125
-0.18640966796875,0.1799684716796875,0.6952403466796875
-0.35758341796875,0.19344843994140626,1.05528841796875
-0.46019041015625,0.25913264892578125,1.2413337353515626
-0.3904079296875,0.3025136376953125,1.245511767578125
-0.442440859375,0.25619156494140627,1.1784174853515625
-0.39259623046875003,0.10423555908203125,0.9886856689453125
-0.2941226953125,0.11943115966796874,1.0732293798828125
-0.28074974609375003,0.00472888427734375,0.9960586669921875
-0.32257060546875,-0.03693647216796875,0.79379275390625
-0.224583359375,0.00791505859375,0.6691890869140625
-0.199296328125,-0.10997339111328125,0.6244595654296875
-0.30141703125,0.019434304199218752,0.804606484375
-0.37071322265625,0.015022678222656249,0.807064150390625
-0.26081189453125,0.10178465576171875,0.8299204443359375
-0.33618669921875,0.16477287109375,0.86653966796875
-0.35417939453125,0.1789881103515625,1.00416896484375
-0.413263515625,0.16085142578125,1.0275167919921875
-0.356853984375,0.1549692578125,1.0896957421875
-0.31746457031249997,0.120656611328125,1.0737209130859375
-0.29144810546875,0.0686974609375,1.091170341796875
-0.389921640625,0.0338946337890625,1.1051790380859374
-0.1920019921875,0.0093856005859375,1.0855177099609374
-0.29387955078125,0.0584036669921875,1.0088385302734375
-0.4186126953125,-0.013652890625,0.9095488232421876
-0.201241484375,0.04198261474609375,0.93437125
-0.40767119140625,0.0883046875,0.9469053466796875
-0.386031328125,0.13756784423828125,0.987948369140625
-0.18689595703125,0.1084020947265625,0.9631259423828125
-0.3515048046875,0.14982236083984374,1.003677431640625
-0.42858162109375,0.130460224609375,1.1194335009765626
-0.4477900390625,0.063795654296875,1.0130165625
-0.331566953125,-0.02272123291015625,0.862115869140625
-0.24038775390625,-0.00605509033203125,0.76036849609375
-0.2980130078125,0.049090234375,0.7556989306640625
-0.25254498046875,-0.09796396484375,0.83213234375
-0.29485212890625,0.0005623486328125002,0.891116328125
-0.21266927734375,0.0025230712890624996,0.938303515625
-0.338375,0.13413657958984376,1.0444746875
-0.35199109375,0.15717507080078125,1.12606919921875
-0.28196546875,0.14148928955078124,1.21651130859375
-0.446331171875,0.236339248046875,1.2054518115234374
-0.49812095703125,0.187321181640625,1.114763935546875
-0.32451576171875,0.0035034326171875,0.9596852099609375
-0.22677166015625,0.1025199267578125,0.8520394384765625
-0.30871136718750003,-0.0013983740234375002,0.8023945849609375
-0.20634751953125,-0.06487677001953125,0.763809228515625
-0.29144810546875,-0.04281864013671875,0.7827332568359375
-0.33642984375,-0.06585713134765625,0.7672499609375
-0.2435486328125,0.18045865234375,0.875878798828125
-0.34007701171875,0.04002189208984375,0.9960586669921875
-0.310170234375,0.10080429443359375,1.180629384765625
-0.3694975,0.31746414794921873,1.1644087890625
-0.3612305859375,0.25030939697265625,1.0506188525390625
-0.29631099609375,-0.03644629150390625,0.8972604931640625
-0.31527626953125,0.19933060791015625,0.9975332666015625
-0.27102396484375,0.16648850341796875,1.0766701123046876
-0.34639876953125,-0.087179990234375,1.0688055810546875
-0.22288134765625,0.1652630517578125,1.1592476904296876
-0.335457265625,0.19442880126953124,1.188493916015625
-0.36730919921875,-0.09477779052734375,1.127543798828125
-0.3378887109375,0.232417802734375,1.2531305322265625
-0.38773333984375,0.1378129345703125,1.1464678271484374
-0.3835998828125,-0.045024453125,0.986965302734375
-0.2211793359375,0.212810576171875,0.96877857421875
-0.34348103515625,0.00766996826171875,0.8948028271484375
-0.3126016796875,-0.04526954345703125,0.9129895556640625
-0.3184371484375,0.09933375244140626,0.89209939453125
-0.46505330078125,0.01306195556640625,0.8761245654296875
-0.3213548828125,-0.00948635498046875,0.8795652978515625
-0.321841171875,0.10178465576171875,0.7463597998046875
-0.2736985546875,-0.0219859619140625,0.6967149462890625
-0.21461443359375,-0.0268877685546875,0.703842177734375
-0.21607330078125,0.10570610107421875,0.75840236328125
-0.30506419921875,0.06649164794921875,0.8154202148437499
-0.30700935546875,0.12531332763671876,0.9365831494140625
-0.35806970703125,0.1584005224609375,0.948625712890625
-0.25740787109375,0.19246807861328125,0.926998251953125
-0.18446451171875,0.11354899169921875,0.8952943603515625
-0.30846822265625,0.17776265869140626,0.996795966796875
-0.331566953125,0.06404074462890624,1.0044147314453125
-0.35344996093750003,0.0809519775390625,0.95501564453125
-0.1715778515625,0.05472731201171875,0.9183964208984375
-0.370470078125,0.0682072802734375,0.7846993896484376
-0.1210037890625,0.0191892138671875,0.8446664404296875
-0.26056875,0.1000690234375,0.9097945898437501
-0.4555706640625,0.1863408203125,0.9572275439453125
-0.21169669921875,0.04394333740234375,0.9316678173828125
-0.29363640625,0.2436919580078125,0.8136998486328125
-0.19613544921875,0.2569268359375,0.8038691845703125
-0.1297569921875,0.17923320068359375,1.1046875048828124
-0.42055785156250003,0.17629211669921874,1.355615205078125
-0.3072525,0.22531018310546874,1.446057314453125
-0.31187224609374997,0.2525152099609375,1.452938779296875
-0.53848294921875,0.27775951416015626,1.3590559375
-0.4176401171875,0.14148928955078124,1.1302472314453125
-0.3699837890625,0.10864718505859375,1.0299744580078125
-0.3592854296875,-0.0474753564453125,0.89013326171875
-0.29582470703125,-0.09624833251953124,0.6689433203125
-0.1433730859375,-0.1111988427734375,0.4725758056640625
-0.1219763671875,-0.1572758251953125,0.3934389599609375
-0.158448046875,-0.18791211669921876,0.440380380859375
-0.26616107421875,-0.16781470947265625,0.656654990234375
-0.343237890625,0.08413815185546875,0.95304951171875
-0.4458448828125,0.1789881103515625,1.1843158837890626
-0.55428734375,0.2740831591796875,1.3806833984375
-0.44219771484375,0.352021884765625,1.2546051318359375
-0.42590703125,0.00227798095703125,0.7121982421874999
-0.07115916015625,0.1505576318359375,0.73480876953125
-0.05243703125,0.14835181884765625,0.922574453125
-0.31041337890625,0.17874302001953124,1.1486797265625
-0.2172890234375,0.0686974609375,1.3008092529296875
-0.39210994140625,0.03904153076171875,1.3583186376953125
-0.370470078125,-0.04968116943359375,1.328089345703125
-0.30944080078125,0.0059543359375,1.1218911669921874
-0.32305689453124997,0.04541387939453125,0.9206083203125
-0.37460353515625,-0.034240478515625,0.902421591796875
-0.4701593359375,0.0231106591796875,1.013508095703125
-0.382141015625,0.1015395654296875,0.9950756005859375
-0.28220861328125,0.0466393310546875,0.8530225048828125
-0.25886673828125,0.067717099609375,0.96484630859375
-0.1861665234375,0.1309504052734375,1.0909245751953125
-0.27296912109375,0.02972809814453125,0.9587021435546875
-0.0782103515625,0.07972652587890625,0.8672769677734375
-0.17717017578125,0.24393704833984375,0.9557529443359375
-0.45192349609375,0.20006587890625,0.95108337890625
-0.17327986328125,0.1113431787109375,1.001219765625
-0.41156150390625,0.19442880126953124,1.1209081005859376
-0.48061455078125,0.174576484375,1.23617263671875
-0.31916658203125,-0.0371815625,1.1526119921875
-0.41156150390625,0.07825598388671876,1.0599579833984376
-0.3641483203125,-0.030319033203124998,1.0452119873046875
-0.17230728515625,0.18168410400390625,1.0284998583984375
-0.29047552734375,-0.05360261474609375,0.95894791015625
-0.210967265625,0.08070688720703124,1.1469593603515624
-0.3592854296875,0.16991976806640624,1.160968056640625
-0.23552486328125,0.1123235400390625,1.0540595849609375
-0.2367405859375,0.0652661962890625,0.922574453125
-0.361716875,0.04100225341796875,0.9257694189453125
-0.36390517578125,-0.00777072265625,1.01989802734375
-0.41107521484375,-0.08154291259765625,0.9306847509765624
-0.41204779296875,0.09026541015625,0.9051250244140625
-0.3495596484375,-0.0053198193359375,0.9616513427734374
-0.226528515625,0.04639424072265625,1.1764513525390625
-0.4244481640625,0.10864718505859375,1.3189959814453125
-0.35028908203125,-0.00948635498046875,1.0860092431640624
-0.1268392578125,-0.042083369140625,0.941744248046875
-0.19175884765625,-0.10188541015625,0.840488408203125
-0.30141703125,-0.19281392333984376,0.8771076318359375
-0.23552486328125,-0.06536695068359374,1.1626884228515626
-0.413263515625,-0.10727739746093751,1.0270252587890625
-0.44292714843750003,0.07923634521484375,0.9400238818359374
-0.32354318359375,0.028257556152343752,0.8380307421875
-0.24476435546875,0.05129604736328125,0.6917996142578124
-0.20440236328125,0.16060633544921876,0.6996641455078125
-0.3524773828125,0.24491740966796874,0.8250051123046875
-0.31722142578125,0.273592978515625,0.9397781152343749
-0.41836955078125,0.16501796142578126,0.9815584374999999
-0.34299474609375,0.13952856689453125,1.0425085546875
-0.20683380859375,0.04688442138671875,0.9110234228515625
-0.26178447265625,-0.014633251953124999,0.8702261669921875
-0.19759431640625,0.06257020263671875,0.9842618701171875
-0.41107521484375,-0.00360418701171875,1.096085673828125
-0.444386015625,0.1084020947265625,1.1722733203125
-0.27272597656249997,0.13070531494140625,1.12017080078125
-0.315033125,-0.01683906494140625,0.9842618701171875
-0.33521412109375,-0.077376376953125,0.901438525390625
-0.3057936328125,0.00472888427734375,0.810996416015625
-0.214857578125,0.02776737548828125,0.7751144921875
-0.4434134375,0.04688442138671875,0.7729025927734375
-0.26713365234374997,0.0294830078125,0.8603955029296875
-0.27296912109375,-0.0523771630859375,0.899472392578125
-0.23260712890625002,-0.044534272460937496,0.985490703125
-0.286828359375,0.00472888427734375,1.0083469970703125
-0.3694975,-0.00777072265625,0.9572275439453125
-0.23163455078125,0.03144373046875,0.9390408154296875
-0.47259078125,0.0642858349609375,0.9965502001953125
-0.3077387890625,0.11698025634765626,1.0457035205078125
-0.349073359375,0.0686974609375,0.9926179345703126
-0.271267109375,0.212810576171875,1.0727378466796875
-0.26616107421875,0.134381669921875,1.102967138671875
-0.378250703125,0.15815543212890626,1.1523662255859375
-0.23941517578125,0.11894097900390625,0.9616513427734374
-0.314060546875,0.0427178857421875,0.840488408203125
-0.25084296875,0.22482000244140626,0.8589209033203125
-0.1477496875,-0.07468038330078125,0.871455
-0.32281375,0.06649164794921875,1.1174673681640626
-0.4555706640625,0.13217585693359374,1.27156302734375
-0.43004048828125,0.07335417724609375,1.2197062744140625
-0.42177357421875,0.21893783447265625,1.150645859375
-0.34348103515625,-0.00507472900390625,0.902913125
-0.29047552734375,0.0162481298828125,0.839996875
-0.28804408203125,-0.046249904785156254,0.7193254736328125
-0.339347578125,-0.13497260498046876,0.6111881689453125
-0.2056180859375,-0.1690401611328125,0.53229708984375
-0.2542469921875,-0.1435507666015625,0.6431378271484375
-0.25157240234375,-0.1533543798828125,0.762826162109375
-0.36366203125,-0.1592365478515625,0.9301932177734376
-0.2639727734375,-0.0038492773437499997,1.08478041015625
-0.29631099609375,-0.0308092138671875,1.174730986328125
-0.389921640625,0.17678229736328124,1.2752495263671875
-0.34202216796875,0.1584005224609375,1.259274697265625
-0.45046462890625,0.10202974609375,1.2076637109375
-0.3033621875,0.11649007568359375,1.217985908203125
-0.40183572265625,0.06355056396484375,1.1513831591796875
-0.37460353515625,0.09737302978515625,0.98057537109375
-0.22482650390625,0.14246965087890626,0.859658203125
-0.2668905078125,0.0003172583007812497,0.7743771923828124
-0.22725794921875,-0.0915916162109375,0.88423486328125
-0.35855599609375,-0.03129939453125,1.0073639306640625
-0.41010263671875,-0.1013952294921875,0.9763973388671875
-0.43247193359375,-0.030319033203124998,0.90193005859375
-0.2941226953125,0.0829127001953125,0.8004284521484375
-0.28853037109375,-0.035711020507812496,0.726452705078125
-0.33278267578125,0.08609887451171874,0.879811064453125
-0.4662690234375,0.19786006591796876,0.9611598095703124
-0.36244630859375,0.030463369140625002,0.84884447265625
-0.2333365625,0.0255615625,0.8014115185546875
-0.26056875,-0.0494360791015625,0.8898874951171875
-0.2902323828125,-0.139139140625,0.8984893261718749
-0.32208431640625,-0.1744321484375,0.8422087744140625
-0.40694175781249997,-0.1749223291015625,0.8510563720703125
-0.23844259765625,-0.10262068115234375,0.8913620947265625
-0.32840607421875,-0.08007237060546875,0.9572275439453125
-0.36925435546875,-0.08252327392578125,1.0307117578125
-0.3330258203125,-0.01683906494140625,0.9754142724609375
-0.37071322265625,0.026296833496093748,0.901438525390625
-0.42274615234375,-0.0533575244140625,0.8913620947265625
-0.29339326171875,0.01992448486328125,0.965829375
-0.30409162109375,0.0887948681640625,1.043983154296875
-0.244034921875,0.05031568603515625,1.111323203125
-0.30166017578125,0.04002189208984375,1.2457575341796876
-0.41982841796875,0.06796218994140625,1.2831140576171876
-0.3344846875,0.0133070458984375,1.1110774365234375
-0.44535859375,0.0309535498046875,1.0501273193359375
-0.37995271484375,-0.051886982421875,1.0621698828125
-0.36779548828124997,-0.03889719482421875,1.025304892578125
-0.37752126953125,0.06551128662109375,0.9124980224609375
-0.36536404296875,-0.0974737841796875,0.8151744482421874
-0.430769921875,-0.02468195556640625,0.9011927587890625
-0.44146828125,0.01257177490234375,0.9233117529296875
-0.3904079296875,-0.0906112548828125,0.791335087890625
-0.1978374609375,0.0633054736328125,0.8333611767578125
-0.26907880859375,-0.04134809814453125,0.867031201171875
-0.2795340234375,0.01747358154296875,1.08674654296875
-0.37752126953125,0.07090327392578125,1.265173095703125
-0.47915568359375,-0.0945327001953125,1.2155282421875
-0.45581380859375,-0.10213050048828125,0.967303974609375
-0.31089966796875,-0.027868129882812502,0.779538291015625
-0.3466419140625,-0.05017135009765625,0.62077306640625
-0.27880458984375,-0.104826494140625,0.556382216796875
-0.2163164453125,-0.10507158447265624,0.724486572265625
-0.263486484375,-0.00507472900390625,0.8294289111328125
-0.39843169921875,-0.05360261474609375,0.907336923828125
-0.28318119140625,0.0711483642578125,1.007609697265625
-0.36779548828124997,0.0848734228515625,0.89504859375
-0.27783201171875,0.09051050048828126,0.823776279296875
-0.1385101953125,0.159871064453125,1.0260421923828125
-0.2999581640625,0.0289928271484375,1.222901240234375
-0.3291355078125,0.11967625,1.4826765380859375
-0.50055240234375,0.214771298828125,1.41509072265625
-0.5012818359375,0.04541387939453125,1.1174673681640626
-0.341292734375,0.05178622802734375,0.9704989404296875
-0.27442798828125,0.012816865234374999,0.8210728466796875
-0.07748091796875001,-0.0011532836914062497,0.9228202197265625
-0.40815748046875,0.05227640869140625,1.0083469970703125
-0.38335673828125,-0.04036773681640625,1.048406953125
-0.42809533203125,-0.0097314453125,0.8820229638671875
-0.2007551953125,0.0486000537109375,0.94518498046875
-0.338375,-0.077376376953125,1.019406494140625
-0.23844259765625,-0.02958376220703125,1.2344522705078125
-0.29679728515625,0.03266918212890625,1.3558609716796874
-0.3631757421875,-0.01389798095703125,1.2673849951171876
-0.360744296875,-0.05482806640625,1.2605035302734375
-0.52827087890625,0.014777587890624999,1.2796733251953125
-0.3767918359375,0.04247279541015625,1.134425263671875
-0.41982841796875,-0.15065838623046876,0.9316678173828125
-0.2542469921875,-0.2043331689453125,0.824759345703125
-0.08623412109375,-0.09820905517578125,0.766758427734375
-0.1210037890625,-0.03350520751953125,0.87243806640625
-0.35952857421875,-0.089140712890625,0.8825144970703125
-0.36925435546875,0.0059543359375,0.769707626953125
-0.2503566796875,-0.0092412646484375,0.763809228515625
-0.32451576171875,-0.03203466552734375,0.813945615234375
-0.23747001953125,-0.0543378857421875,1.030220224609375
-0.40815748046875,0.02433611083984375,1.201273779296875
-0.4939875,0.10202974609375,1.1449932275390624
-0.27613,0.0868341455078125,0.91765912109375
-0.2931501171875,0.0221302978515625,0.8294289111328125
-0.39478453125,0.1314405859375,0.7829790234375
-0.25497642578125,-0.04281864013671875,0.7783094580078125
-0.131215859375,0.1392834765625,0.9213456201171875
-0.333512109375,0.05276658935546875,1.04939001953125
-0.47648109375000003,0.1152646240234375,1.0810939111328124
-0.255705859375,-0.0724745703125,0.852285205078125
-0.28123603515625,0.04100225341796875,0.876861865234375
-0.36974064453125,-0.020515419921875,0.9734481396484375
-0.32646091796875,-0.08497417724609375,1.0014655322265624
-0.206104375,0.05178622802734375,1.0958399072265625
-0.44122513671875,0.04492369873046875,1.2044687451171874
-0.5756840625,-0.0406128271484375,1.219952041015625
-0.4127772265625,-0.049926259765625,1.113780869140625
-0.39356880859375,-0.01978014892578125,0.91372685546875
-0.13194529296875,-0.0288484912109375,0.7242408056640625
-0.15747546875,-0.14477621826171874,0.7082659765625
-0.3033621875,-0.05458297607421875,0.7724110595703125
-0.20975154296875,-0.12933552734375,0.7724110595703125
-0.2484115234375,-0.02027032958984375,0.8783364648437499
-0.42590703125,-0.057769150390625,1.0919076416015625
-0.294608984375,-0.15408965087890625,1.213070576171875
-0.40694175781249997,0.07482471923828125,1.202256845703125
-0.3573402734375,-0.05899460205078125,1.039067822265625
-0.41691068359375,-0.0827683642578125,0.973202373046875
-0.45313921875,-0.0670825830078125,0.9503460791015625
-0.26081189453125,-0.12418863037109375,0.76921609375
-0.21315556640625,-0.09183670654296874,0.6092220361328125
-0.13802390625,-0.008751083984375,0.6318325634765625
-0.221665625,-0.17369687744140624,0.7016302783203126
-0.15747546875,-0.0053198193359375,0.8264797119140626
-0.3116291015625,-0.03889719482421875,0.9228202197265625
-0.31989601562500003,0.0133070458984375,1.049881552734375
-0.3694975,0.1113431787109375,1.0978060400390626
-0.48645001953125,-0.05115171142578125,0.965337841796875
-0.37363095703125,0.033404453125,0.8299204443359375
-0.24914095703125,0.04835496337890625,0.883251796875
-0.3155194140625,-0.12909043701171874,0.905370791015625
-0.33618669921875,-0.00703545166015625,0.9196252539062499
-0.33253953125,0.01575794921875,0.889641728515625
-0.34931650390625,0.018699033203125,0.890624794921875
-0.19273142578125,0.0348749951171875,0.986965302734375
-0.1988100390625,0.05374695068359375,0.956490244140625
-0.16185207031249998,0.00816014892578125,0.9660751416015625
-0.228473671875,-0.07271966064453125,1.0835515771484374
-0.2960678515625,0.040266982421875,1.088221142578125
-0.226528515625,-0.044534272460937496,0.989914501953125
-0.34785763671875003,-0.0646316796875,0.991880634765625
-0.4507077734375,-0.01291761962890625,1.0796193115234376
-0.2678630859375,-0.16879507080078124,1.057746083984375
-0.11492517578125,0.02678701416015625,1.1813666845703126
-0.3874901953125,-0.00262382568359375,1.1636714892578124
-0.384086171875,0.07188363525390624,1.2575543310546875
-0.23892888671875,-0.023456503906250002,1.222901240234375
-0.43004048828125,0.1417343798828125,1.2595204638671875
-0.51514107421875,0.14050892822265626,1.2678765283203126
-0.27783201171875,0.03315936279296875,1.0855177099609374
-0.249870390625,-0.02713285888671875,0.8918536279296875
-0.2425760546875,-0.01046671630859375,0.7689703271484375
-0.1385101953125,-0.16144236083984376,0.8427003076171875
-0.4049966015625,-0.16144236083984376,1.0221099267578124
-0.49860724609375,-0.044534272460937496,1.0339067236328126
-0.33667298828125003,-0.1347275146484375,1.02383029296875
-0.5217059765625,-0.1082577587890625,1.02088109375
-0.426879609375,0.0765403515625,0.994829833984375
-0.3476144921875,-0.11536537841796875,0.881777197265625
-0.290718671875,-0.1259042626953125,0.841471474609375
-0.42760904296875,-0.05605351806640625,0.9228202197265625
-0.19029998046875,-0.057769150390625,0.85867513671875
-0.27734572265625,0.00472888427734375,0.8159117480468749
-0.12465095703125,-0.0229663232421875,0.8097675830078125
-0.170118984375,-0.15114856689453124,0.97860923828125
-0.46870046875,-0.030319033203124998,1.1951296142578125
-0.3904079296875,-0.0964934228515625,1.0289913916015625
-0.42055785156250003,-0.25457668701171876,0.891607861328125
-0.3048210546875,0.048109873046875,0.89209939453125
-0.32548833984375003,-0.06438658935546875,0.75840236328125
-0.23649744140625,0.06404074462890624,0.8343442431640625
-0.38238416015625,0.06600146728515625,0.86359046875
-0.36439146484375,-0.076396015625,0.7311222705078125
-0.18738224609375,0.09590248779296875,0.75250396484375
-0.31868029296875,0.04247279541015625,0.68172318359375
-0.2678630859375,-0.04306373046875,0.6925369140625
-0.31965287109375,-0.09183670654296874,0.7615973291015625
-0.02398912109375,-0.10016977783203125,0.854251337890625
0.0287732421875,-0.0121823486328125,1.0815854443359374
-0.40256515625,0.067717099609375,1.344801474609375
-0.34493990234375,-0.067572763671875,1.22240970703125
-0.267376796875,0.0966377587890625,1.3067076513671876
-0.39575710937499997,0.096147578125,1.379208798828125
-0.45727267578124997,0.0368357177734375,1.495210634765625
-0.52511,0.0544822216796875,1.3578271044921875
-0.37703498046875,-0.030073942871093752,0.9788550048828125
-0.109819140625,0.18462518798828126,0.7439021337890624
-0.0645942578125,0.08756941650390625,0.6986810791015625
-0.0004041015625000019,0.030708459472656248,0.8893959619140624
-0.18495080078125,0.065756376953125,1.0997721728515626
-0.121490078125,0.09835339111328124,1.280410625
-0.16209521484375,-0.2533512353515625,1.2683680615234374
-0.47332021484375,-0.32173143798828124,1.3096568505859374
-0.51222333984375,-0.2844777075195313,1.021372626953125
-0.31770771484375,-0.13546278564453124,0.67779091796875
