ax,ay,az
-0.14361623046875,0.057913486328125,0.7674957275390625
-0.0772377734375,0.08634396484375,1.05725455078125
-0.28585578125,0.038306259765625,1.2290454052734374
-0.345183046875,0.03708080810546875,1.2646815625
-0.35126166015625,0.13707766357421874,1.119679267578125
-0.39989056640625,0.05717821533203125,1.0157199951171876
-0.5236511328125,0.0515411376953125,0.9820499707031249
-0.4332013671875,0.08805959716796875,1.0071181640625
-0.29387955078125,0.1035002880859375,0.9402696484374999
-0.33472783203125,-0.06634731201171876,0.95501564453125
-0.32208431640625,0.06355056396484375,1.0226014599609374
-0.4108320703125,-0.0798272802734375,1.047915419921875
-0.30068759765624997,0.014777587890624999,1.1408151953125
-0.33326896484375,0.05497240234375,0.9660751416015625
-0.25740787109375,-0.067572763671875,0.8707177001953125
-0.2124261328125,-0.023456503906250002,0.8572005371093749
-0.18495080078125,-0.04306373046875,1.0432458544921874
-0.487179453125,-0.051886982421875,1.1317218310546875
-0.6306347265625,-0.035711020507812496,1.1798920849609376
-0.42274615234375,0.00963069091796875,0.999745166015625
-0.5625542578125,-0.14232531494140624,0.8259881787109375
-0.30068759765624997,-0.06634731201171876,0.8026403515625
-0.31697828125,-0.0533575244140625,0.763809228515625
-0.21996361328125,-0.035711020507812496,0.8984893261718749
-0.4088869140625,0.0584036669921875,1.015474228515625
-0.34785763671875003,0.050070595703125,1.0825685107421874
-0.21996361328125,0.03217900146484375,1.150154326171875
-0.3057936328125,0.05105095703125,1.17129025390625
-0.3884627734375,0.12825441162109374,1.0840431103515624
-0.25935302734375,0.06551128662109375,1.049881552734375
-0.5445615625,0.03119864013671875,0.88226873046875
-0.38311359375,0.1035002880859375,0.8584293701171875
-0.3578265625,-0.00752563232421875,0.7475886328125
-0.35393625,-0.028113220214843748,0.7483259326171875
-0.39454138671875,0.11403917236328125,0.899472392578125
-0.31770771484375,-0.016593974609375,0.965337841796875
-0.23528171875,-0.0082609033203125,0.8653108349609375
-0.39818855468750003,0.0799716162109375,0.854251337890625
-0.15480087890625,-0.0268877685546875,0.8269712451171874
-0.16841697265625,0.0172284912109375,0.9026673583984375
-0.36755234375,0.09247122314453125,0.997779033203125
-0.27199654296875,-0.00409436767578125,0.9385492822265625
-0.362689453125,0.0329142724609375,0.915201455078125
-0.41593810546875,0.04688442138671875,0.93732044921875
-0.3456693359375,0.1113431787109375,1.127052265625
-0.5722800390625,0.01453249755859375,1.0110504296875
-0.3641483203125,0.0525214990234375,0.902913125
-0.2425760546875,-0.011201987304687501,0.76036849609375
-0.30627992187499997,0.07335417724609375,0.938303515625
-0.263486484375,-0.00850599365234375,0.9953213671875
-0.32257060546875,0.0020328906249999995,1.077407412109375
-0.29728357421875,0.03021827880859375,1.066593681640625
-0.26372962890625,0.01600303955078125,0.9886856689453125
-0.323786328125,-0.05605351806640625,0.9655836083984375
-0.32305689453124997,0.0270321044921875,1.0806023779296874
-0.37922328125,-0.0023787353515625003,1.0781447119140626
-0.44754689453125,-0.01953505859375,1.0702801806640625
-0.37533296875,0.05668803466796875,1.1014925390624999
-0.37314466796875,0.016738310546875,1.1425355615234376
-0.36925435546875,-0.02737794921875,1.18112091796875
-0.45532751953125,-0.0097314453125,1.04349162109375
-0.35709712890625,-0.0827683642578125,0.9105318896484375
-0.24136033203125,-0.0876701708984375,0.8864467626953125
-0.24281919921875,0.08217742919921875,0.9660751416015625
-0.35028908203125,-0.14330567626953125,0.9891772021484375
-0.28391062499999997,-0.10997339111328125,1.170798720703125
-0.4200715625,0.05864875732421875,1.1892312158203124
-0.549424453125,-0.04306373046875,1.0343982568359376
-0.36147373046875,0.022620478515625,0.9523122119140625
-0.32354318359375,0.09933375244140626,1.028745625
-0.33642984375,0.0010525292968750002,1.0543053515625
-0.487179453125,-0.03914228515625,1.0943653076171875
-0.2435486328125,0.01159141357421875,1.03562708984375
-0.36439146484375,0.0250713818359375,0.92748978515625
-0.31770771484375,-0.1092381201171875,1.0147369287109376
-0.31089966796875,-0.11757119140625,1.0678225146484375
-0.31430369140625003,0.1838899169921875,1.129509931640625
-0.40426716796875,-0.05703387939453125,0.9124980224609375
-0.32597462890625,0.028257556152343752,0.88030259765625
-0.31527626953125,0.1201664306640625,0.9100403564453124
-0.36730919921875,-0.0964934228515625,0.9245405859375
-0.28561263671875,0.02776737548828125,0.950591845703125
-0.44171142578125,0.0995788427734375,0.987948369140625
-0.33278267578125,-0.01781942626953125,0.859166669921875
-0.39697283203125,0.12433296630859375,0.85277673828125
-0.255705859375,0.04247279541015625,0.8530225048828125
-0.2678630859375,0.083402880859375,0.978117705078125
-0.26227076171875,0.03610044677734375,1.0307117578125
-0.3106565234375,0.0103659619140625,1.04152548828125
-0.33570041015625,0.1035002880859375,1.121645400390625
-0.39989056640625,0.03904153076171875,1.0860092431640624
-0.4049966015625,0.12825441162109374,1.065610615234375
-0.343237890625,-0.01732924560546875,0.8574463037109374
-0.3553951171875,0.09345158447265625,0.9316678173828125
-0.29825615234375,0.03757098876953125,0.9120064892578125
-0.3223274609375,-0.06095532470703125,0.85474287109375
-0.3145468359375,0.022620478515625,0.838522275390625
-0.28609892578125,0.0182088525390625,0.7291561376953125
-0.20780638671875,-0.1033559521484375,0.766758427734375
-0.23990146484375,-0.01144707763671875,0.8731753662109375
-0.28172232421875,-0.16536380615234375,0.7984623193359375
-0.22920310546875,0.02041466552734375,0.7512751318359375
-0.30627992187499997,0.03855135009765625,0.7178508740234375
-0.3111428125,-0.01830960693359375,0.8773533984374999
-0.33813185546875,0.14443037353515625,1.051847685546875
-0.22531279296875,0.04982550537109375,1.10444173828125
-0.331566953125,0.07874616455078125,1.1612138232421876
-0.26518849609375,-0.0053198193359375,1.16735798828125
-0.37411724609375,0.0608545703125,1.05725455078125
-0.331566953125,-0.0254172265625,1.05725455078125
-0.30530734375,0.0044837939453125,1.0117877294921875
-0.34810078125,0.0407571630859375,0.99827056640625
-0.24573693359375,0.08609887451171874,0.9881941357421875
-0.31187224609374997,-0.1259042626953125,0.88226873046875
-0.24768208984375,0.06894255126953125,0.904387724609375
-0.337402421875,0.06257020263671875,0.9252778857421875
-0.53021603515625,0.01208159423828125,1.0761785791015626
-0.37508982421875,-0.0268877685546875,1.1086197705078125
-0.37022693359375003,0.14099910888671874,1.1327048974609375
-0.32791978515625,-0.04723026611328125,1.06020375
-0.2834243359375,-0.06193568603515625,1.005643564453125
-0.370470078125,0.03168882080078125,0.9547698779296875
-0.2347954296875,0.0123266845703125,1.0683140478515625
-0.5538010546875,-0.073454931640625,1.060695283203125
-0.3767918359375,0.05080586669921875,1.035135556640625
-0.29363640625,-0.0798272802734375,0.8200897802734375
-0.4215304296875,-0.06830803466796875,0.7861739892578125
-0.23066197265625,-0.0435539111328125,0.755944697265625
-0.2736985546875,-0.0082609033203125,0.6849181494140625
-0.29728357421875,0.17384121337890626,0.76921609375
-0.30166017578125,0.03315936279296875,0.8854636962890625
-0.29825615234375,0.03462990478515625,1.0778989453125
-0.3865176171875,0.00521906494140625,1.3135891162109374
-0.44949205078125,0.00791505859375,1.322190947265625
-0.33521412109375,-0.0180645166015625,1.1422897949218749
-0.49204234375,-0.02272123291015625,0.926015185546875
-0.3631757421875,0.0691876416015625,0.8618701025390625
-0.18981369140625,-0.0043394580078125,0.7586481298828125
-0.30263275390625,0.052031318359375,0.650756591796875
-0.30530734375,-0.07468038330078125,0.6234764990234375
-0.40694175781249997,-0.014633251953124999,0.6436293603515625
-0.33715927734375,0.028502646484374998,0.63846826171875
-0.347128203125,0.09982393310546875,0.6446124267578125
-0.23649744140625,-0.013652890625,0.6937657470703125
-0.3106565234375,0.15325362548828125,0.7645465283203124
-0.4322287890625,-0.02517213623046875,0.751029365234375
-0.27515742187500003,0.05889384765625,0.8065726171875
-0.27588685546875,0.0201695751953125,0.7748687255859374
-0.1764407421875,0.0162481298828125,0.8520394384765625
-0.41618125,0.12286242431640625,1.056271484375
-0.380195859375,0.04198261474609375,1.2172486083984375
-0.34056330078125,0.0250713818359375,1.3386573095703125
-0.4166675390625,-0.0038492773437499997,1.28827515625
-0.3344846875,-0.02713285888671875,1.042017021484375
-0.29387955078125,0.08805959716796875,0.9016842919921875
-0.35272052734375,0.0789912548828125,1.010558896484375
-0.428824765625,-0.0876701708984375,1.0658563818359374
-0.53118861328125,0.0686974609375,1.173747919921875
-0.39551396484375,0.01600303955078125,0.961897109375
-0.22482650390625,0.014777587890624999,0.9095488232421876
-0.22701480468750002,0.017718671875,1.053813818359375
-0.29776986328125,-0.09796396484375,1.0865007763671874
-0.32208431640625,-0.10948321044921874,0.9316678173828125
-0.28804408203125,-0.07124911865234375,0.86260740234375
-0.28585578125,-0.181294677734375,0.896523193359375
-0.4866931640625,-0.1013952294921875,0.97074470703125
-0.34202216796875,-0.04036773681640625,1.1508916259765625
-0.40669861328125,7.216796875000007e-05,1.279919091796875
-0.45921783203125,0.053992041015625,1.2924531884765624
-0.39210994140625,0.14418528320312501,1.108865537109375
-0.41156150390625,0.004973974609375,0.9085657568359375
-0.31333111328125,-0.01487834228515625,0.860149736328125
-0.07456318359375,-0.08350363525390625,0.8048522509765625
-0.2581373046875,0.050070595703125,0.6495277587890624
-0.3301080859375,-0.0072805419921875,0.52443255859375
-0.190543125,0.06404074462890624,0.5706366796875
-0.23795630859375,-0.0680629443359375,0.7694618603515625
-0.4254207421875,0.12580350830078124,1.0476696533203125
-0.5644994140625,0.15668489013671874,1.4435996484375
-0.5790880859375,0.2280061767578125,1.482430771484375
-0.4983641015625,0.158890703125,1.239613369140625
-0.29363640625,-0.114630107421875,0.97467697265625
-0.21364185546875,-0.020515419921875,0.970253173828125
-0.2347954296875,0.0760501708984375,0.9641090087890625
-0.38384302734375,-0.1004148681640625,0.9097945898437501
-0.23990146484375,-0.0332601171875,0.8839890966796875
-0.40937320312500003,0.02286556884765625,0.832623876953125
-0.39818855468750003,-0.02223105224609375,0.761843095703125
-0.26859251953125,-0.02419177490234375,0.6878673486328125
-0.42712275390625,-0.01953505859375,0.7581565966796875
-0.4575158203125,0.0721287255859375,0.89996392578125
-0.407428046875,0.03168882080078125,0.986965302734375
-0.39794541015625,0.01551285888671875,1.025304892578125
-0.4045103125,-0.1023755908203125,0.98942296875
-0.2172890234375,-0.09845414550781251,1.0801108447265624
-0.19467658203125,-0.00948635498046875,1.1961126806640625
-0.255705859375,-0.1587463671875,1.34234380859375
-0.3694975,0.0843832421875,1.4158280224609374
-0.4244481640625,0.01894412353515625,1.28925822265625
-0.41253408203124997,0.0255615625,1.2831140576171876
-0.57592720703125,0.00865032958984375,1.1543323583984375
-0.56571513671875,0.08658905517578125,0.841471474609375
-0.15358515625,0.0152677685546875,0.60701013671875
-0.31041337890625,-0.09575815185546875,0.6421547607421875
-0.29144810546875,-0.0332601171875,0.789368955078125
-0.36341888671875,-0.1229631787109375,1.0346440234375
-0.55453048828125,-0.08619962890625,1.1838243505859376
-0.38700390625000003,-0.04526954345703125,1.0604495166015624
-0.439523125,-0.06389640869140625,1.1159927685546875
-0.4935012109375,-0.19281392333984376,1.1022298388671874
-0.24087404296875,-0.08497417724609375,0.8289373779296875
-0.160393203125,-0.1062970361328125,0.83213234375
-0.39891798828125,-0.0690433056640625,1.1027213720703124
-0.44730375,-0.09918941650390625,1.1341794970703125
-0.675859609375,0.0525214990234375,1.058729150390625
-0.6301484375,0.00865032958984375,0.9464138134765625
-0.3811684375,0.07041309326171875,0.7869112890625
-0.28561263671875,0.106931552734375,0.926998251953125
-0.41447923828125,-0.03252484619140625,1.090187275390625
-0.423961875,0.0603643896484375,1.2025026123046876
-0.4225030078125,0.0397768017578125,1.1174673681640626
-0.38043900390625,-0.1033559521484375,0.9768888720703125
-0.31284482421875,-0.07762146728515625,0.737266435546875
-0.39162365234375,-0.22418548583984374,0.6583753564453125
-0.33326896484375,-0.29795767578125,0.6151204345703125
-0.31819400390625,-0.30580056640625,0.62667146484375
-0.46310814453125,-0.2709977392578125,0.709740576171875
-0.40694175781249997,-0.2111956982421875,0.663536455078125
-0.3301080859375,-0.24771415771484376,0.651248125
-0.38384302734375,0.04492369873046875,0.910286123046875
-0.3991611328125,0.13462676025390624,1.1388490625
-0.40718490234375,0.17482157470703125,1.309411083984375
-0.50930560546875,0.24197632568359376,1.27746142578125
-0.296554140625,0.10423555908203125,0.99237216796875
-0.3729015234375,0.05129604736328125,0.8360646093749999
-0.35101851562499997,0.05815857666015625,0.7542243310546874
-0.1647698046875,-0.03742665283203125,0.651739658203125
-0.333512109375,0.06158984130859375,0.8200897802734375
-0.561095390625,0.08903995849609375,0.8852179296875
-0.36730919921875,-0.05311243408203125,0.9124980224609375
-0.32889236328125,0.033404453125,1.0009739990234374
-0.2912049609375,-0.0710040283203125,1.0643817822265624
-0.0033218359375,-0.1229631787109375,1.288766689453125
-0.2999581640625,-0.11977700439453125,1.5711525146484375
-0.35417939453125,-0.083258544921875,1.493244501953125
-0.23528171875,-0.11757119140625,1.1789090185546875
-0.459947265625,-0.057769150390625,1.0845346435546874
-0.33861814453125,-0.011201987304687501,1.092153408203125
-0.304334765625,-0.2160975048828125,1.1066536376953124
-0.41302037109375,-0.03889719482421875,0.9660751416015625
-0.3417790234375,0.04786478271484375,0.757419296875
-0.191515703125,-0.0259074072265625,0.6824604833984375
-0.20634751953125,0.08364797119140625,0.8589209033203125
-0.33959072265625,0.1701648583984375,1.1046875048828124
-0.51611365234375,0.2182025634765625,1.17817171875
-0.34542619140624997,0.0025230712890624996,1.1604765234375
-0.09936392578125,0.12531332763671876,1.268122294921875
-0.40718490234375,-0.0141430712890625,1.2253589062499999
-0.33132380859375,0.2642795458984375,1.1327048974609375
-0.30311904296875003,-0.2136466015625,0.86064126953125
-0.2416034765625,-0.00507472900390625,0.8122252490234375
-0.401592578125,-0.1053166748046875,0.5625263818359375
-0.18349193359375,-0.20776443359375,0.5605602490234375
-0.29971501953125,-0.18791211669921876,0.62667146484375
-0.46067669921875,-0.126394443359375,0.7512751318359375
-0.33983386718749997,-0.2523708740234375,0.7945300537109374
-0.446331171875,-0.14722712158203125,0.8023945849609375
-0.22531279296875,0.05423713134765625,0.8242678125
-0.31819400390625,-0.00507472900390625,0.820335546875
-0.26178447265625,0.11992134033203125,1.0543053515625
-0.36244630859375,0.1863408203125,1.2605035302734375
-0.397702265625,0.221633828125,1.2781987255859375
-0.36487775390625,0.24393704833984375,1.086255009765625
-0.3252451953125,0.14001874755859375,0.944693447265625
-0.4059691796875,0.01453249755859375,0.9144641552734375
-0.37071322265625,-0.0063001806640625,0.861132802734375
-0.4594609765625,0.030463369140625002,0.7615973291015625
-0.45046462890625,-0.0376717431640625,0.6571465234375
-0.2766162890625,-0.006790361328125,0.635027529296875
-0.16720125,0.0887948681640625,0.6667314208984375
-0.41691068359375,0.044188427734375,0.7881401220703125
-0.24670951171875,0.01894412353515625,0.8618701025390625
-0.30360533203125,-0.07320984130859375,0.7928096875
-0.48012826171875,-0.0386521044921875,0.9336339501953125
-0.4759948046875,-0.1082577587890625,0.93437125
-0.31868029296875,-0.05360261474609375,0.82328474609375
-0.245980078125,0.032424091796875,0.6190527001953126
-0.31819400390625,0.0927163134765625,0.57751814453125
-0.2775888671875,0.1191860693359375,0.638959794921875
-0.2347954296875,-0.07615092529296875,0.8402426416015625
-0.39356880859375,0.1054610107421875,1.063644482421875
-0.46748474609375,0.12629368896484375,1.2270792724609374
-0.46164927734375,-0.12271808837890624,1.15556119140625
-0.48450486328125,0.1427147412109375,0.9891772021484375
-0.2882872265625,-0.04281864013671875,0.75840236328125
-0.31697828125,-0.14232531494140624,0.6947488134765625
-0.34785763671875003,-0.00360418701171875,0.580958876953125
-0.2649453515625,0.0348749951171875,0.55392455078125
-0.12465095703125,0.13119549560546875,0.668451787109375
-0.49568951171875,0.12163697265625,1.062661416015625
-0.613614609375,0.10668646240234375,1.16932412109375
-0.17327986328125,-0.0964934228515625,1.07101748046875
-0.403537734375,0.0044837939453125,1.0334151904296875
-0.24865466796875,0.2319276220703125,1.1010010058593749
-0.1910294140625,-0.12663953369140624,0.94125271484375
-0.3991611328125,0.008895419921875,0.9233117529296875
-0.3787369921875,0.248103583984375,1.129509931640625
-0.4730770703125,0.091245771484375,1.2624696630859376
-0.40280830078125,-0.00507472900390625,1.2531305322265625
-0.55939337890625,0.09247122314453125,1.322190947265625
-0.18495080078125,-0.16879507080078124,1.2152824755859375
-0.2892598046875,-0.14502130859375,1.079865078125
-0.49714837890625,-0.14673694091796874,1.0378389892578126
-0.316005703125,-0.23202837646484376,0.9336339501953125
-0.17473873046875,-0.048455717773437504,1.1366371630859375
-0.4312562109375,0.01159141357421875,1.4315570849609376
-0.598053359375,-0.2396261767578125,1.5514911865234375
-0.510521328125,0.0142874072265625,1.2963854541015625
-0.304334765625,0.10178465576171875,0.9609140429687499
-0.34639876953125,0.14124419921875,0.8574463037109374
-0.38432931640625,-0.04085791748046875,0.8048522509765625
-0.2085358203125,0.00987578125,0.8161575146484374
-0.27345541015625,0.10962754638671875,0.9380577490234375
-0.34153587890625,-0.0425735498046875,1.107882470703125
-0.32597462890625,-0.11487519775390626,1.2172486083984375
-0.31381740234375,0.019679394531249998,1.407717724609375
-0.66443181640625,-0.023456503906250002,1.394937861328125
-0.4030514453125,0.1309504052734375,1.243545634765625
-0.557205078125,-0.1013952294921875,0.8643277685546875
-0.3651208984375,0.0574233056640625,0.79772501953125
-0.1783858984375,-0.02076051025390625,1.06806828125
-0.308225078125,-0.16683434814453124,0.9321593505859375
-0.32694720703125,-0.03129939453125,0.6888504150390625
-0.14069849609375001,-0.19207865234375,0.6082389697265624
-0.37922328125,-0.03154448486328125,0.616349267578125
-0.43757796875,-0.0999246875,0.696960712890625
-0.1706052734375,-0.2278618408203125,1.0407881884765624
-0.52875716796875,0.02776737548828125,1.3558609716796874
-0.548451875,0.03855135009765625,1.2619781298828125
-0.3602580078125,-0.2513905126953125,1.051847685546875
-0.40426716796875,0.14908708984375,1.056271484375
-0.44997833984375,0.15717507080078125,0.9257694189453125
-0.25011353515625,-0.06193568603515625,0.7124440087890624
-0.13340416015625,0.12286242431640625,0.847369873046875
-0.2834243359375,-0.12124754638671875,0.9614055761718749
-0.19637859375,-0.202862626953125,0.9124980224609375
-0.35661083984374997,-0.02615249755859375,0.831640810546875
-0.46991619140625,0.065756376953125,0.644858193359375
-0.26421591796875,-0.07762146728515625,0.5615433154296875
-0.33108066406250003,-0.042083369140625,0.834590009765625
-0.595135625,-0.0308092138671875,0.9685328076171875
-0.40475345703125,-0.12663953369140624,0.98254150390625
-0.32281375,-0.1298257080078125,0.8530225048828125
-0.179844765625,-0.05409279541015625,0.8097675830078125
-0.2600824609375,-0.19526482666015624,0.837539208984375
-0.329621796875,0.1025199267578125,1.13393373046875
-0.47672423828125,0.01012087158203125,1.3661831689453126
-0.59975537109375,0.07923634521484375,1.4020650927734375
-0.44608802734374997,0.075559990234375,0.99040603515625
-0.166228671875,0.0574233056640625,0.7689703271484375
-0.35126166015625,-0.098944326171875,0.60307787109375
-0.37946642578125,-0.00654527099609375,0.5930014404296875
-0.33642984375,-0.153844560546875,0.67975705078125
-0.4565432421875,0.04835496337890625,0.9636174755859375
-0.397702265625,-0.04772044677734375,1.079865078125
-0.3048210546875,-0.1680597998046875,1.1562984912109375
-0.3320532421875,0.071638544921875,1.3189959814453125
-0.349073359375,-0.07860182861328124,1.194392314453125
-0.37265837890625,0.024091020507812498,1.1415524951171876
-0.42420501953125,0.0137972265625,1.1720275537109375
-0.3583128515625,-0.01928996826171875,1.0584833837890626
-0.37703498046875,-0.07443529296875,0.7719195263671875
-0.25108611328125,-0.14330567626953125,0.6785282177734375
-0.30457791015625,0.03757098876953125,0.6180696337890625
-0.33667298828125003,-0.14698203125,0.6146289013671875
-0.32986494140625,-0.22345021484375,0.7719195263671875
-0.43976626953125,-0.0004180126953125,0.8984893261718749
-0.35223423828125,-0.07051384765625,0.9636174755859375
-0.1881116796875,-0.071494208984375,0.988931435546875
-0.5314317578125,0.069677822265625,0.855234404296875
-0.17717017578125,-0.035711020507812496,0.6750874853515625
-0.1589343359375,-0.044534272460937496,0.5669501806640624
-0.27029453125,-0.0710040283203125,0.65911265625
-0.20002576171875,-0.09967959716796874,0.80755568359375
-0.4200715625,0.019434304199218752,0.8284458447265625
-0.2766162890625,0.05031568603515625,0.888658662109375
-0.34810078125,0.0123266845703125,0.9926179345703126
-0.46116298828125,0.1780077490234375,1.0928907080078125
-0.335457265625,0.04394333740234375,0.9739396728515625
-0.354908828125,0.0358553564453125,0.86653966796875
-0.335457265625,0.0819323388671875,0.912252255859375
-0.18640966796875,-0.0121823486328125,0.952557978515625
-0.47866939453125,0.12923477294921876,1.0127707958984375
-0.14264365234375,-0.011201987304687501,0.9911433349609375
-0.26275705078125,-0.063651318359375,0.970253173828125
-0.3301080859375,0.10129447509765625,1.166374921875
-0.3388612890625,-0.0308092138671875,1.14376439453125
-0.48110083984375,0.101049384765625,1.0732293798828125
-0.22336763671875,0.095167216796875,1.0162115283203126
-0.38870591796875,-0.04968116943359375,0.9911433349609375
-0.2566784375,0.09688284912109375,1.152120458984375
-0.37606240234375,0.10276501708984374,1.0565172509765626
-0.34226531250000003,-0.095022880859375,0.984999169921875
-0.3189234375,-0.052867343750000004,0.976151572265625
-0.20342978515625,0.0172284912109375,1.0525849853515625
-0.39551396484375,-0.1680597998046875,0.9115149560546875
-0.35709712890625,-0.06879821533203125,0.838522275390625
-0.35320681640625,-0.016593974609375,0.8146829150390625
-0.2688356640625,0.01600303955078125,0.8780906982421874
-0.237226875,-0.10580685546875,0.9324051171875
-0.1754681640625,0.08413815185546875,1.1381117626953126
-0.45435494140625,0.04712951171875,1.1685868212890624
-0.49277177734375,0.022620478515625,1.1243488330078124
-0.308225078125,-0.046004814453125,0.9473968798828125
-0.6072928515625,-0.08056255126953125,0.8058353173828126
-0.424934453125,-0.05874951171875,0.7298934375
-0.24476435546875,0.010856142578125,0.5227121923828125
-0.16647181640625,0.09541230712890625,0.433498916015625
-0.25473328125,0.1162449853515625,0.5042796972656249
-0.12610982421875,0.13070531494140625,0.7330884033203124
-0.39162365234375,0.15962597412109375,1.1037044384765624
-0.4691867578125,0.0740894482421875,1.45048111328125
-0.518301953125,0.1941837109375,1.468667841796875
-0.4545980859375,0.28560240478515625,1.2954023876953125
-0.3466419140625,0.1054610107421875,1.1346710302734375
-0.46894361328125,-0.046740085449218746,1.0358728564453126
-0.44317029296875,0.097127939453125,1.0712632470703125
-0.1633109375,0.02972809814453125,0.8967689599609375
-0.27418484375,-0.05017135009765625,0.7613515625
-0.30457791015625,-0.1111988427734375,0.834590009765625
-0.39600025390625,-0.04821062744140625,0.873912666015625
-0.3505322265625,0.03462990478515625,0.8692431005859375
-0.30846822265625,-0.09134652587890625,0.9559987109375
-0.4662690234375,-0.05899460205078125,1.1346710302734375
-0.35223423828125,0.0721287255859375,1.2115959765625
-0.60364568359375,-0.0161037939453125,1.0732293798828125
-0.296554140625,-0.0043394580078125,0.9999909326171875
-0.2960678515625,0.08266760986328126,0.902913125
-0.30311904296875003,0.0270321044921875,1.0191607275390624
-0.438550546875,0.1123235400390625,1.0982975732421876
-0.33375525390625,0.06673673828125,0.8864467626953125
-0.3194097265625,0.11011772705078125,0.81738634765625
-0.3291355078125,0.0191892138671875,0.9493630126953125
-0.35101851562499997,0.11943115966796874,1.0778989453125
-0.3485870703125,0.0294830078125,1.0582376171875
-0.531918046875,0.1966346142578125,0.992863701171875
-0.36779548828124997,0.13168567626953126,0.9685328076171875
-0.13243158203125,0.1162449853515625,1.1135351025390625
-0.146777109375,0.19933060791015625,1.300563486328125
-0.37654869140625,0.1495772705078125,1.4278705859375
-0.40669861328125,-0.0023787353515625003,1.3347250439453124
-0.31478998046875,0.05619785400390625,1.1351625634765625
-0.588327578125,0.033404453125,1.0471781201171875
-0.41399294921875,-0.0072805419921875,0.9763973388671875
-0.16136578125,-0.01193725830078125,0.761843095703125
-0.16987583984375,0.04737460205078125,0.7193254736328125
-0.144831953125,-0.09722869384765626,0.78396208984375
-0.1180860546875,-0.053847705078125,0.937811982421875
-0.2299325390625,-0.02076051025390625,1.141306728515625
-0.42760904296875,0.0103659619140625,1.4929987353515626
-0.500795546875,0.146146005859375,1.54288935546875
-0.50833302734375,0.087324326171875,1.4020650927734375
-0.5129527734375,0.13217585693359374,1.251410166015625
-0.3680386328125,0.1280093212890625,1.08379734375
-0.28269490234375,0.03855135009765625,0.83213234375
-0.14069849609375001,0.04737460205078125,0.6984353125
-0.1375376171875,0.14148928955078124,0.7468513330078125
-0.2503566796875,-0.03203466552734375,1.055779951171875
-0.339347578125,-0.040122646484374996,1.5333044580078126
-0.393811953125,0.013552136230468751,1.6389840966796876
-0.343237890625,-0.1553151025390625,1.4846426708984375
-0.48766574218750003,-0.08619962890625,1.1644087890625
-0.36220316406249997,-0.1425704052734375,0.8785822314453124
-0.37703498046875,-0.12860025634765626,0.8141913818359375
-0.3466419140625,0.02335574951171875,0.7404614013671875
-0.218747890625,0.11158826904296874,0.7773263916015625
-0.26154132812499997,0.1299700439453125,0.932896650390625
-0.2095083984375,0.1495772705078125,1.0579918505859376
-0.15577345703125,0.09737302978515625,1.10444173828125
-0.28269490234375,0.21550656982421876,1.1970957470703125
-0.37022693359375003,0.28266132080078127,1.2147909423828125
-0.34883021484375,0.33216956787109375,1.2315030712890624
-0.3972159765625,0.2789849658203125,1.2064348779296874
-0.20488865234375,0.28854348876953123,1.1125520361328125
-0.224583359375,0.2583973779296875,0.98450763671875
-0.21972046875,0.1182057080078125,0.9557529443359375
-0.2240970703125,0.20913422119140626,0.846386806640625
-0.296554140625,0.09835339111328124,0.78986048828125
-0.39648654296875,0.04345315673828125,0.6583753564453125
-0.1258666796875,-0.0523771630859375,0.582925009765625
-0.177899609375,-0.1915884716796875,0.5875945751953124
-0.36244630859375,-0.210705517578125,0.4750334716796875
-0.36682291015625,-0.21487205322265626,0.36910806640625
-0.172064140625,-0.18399067138671876,0.3585401025390625
-0.12343523437500001,-0.19771572998046874,0.4543890771484375
-0.109819140625,-0.10311086181640625,0.61979
-0.1399690625,0.0829127001953125,0.902421591796875
-0.34542619140624997,-0.03693647216796875,1.14966279296875
-0.36828177734375,-0.07762146728515625,1.1218911669921874
0.020506328125,0.00619942626953125,1.1287726318359375
-0.22434021484375,-0.22614620849609374,1.1290183984375
-0.61239888671875,-0.29967330810546877,0.9808211376953125
-0.4594609765625,-0.27859553955078126,0.6669771875
-0.459947265625,-0.22345021484375,0.5079661962890625
-0.31819400390625,-0.10409122314453124,0.3182343798828125
-0.11054857421875,0.021885207519531248,0.4322700830078125
-0.060947089843749996,0.12678386962890625,0.6716467529296875
-0.015479062500000002,0.195164072265625,0.86653966796875
0.04895423828125,0.19884042724609374,1.19881611328125
-0.2503566796875,0.4378035009765625,1.7530197998046875
-0.64376453125,0.32579721923828125,1.5283891259765625
-0.551369609375,0.318689599609375,1.218968974609375
-0.59100216796875,0.2456526806640625,1.19488384765625
-0.6007279492187501,0.2333981640625,1.0621698828125
-0.37265837890625,0.35226697509765625,0.9729566064453125
-0.17619759765625,0.28462204345703124,0.8613785693359375
-0.22701480468750002,0.31378779296875,0.8658023681640625
-0.1813036328125,0.37873673095703125,1.1290183984375
-0.3067662109375,0.32873830322265624,1.2600119970703125
-0.34493990234375,0.29197475341796875,0.9459222802734375
-0.1637972265625,0.0770305322265625,0.588331875
-0.187625390625,-0.0768861962890625,0.4303039501953125
-0.32451576171875,0.05570767333984375,0.457092509765625
-0.31819400390625,0.0436982470703125,0.519025693359375
-0.39356880859375,0.07090327392578125,0.6392055615234375
-0.46456701171875,0.1319307666015625,0.7281730712890625
-0.1424005078125,-0.0151234326171875,0.818860947265625
0.01345513671875,-0.1229631787109375,1.34234380859375
-0.4045103125,-0.037916833496093746,1.704603779296875
-0.51854509765625,0.0436982470703125,1.434260517578125
-0.3267040625,-0.15359947021484374,1.0700344140625
-0.20732009765625,-0.02517213623046875,0.97664310546875
0.073998125,0.00325834228515625,1.0348897900390626
-0.28464005859375,0.06453092529296875,1.1346710302734375
-0.45046462890625,0.21256548583984375,0.965337841796875
-0.452166640625,0.1780077490234375,0.5703909130859375
-0.17571130859375,0.01575794921875,0.448244912109375
0.0637860546875,-0.087179990234375,0.7802755908203125
0.13891771484374998,0.02531647216796875,1.218968974609375
-0.2416034765625,0.0956573974609375,1.9225987548828125
-0.6230972460937501,0.310846708984375,1.5829493115234374
-0.6354976171875,0.33216956787109375,1.4463030810546875
-0.27005138671875,-0.338152490234375,1.2152824755859375
-0.2931501171875,-0.07835673828125,1.4679305419921875
-0.24476435546875,0.17139031005859376,1.0869923095703125
-0.32013916015625,0.2162418408203125,0.69941837890625
-0.220693046875,0.2260454541015625,0.456109443359375
-0.01742421875,0.18952699462890624,0.3934389599609375
-0.031769746093749995,0.27579879150390624,1.06806828125
-0.27442798828125,0.38755998291015625,1.445074248046875
-0.456056953125,0.383393447265625,1.5613218505859374
-0.55307162109375,0.3103565283203125,1.359547470703125
-0.5644994140625,0.3270226708984375,1.154086591796875
-0.343237890625,0.1505576318359375,0.7507835986328125
-0.40086314453125,0.18560554931640624,0.707774443359375
-0.29582470703125,0.2789849658203125,0.645841259765625
-0.15382830078125,0.218692744140625,0.5352462890625
-0.11930177734375,0.23070217041015625,0.828691611328125
-0.2056180859375,0.0731090869140625,1.036118623046875
-0.24038775390625,-0.13938423095703126,1.176697119140625
-0.22701480468750002,0.069677822265625,1.331530078125
-0.3262177734375,0.09590248779296875,1.2536220654296875
-0.44851947265625003,0.067717099609375,1.0594664501953126
-0.3578265625,0.1093824560546875,0.8962774267578125
-0.37168580078125,0.07384435791015626,0.7517666650390625
-0.34980279296875,0.1289896826171875,0.702859111328125
-0.214857578125,0.134381669921875,0.669434853515625
-0.22361078125,0.06453092529296875,0.6760705517578125
-0.16695810546875,0.081442158203125,0.8419630078125
-0.25351755859375,0.0843832421875,0.9975332666015625
-0.252788125,0.15717507080078125,1.1351625634765625
-0.174009296875,0.0231106591796875,1.1341794970703125
-0.15431458984375,0.12163697265625,1.1120605029296875
-0.1511537109375,-0.02272123291015625,1.0614325830078124
-0.17303671874999998,-0.015368522949218751,1.0457035205078125
-0.2834243359375,-0.01634888427734375,0.9144641552734375
-0.30263275390625,-0.02174087158203125,0.8557259375
-0.29193439453125003,-0.0229663232421875,0.7837163232421875
-0.35174794921875,-0.0327699365234375,0.7515208984375
-0.2386857421875,0.13119549560546875,0.8176321142578125
-0.2022140625,0.11109808837890625,0.8279543115234375
-0.21461443359375,0.111833359375,0.853268271484375
-0.14312994140625,0.021640117187500002,0.92552365234375
-0.27394169921875,0.0564429443359375,1.0457035205078125
-0.252788125,0.0858537841796875,1.1017383056640626
-0.3252451953125,0.114774443359375,1.0353813232421876
-0.3135742578125,0.14590091552734374,0.93437125
-0.3602580078125,0.057913486328125,0.8970147265625
-0.2036729296875,0.036345537109375,0.9257694189453125
-0.3038484765625,0.12482314697265626,0.9803296044921875
-0.4643238671875,0.0378160791015625,0.9820499707031249
-0.4088869140625,0.04541387939453125,0.8820229638671875
-0.33813185546875,0.130460224609375,0.802148818359375
-0.33083751953125,0.06404074462890624,0.6451039599609375
-0.15869119140625,0.015022678222656249,0.6844266162109375
-0.17473873046875,0.12972495361328126,0.8235305126953125
-0.296554140625,0.1280093212890625,1.054796884765625
-0.34591248046875,0.12947986328125,1.2147909423828125
-0.41399294921875,0.10619628173828125,1.27254609375
-0.29971501953125,0.06502110595703126,1.20471451171875
-0.3388612890625,0.10962754638671875,1.078390478515625
-0.3505322265625,-0.02125069091796875,0.969270107421875
-0.33326896484375,0.04982550537109375,0.9680412744140625
-0.29776986328125,0.04884514404296875,0.851793671875
-0.37654869140625,0.04737460205078125,0.783470556640625
-0.23455228515625,0.0686974609375,0.7552073974609375
-0.30068759765624997,0.034384814453125,0.6741044189453125
-0.15285572265625,0.08805959716796875,0.71318130859375
-0.222638203125,0.103010107421875,0.770690693359375
-0.26032560546875,0.083402880859375,0.89209939453125
-0.2630001953125,0.052031318359375,0.945676513671875
-0.205131796875,-0.0004180126953125,0.9945840673828125
-0.23892888671875,0.0623251123046875,1.0884669091796875
-0.18349193359375,0.040266982421875,1.1958669140625
-0.356853984375,0.11771552734375,1.266156162109375
-0.3583128515625,0.19442880126953124,1.2723003271484374
-0.34493990234375,0.0348749951171875,1.099034873046875
-0.27515742187500003,0.1525183544921875,1.09854333984375
-0.205131796875,0.096147578125,0.984016103515625
-0.21704587890625,0.05325677001953125,0.8171405810546875
-0.14629082031250001,0.0917359521484375,0.7534870312499999
-0.1929745703125,0.10227483642578125,0.761843095703125
-0.221665625,-0.0013983740234375002,0.899472392578125
-0.29971501953125,0.05570767333984375,1.141306728515625
-0.343237890625,0.03904153076171875,1.2155282421875
-0.33326896484375,0.09418685546875,1.24010490234375
-0.27588685546875,0.16893940673828126,1.152120458984375
-0.323786328125,0.11158826904296874,1.0275167919921875
-0.2435486328125,0.1299700439453125,1.0093300634765625
-0.29922873046875,0.1652630517578125,1.046932353515625
-0.2805066015625,0.1407540185546875,1.0152284619140626
-0.251815546875,0.06158984130859375,0.9690243408203125
-0.24379177734375002,0.17678229736328124,0.9542783447265625
-0.22628537109375,0.128499501953125,0.961897109375
-0.3748466796875,0.0740894482421875,1.0464408203125
-0.29533841796875,0.20423241455078125,1.1056705712890624
-0.26761994140625,0.0348749951171875,0.9847534033203125
-0.33253953125,0.033404453125,1.0343982568359376
-0.33108066406250003,0.14908708984375,1.09657720703125
-0.41350666015625,-0.0190448779296875,0.9129895556640625
-0.31381740234375,0.0593840283203125,0.9346170166015625
-0.2532744140625,0.0927163134765625,1.009575830078125
-0.356853984375,-0.046249904785156254,0.9542783447265625
-0.22531279296875,0.155949619140625,1.023338759765625
-0.27199654296875,0.05913893798828125,0.846386806640625
-0.2484115234375,-0.02272123291015625,0.807064150390625
-0.2717533984375,0.07237381591796875,0.8490902392578125
-0.23139140625,0.05889384765625,0.948625712890625
-0.3476144921875,-0.0092412646484375,0.998762099609375
-0.29387955078125,0.06404074462890624,1.1005094726562499
-0.29776986328125,0.0652661962890625,1.11427240234375
-0.27613,0.1074217333984375,1.203239912109375
-0.2435486328125,0.138303115234375,1.132459130859375
-0.38530189453125,0.17972338134765625,1.0189149609375
-0.24038775390625,0.25128975830078126,1.0621698828125
-0.26810623046875,0.065756376953125,0.8812856640625
-0.2411171875,0.093206494140625,0.744147900390625
-0.1414279296875,0.04296297607421875,0.6087305029296874
-0.15625974609374998,-0.02419177490234375,0.63846826171875
-0.19953947265625,0.06796218994140625,0.7635634619140625
-0.31770771484375,0.10227483642578125,0.894557060546875
-0.40694175781249997,0.1329111279296875,1.05332228515625
-0.27491427734375,0.22383964111328125,1.1174673681640626
-0.36341888671875,0.30618999267578123,1.0678225146484375
-0.32111173828125,0.304964541015625,1.048406953125
-0.2805066015625,0.116735166015625,0.9729566064453125
-0.2970404296875,0.09149086181640625,0.9183964208984375
-0.23552486328125,0.0289928271484375,0.804114951171875
-0.30506419921875,0.0731090869140625,0.69351998046875
-0.13097271484375,0.03536517578125,0.638959794921875
-0.2591098828125,0.02286556884765625,0.8456495068359375
-0.33813185546875,0.138303115234375,1.0103131298828125
-0.39794541015625,0.09737302978515625,1.163917255859375
-0.36682291015625,0.16869431640625,1.245511767578125
-0.36974064453125,0.08168724853515624,1.1086197705078125
-0.3777644140625,0.00423870361328125,1.172764853515625
-0.3485870703125,0.04737460205078125,1.198324580078125
-0.3952708203125,-0.1004148681640625,1.0579918505859376
-0.2571647265625,0.101049384765625,0.937811982421875
-0.26907880859375,0.01159141357421875,0.735300302734375
-0.179844765625,-0.0562986083984375,0.73480876953125
-0.25059982421875,0.08266760986328126,0.867522734375
-0.195406015625,-0.008996174316406251,0.93732044921875
-0.29047552734375,0.12041152099609376,1.00220283203125
-0.22677166015625,0.16305723876953124,1.0174403613281249
-0.2999581640625,-0.02419177490234375,1.0732293798828125
-0.2474389453125,0.02752228515625,1.2403506689453125
-0.3835998828125,0.07090327392578125,1.2978600537109375
-0.43879369140625,0.128499501953125,1.28139369140625
-0.29752671875000003,0.19393862060546874,1.13000146484375
-0.4045103125,0.050070595703125,0.9847534033203125
-0.21461443359375,0.246142861328125,1.050864619140625
-0.3894353515625,0.17629211669921874,0.96288017578125
-0.2022140625,0.12139188232421876,0.78199595703125
-0.1696326953125,-0.00507472900390625,0.506245830078125
-0.12173322265625,-0.027868129882812502,0.410888388671875
-0.097175625,-0.07026875732421875,0.42219365234375
-0.14264365234375,-0.0915916162109375,0.611433935546875
-0.3164919921875,0.097127939453125,0.902913125
-0.4711319140625,0.015022678222656249,1.2516559326171874
-0.46651216796875,0.089285048828125,1.4856257373046875
-0.3164919921875,0.2726126171875,1.4910326025390626
-0.2717533984375,0.29344529541015624,1.23420650390625
-0.2688356640625,0.2515348486328125,1.0516019189453125
-0.30141703125,0.2760438818359375,1.1056705712890624
-0.38432931640625,0.10962754638671875,1.10247560546875
-0.3933256640625,0.00791505859375,1.03562708984375
-0.30555048828125,-0.09085634521484375,0.6534600244140625
-0.050491875000000006,-0.10801266845703125,0.368616533203125
-0.02982458984375,-0.10458140380859375,0.339124541015625
-0.08526154296874999,-0.15212892822265625,0.543602353515625
-0.2240970703125,-0.1631579931640625,0.8363103759765624
-0.43733482421875003,0.0985984814453125,1.130492998046875
-0.44754689453125,0.2255552734375,1.3858444970703125
-0.411318359375,0.2015364208984375,1.449989580078125
-0.3631757421875,0.18511536865234374,1.3883021630859376
-0.39940427734375,0.13413657958984376,1.2098756103515624
-0.43198564453125,0.1054610107421875,1.086255009765625
-0.36755234375,0.07433453857421875,0.93732044921875
-0.2279873828125,-0.03105430419921875,0.6215103662109375
-0.1287844140625,-0.023456503906250002,0.507228896484375
-0.112736875,-0.01683906494140625,0.4499652783203125
-0.31041337890625,0.0535018603515625,0.5561364501953125
-0.3427516015625,0.1534987158203125,0.733825703125
-0.26518849609375,0.1162449853515625,0.9297016845703125
-0.3816547265625,0.18021356201171876,1.177680185546875
-0.439523125,0.13805802490234376,1.4497438134765626
-0.56984859375,0.16305723876953124,1.5819662451171874
-0.501768125,-0.0200252392578125,1.3833868310546875
-0.3602580078125,0.089285048828125,1.0653648486328124
-0.2878009375,0.0035034326171875,0.918150654296875
-0.2367405859375,-0.050661530761718754,0.8692431005859375
-0.30992708984375,-0.0513968017578125,0.7672499609375
-0.117599765625,-0.07811164794921875,0.7542243310546874
-0.2542469921875,-0.0562986083984375,0.778555224609375
-0.35588140625,0.0064445166015625,0.83901380859375
-0.22677166015625,-0.0249270458984375,1.0963314404296876
-0.44317029296875,0.05227640869140625,1.2260962060546876
-0.3690112109375,0.1652630517578125,1.220935107421875
-0.30457791015625,0.056933125,1.0759328125
-0.40086314453125,0.16624341308593749,1.0707717138671875
-0.399647421875,0.10668646240234375,1.071509013671875
-0.26081189453125,0.0069346972656249995,1.102967138671875
-0.2143712890625,0.10031411376953125,1.2147909423828125
-0.39575710937499997,0.106931552734375,1.19488384765625
-0.28755779296875,-0.075415654296875,1.000728232421875
-0.32062544921875,-0.028358310546875,0.8884128955078126
-0.242089765625,-0.0513968017578125,0.8584293701171875
-0.26032560546875,-0.059729873046875,0.9609140429687499
-0.30627992187499997,0.03953171142578125,1.022355693359375
-0.40523974609375,0.0535018603515625,0.9719735400390626
-0.3378887109375,-0.00752563232421875,0.9655836083984375
-0.2766162890625,0.026051743164062502,0.8549886376953125
-0.41447923828125,-0.030073942871093752,0.839996875
-0.2143712890625,-0.02125069091796875,0.949608779296875
-0.29922873046875,0.0750698095703125,0.9837703369140625
-0.3524773828125,0.01012087158203125,1.07691587890625
-0.33472783203125,0.13952856689453125,1.197833046875
-0.3213548828125,-0.0803174609375,1.228799638671875
-0.3748466796875,0.07482471923828125,1.1818582177734376
-0.21801845703125,-0.08840544189453126,1.0171945947265626
-0.18106048828125,0.02923791748046875,1.1877566162109374
-0.3038484765625,0.06158984130859375,1.3649543359375
-0.35174794921875,0.09639266845703125,1.3799460986328125
-0.376305546875,0.1466361865234375,1.3602847705078125
-0.42177357421875,0.11256863037109376,1.141306728515625
-0.3505322265625,-0.010711806640625,0.9198710205078124
-0.2474389453125,-0.1190417333984375,0.7797840576171875
-0.26081189453125,-0.15556019287109374,0.8107506494140625
-0.230418828125,-0.21683277587890626,0.902421591796875
-0.3680386328125,-0.17639287109375001,1.0186691943359376
-0.3019033203125,-0.0641414990234375,0.9985163330078125
-0.3019033203125,-0.01781942626953125,0.884726396484375
-0.205131796875,-0.03203466552734375,0.8773533984374999
-0.19467658203125,-0.03693647216796875,0.8557259375
-0.22750109375,-0.0464949951171875,0.934862783203125
-0.3096839453125,0.0417375244140625,1.0034316650390624
-0.27807515625,0.03315936279296875,1.00023669921875
-0.4312562109375,0.05619785400390625,0.8638362353515625
-0.312115390625,0.049090234375,0.8068183837890625
-0.31989601562500003,-0.022476142578125,0.6888504150390625
-0.33035123046875,0.03462990478515625,0.713672841796875
-0.2406308984375,0.06281529296875,0.8235305126953125
-0.2941226953125,0.06355056396484375,0.8871840625
-0.2328502734375,0.11158826904296874,0.9277355517578125
-0.27248283203125,0.0843832421875,0.9360916162109375
-0.24136033203125,0.1309504052734375,1.0978060400390626
-0.21583015625000002,0.08903995849609375,1.1553154248046875
-0.37363095703125,-0.0161037939453125,1.159001923828125
-0.35344996093750003,0.0074248779296875,1.1769428857421875
-0.3213548828125,-0.16585398681640626,1.04545775390625
-0.38919220703125,-0.069533486328125,0.966320908203125
-0.252788125,-0.05164189208984375,0.8554801708984375
-0.31989601562500003,0.015022678222656249,0.7891231884765625
-0.300444453125,-0.01046671630859375,0.7866655224609375
-0.25473328125,-0.057769150390625,0.9183964208984375
-0.35758341796875,0.04688442138671875,1.083305810546875
-0.415208671875,0.12090170166015625,1.1290183984375
-0.354908828125,0.2201632861328125,1.06905134765625
-0.33861814453125,0.20668331787109376,0.9921264013671875
-0.26640421875,0.028502646484374998,0.987948369140625
-0.2474389453125,-0.06487677001953125,0.98647376953125
-0.31187224609374997,-0.0406128271484375,0.9901602685546875
-0.19856689453125,-0.122472998046875,1.0137538623046876
-0.36001486328125,-0.11487519775390626,1.0053977978515625
-0.33424154296874997,-0.098944326171875,0.925032119140625
-0.3437241796875,-0.1352176953125,0.812471015625
-0.3106565234375,-0.1337471533203125,0.7837163232421875
-0.29144810546875,0.0387964404296875,0.7237492724609375
-0.310170234375,0.21354584716796876,0.7613515625
-0.11468203125,0.2466330419921875,0.9827872705078124
-0.26154132812499997,0.18070374267578124,1.150154326171875
-0.21607330078125,0.28511222412109377,1.1607222900390626
-0.3495596484375,0.11992134033203125,0.9611598095703124
-0.32451576171875,0.00963069091796875,0.8618701025390625
-0.13340416015625,-0.15457983154296875,0.6888504150390625
0.06500177734375,-0.010221625976562499,0.8210728466796875
-0.29776986328125,-0.20751934326171875,1.190460048828125
-0.45046462890625,-0.324427431640625,1.2929447216796874
-0.43538966796875,-0.3077612890625,1.0221099267578124
-0.44851947265625003,-0.09918941650390625,0.7239950390625
-0.32013916015625,0.06502110595703126,0.53229708984375
-0.18251935546875,0.14786163818359374,0.5787469775390625
-0.07310431640625001,0.19295825927734375,0.8136998486328125
-0.3067662109375,0.16844922607421875,0.90586232421875
-0.221665625,-0.01781942626953125,0.9665666748046875
-0.006239570312500001,0.1466361865234375,1.0275167919921875
-0.3602580078125,-0.013407800292968751,1.0825685107421874
-0.56911916015625,-0.10360104248046875,1.258291630859375
-0.53799666015625,0.087324326171875,1.275003759765625
-0.40718490234375,0.08242251953125,1.1892312158203124
-0.44171142578125,0.10472573974609375,1.0756870458984376
-0.32086859375,0.22972180908203124,1.088221142578125
-0.2085358203125,0.0535018603515625,0.95108337890625
-0.1180860546875,0.0427178857421875,0.955507177734375
-0.16744439453124998,0.17825283935546876,1.0368559228515626
-0.23990146484375,0.212810576171875,1.168832587890625
-0.48742259765625,-0.00997653564453125,1.146222060546875
-0.46359443359375,0.04443351806640625,1.2575543310546875
-0.41885583984375,0.00570924560546875,1.1661291552734374
-0.38578818359375,-0.07566074462890625,1.057746083984375
-0.30166017578125,-0.0347306591796875,0.9714820068359376
-0.2941226953125,0.03021827880859375,0.8970147265625
-0.34834392578125,-0.0141430712890625,0.9090572900390625
-0.41885583984375,-0.0602200537109375,0.880794130859375
-0.35174794921875,-0.0033590966796874996,0.844420673828125
-0.2255559375,-0.08595453857421875,0.796741953125
-0.21801845703125,-0.044534272460937496,0.8572005371093749
-0.3466419140625,-0.0455146337890625,0.8984893261718749
-0.41423609375,0.05276658935546875,0.9832788037109375
-0.3933256640625,0.024091020507812498,0.9655836083984375
-0.3126016796875,0.20276187255859374,0.849336005859375
-0.25084296875,0.11698025634765626,0.731368037109375
-0.014992773437499999,0.08413815185546875,0.7099863427734375
-0.31041337890625,0.04884514404296875,0.7822417236328125
-0.23455228515625,-0.1886473876953125,0.718588173828125
-0.0198556640625,-0.186196484375,0.859166669921875
0.00227048828125,-0.2366850927734375,1.0958399072265625
0.09320654296875,-0.233253828125,1.436226650390625
-0.2980130078125,-0.1509034765625,1.7345873046875
-0.6384153515625,0.23854506103515624,1.506024365234375
-0.6082654296875,0.21697711181640625,1.2467406005859374
-0.4594609765625,-0.19526482666015624,1.2727918603515624
0.0190474609375,0.00619942626953125,1.4438454150390625
-0.15285572265625,0.1221271533203125,1.1705529541015625
-0.3446967578125,0.19614443359375,0.83213234375
-0.3223274609375,0.179478291015625,0.54802615234375
-0.28172232421875,0.18217428466796876,0.39860005859375003
-0.0286088671875,0.07727562255859374,0.47527923828124996
0.0389853125,0.0211499365234375,0.9316678173828125
-0.21850474609375,0.0883046875,1.0039231982421875
-0.504685859375,0.0505607763671875,1.063644482421875
-0.60315939453125,0.203006962890625,1.2187232080078125
-0.54626357421875,0.19810515625,1.117713134765625
-0.5285140234375,0.197124794921875,1.103950205078125
-0.31576255859375,0.27530861083984376,1.1073909375
-0.15771861328125,0.26673044921875,0.852285205078125
-0.21947732421875,0.0069346972656249995,0.7031048779296875
-0.23844259765625,0.01551285888671875,0.7298934375
-0.22093619140625,0.08805959716796875,0.8957858935546875
-0.25084296875,-0.13399224365234375,1.0535680517578125
-0.1044699609375,-0.028113220214843748,1.1784174853515625
-0.3563676953125,0.026051743164062502,1.07494974609375
-0.3612305859375,-0.00409436767578125,0.9591936767578125
-0.4769673828125,-0.01169216796875,0.7532412646484374
-0.45581380859375,0.05374695068359375,0.71711357421875
-0.43538966796875,0.1485969091796875,0.7212916064453125
-0.29047552734375,0.15619470947265626,0.84491220703125
-0.19832375,0.0201695751953125,0.9820499707031249
-0.26032560546875,-0.01193725830078125,1.0486527197265625
-0.27442798828125,0.134381669921875,1.15949345703125
-0.3738741015625,0.1672237744140625,1.41115845703125
-0.284883203125,0.28658276611328126,1.498159833984375
-0.34591248046875,0.07580508056640625,1.323665546875
-0.222638203125,0.16599832275390625,1.103950205078125
-0.24622322265625,0.08756941650390625,0.9493630126953125
-0.263486484375,0.0486000537109375,0.9124980224609375
-0.25400384765625,0.11256863037109376,0.8731753662109375
-0.34834392578125,0.03315936279296875,0.7561904638671875
-0.3660934765625,0.11060790771484375,0.786419755859375
-0.31333111328125,-0.0072805419921875,0.7021218115234376
-0.3563676953125,-0.01169216796875,0.659604189453125
-0.23260712890625002,-0.00581,0.7542243310546874
-0.2231244921875,0.030708459472656248,0.855234404296875
-0.32840607421875,-0.0308092138671875,0.979100771484375
-0.41691068359375,-0.09918941650390625,1.0638902490234374
-0.39089421875,0.049090234375,1.1626884228515626
-0.360744296875,-0.061690595703125004,1.0437373876953124
-0.31673513671875,0.08413815185546875,0.963371708984375
-0.11638404296875,0.0799716162109375,0.937811982421875
-0.2347954296875,0.0495804150390625,0.950591845703125
-0.1385101953125,0.0750698095703125,1.1199250341796876
-0.1540714453125,0.09026541015625,1.30498728515625
-0.3155194140625,0.3044743603515625,1.4740747070312499
-0.38043900390625,0.2882983984375,1.4659644091796875
-0.3884627734375,0.18854663330078125,1.4059973583984375
-0.4409819921875,0.17776265869140626,1.31186875
-0.302389609375,-0.10580685546875,1.0481611865234375
-0.28901666015625,-0.26266466796875,0.865065068359375
-0.25011353515625,-0.26094903564453126,0.6239680322265625
-0.25692158203125,-0.2555570483398438,0.4386600146484375
-0.24768208984375,-0.2484494287109375,0.43472774902343747
-0.2445212109375,-0.2580079516601563,0.48584720214843746
-0.2873146484375,-0.32565288330078124,0.6736128857421875
-0.15042427734375,-0.19183356201171875,0.926015185546875
-0.3291355078125,0.14418528320312501,0.9016842919921875
-0.23503857421875,0.23413343505859374,1.0117877294921875
-0.1404553515625,0.1505576318359375,0.93338818359375
-0.3797095703125,-0.0945327001953125,0.713672841796875
-0.24306234375,0.0495804150390625,0.5905437744140625
-0.30846822265625,0.0731090869140625,0.75840236328125
-0.49763466796875,0.1495772705078125,1.0226014599609374
-0.5401849609375,0.21305566650390625,1.2727918603515624
-0.34226531250000003,0.2917296630859375,1.4025566259765625
-0.46651216796875,0.2201632861328125,1.33251314453125
-0.22725794921875,0.09688284912109375,1.11034013671875
-0.19224513671875,0.013552136230468751,0.879811064453125
-0.190543125,0.00816014892578125,0.878827998046875
-0.26032560546875,0.101049384765625,0.7768348583984375
-0.28172232421875,-0.00997653564453125,0.7773263916015625
-0.26275705078125,0.0294830078125,0.9498545458984375
-0.4127772265625,0.18266446533203126,1.0692971142578125
-0.32354318359375,0.02752228515625,1.15752732421875
-0.4390368359375,-0.0200252392578125,1.276478359375
-0.3466419140625,-0.03301502685546875,1.2536220654296875
-0.23163455078125,-0.0004180126953125,1.19684998046875
-0.35077537109375,0.00399361328125,1.2393676025390625
-0.44754689453125,0.10423555908203125,1.182103984375
-0.44730375,-0.02174087158203125,1.08674654296875
-0.2853694921875,-0.03056412353515625,1.0049062646484375
-0.308225078125,-0.01830960693359375,0.957473310546875
-0.25303126953125,-0.03522083984375,0.89799779296875
-0.16063634765625,-0.0023787353515625003,0.80853875
-0.19808060546875,-0.0043394580078125,0.7846993896484376
-0.327676640625,-0.0778665576171875,0.81738634765625
-0.31697828125,0.04786478271484375,1.0098215966796875
-0.2104809765625,0.05497240234375,1.003677431640625
-0.279047734375,0.1000690234375,0.9609140429687499
-0.220693046875,0.008405239257812499,0.9881941357421875
-0.174009296875,-0.19722554931640626,1.148188193359375
-0.0743200390625,0.0133070458984375,1.468667841796875
-0.35588140625,-0.38055311767578126,1.5104481640625
-0.42225986328125,-0.41584612548828126,1.3352165771484374
-0.3787369921875,-0.35016191650390627,1.0727378466796875
-0.41302037109375,-0.319525625,0.97467697265625
-0.28415376953125,-0.069533486328125,0.976151572265625
0.047738515625,-0.22712656982421875,1.14966279296875
-0.2056180859375,0.16452778076171876,1.1464678271484374
-0.27491427734375,0.16869431640625,0.9267524853515625
-0.44292714843750003,0.06796218994140625,0.451194111328125
-0.40475345703125,0.01747358154296875,0.2273007373046875
-0.09644619140624999,-0.048945898437499996,0.2469620654296875
0.01491400390625,-0.106787216796875,0.6704179199218749
-0.12270580078125,0.0887948681640625,1.20668064453125
-0.5382398046875,0.1731059423828125,1.39346326171875
-0.83025638671875,0.0927163134765625,1.567466015625
-0.56474255859375,0.143204921875,1.2142994091796875
-0.18081734375,0.01894412353515625,0.996795966796875
-0.23066197265625,0.22531018310546874,0.9587021435546875
-0.14191421875,0.2133007568359375,0.8392595751953125
-0.0957167578125,0.087324326171875,0.8240220458984375
-0.39089421875,0.024091020507812498,0.9365831494140625
-0.338375,-0.042328459472656246,1.024321826171875
-0.3164919921875,-0.098944326171875,0.9599309765625
-0.1968648828125,-0.06928839599609375,0.84786140625
-0.19759431640625,-0.085219267578125,0.8427003076171875
-0.41593810546875,-0.030319033203124998,0.8834975634765625
-0.36536404296875,0.0358553564453125,0.9936010009765625
-0.33035123046875,0.0250713818359375,0.9788550048828125
-0.522192265625,-0.04036773681640625,0.9493630126953125
-0.2610550390625,0.02972809814453125,1.02186416015625
-0.2095083984375,-0.09526797119140624,0.9837703369140625
-0.27394169921875,0.0221302978515625,1.0555341845703126
-0.27540056640625,-0.08154291259765625,0.93732044921875
-0.3194097265625,-0.00581,0.913235322265625
-0.1667149609375,-0.0347306591796875,0.993355234375
-0.44900576171875,-0.092081796875,0.9992536328125
-0.2644590625,0.020659755859375,1.0432458544921874
-0.423961875,-0.1038461328125,0.84294607421875
-0.2036729296875,0.00472888427734375,0.7163762744140625
-0.2143712890625,-0.08056255126953125,0.698926845703125
-0.234309140625,0.05031568603515625,0.886692529296875
-0.277102578125,-0.11438501708984375,0.934862783203125
-0.2955815625,-0.07615092529296875,1.15162892578125
-0.3962433984375,-0.030319033203124998,1.2934362548828124
-0.42031470703125,-0.046004814453125,1.1966042138671875
-0.37654869140625,0.01992448486328125,1.0058893310546875
-0.35174794921875,-0.0724745703125,0.9041419580078125
-0.19224513671875,-0.13399224365234375,0.80362341796875
-0.189570546875,-0.128355166015625,0.7330884033203124
-0.1929745703125,-0.09281706787109376,0.8854636962890625
-0.3369161328125,-0.1602169091796875,0.852285205078125
-0.315033125,-0.1116890234375,0.8564632373046875
-0.29752671875000003,-0.1396293212890625,0.79379275390625
-0.3164919921875,-0.083258544921875,0.855234404296875
-0.32864921874999997,0.091245771484375,0.894557060546875
-0.2853694921875,-0.03546593017578125,0.9641090087890625
-0.299471875,0.05815857666015625,1.0899415087890625
-0.314060546875,-0.07026875732421875,1.0579918505859376
-0.302389609375,-0.0562986083984375,0.9559987109375
-0.2279873828125,0.04884514404296875,0.9650920751953125
-0.33764556640625,-0.14379585693359376,0.9179048876953125
-0.4419545703125,-0.10752248779296875,0.9016842919921875
-0.2503566796875,-0.12933552734375,0.923065986328125
-0.3033621875,-0.0945327001953125,0.9483799462890625
-0.2513292578125,-0.0332601171875,1.0157199951171876
-0.37265837890625,0.0574233056640625,1.04939001953125
-0.3748466796875,0.008895419921875,1.1322133642578125
-0.38967849609375,0.0294830078125,1.130492998046875
-0.41812640624999997,-0.12909043701171874,0.9646005419921875
-0.26664736328125,-0.09404251953125001,0.8721922998046875
-0.2989855859375,-0.0190448779296875,0.8943112939453125
-0.35904228515625003,-0.00654527099609375,0.9591936767578125
-0.46091984375,-0.0337502978515625,1.0267794921875
-0.30992708984375,-0.0298288525390625,1.0053977978515625
-0.2843969140625,-0.038161923828125,0.7920723876953125
-0.30214646484375,-0.11389483642578124,0.7323511035156249
-0.2163164453125,-0.10164031982421876,0.72694423828125
-0.17692703125,-0.1038461328125,0.8569547705078124
-0.32937865234375,-0.06585713134765625,1.028745625
-0.456056953125,-0.0612004150390625,1.1110774365234375
-0.226528515625,-0.02664267822265625,1.123611533203125
-0.5431026953125,0.05815857666015625,1.0560257177734376
-0.337402421875,-0.0016434643554687498,1.0520934521484375
-0.2873146484375,-0.13154134033203124,1.03562708984375
-0.28609892578125,0.02139502685546875,1.119187734375
-0.24938410156250002,-0.03938737548828125,1.17129025390625
-0.279047734375,-0.1317864306640625,1.100017939453125
-0.29339326171875,0.06158984130859375,1.0284998583984375
-0.41034578125,0.0172284912109375,1.0284998583984375
-0.46213556640625,0.010611052246093749,0.95108337890625
-0.39405509765625,-0.00654527099609375,0.78396208984375
-0.13243158203125,-0.08448399658203125,0.683197783203125
-0.29047552734375,-0.12467881103515625,0.6728755859375
-0.3641483203125,-0.17075579345703126,0.7153932080078125
-0.36390517578125,-0.11634573974609375,0.8304119775390625
-0.47332021484375,-0.08350363525390625,0.9744312060546875
-0.4589746875,-0.139139140625,1.0009739990234374
-0.4040240234375,-0.06340622802734375,1.0353813232421876
-0.28950294921874997,-0.05213207275390625,1.04545775390625
-0.3164919921875,-0.14869766357421876,0.985490703125
-0.31697828125,-0.1273748046875,0.8372934423828124
-0.2099946875,-0.09722869384765626,0.674350185546875
-0.23139140625,-0.07320984130859375,0.70335064453125
-0.30360533203125,-0.08987598388671875,0.8933282275390625
-0.33375525390625,-0.03987755615234375,1.0584833837890626
-0.5056584375,0.00766996826171875,1.0759328125
-0.43490337890624997,0.059874208984374996,0.9896687353515625
-0.30992708984375,0.07457962890625,0.88620099609375
-0.361716875,0.195164072265625,1.041033955078125
-0.39065107421875,0.174576484375,1.2157740087890625
-0.40621232421875,0.2182025634765625,1.2590289306640625
-0.29631099609375,0.19246807861328125,1.1558069580078125
-0.36366203125,0.08634396484375,0.9523122119140625
-0.146777109375,0.03708080810546875,0.9724650732421874
-0.210967265625,-0.01389798095703125,1.096085673828125
-0.3067662109375,0.0956573974609375,1.2705799609375
-0.45386865234375,0.04394333740234375,1.28827515625
-0.5333769140625,0.12090170166015625,1.076424345703125
-0.45727267578124997,-0.0562986083984375,0.8815314306640625
-0.36730919921875,-0.14428603759765624,0.809030283203125
-0.41739697265625,-0.13840386962890625,0.7419360009765625
-0.29922873046875,-0.13056097900390626,0.725469638671875
-0.35612455078125,-0.12933552734375,0.70728291015625
-0.40937320312500003,-0.163648173828125,0.66599412109375
-0.32864921874999997,-0.2170778662109375,0.7252238720703125
-0.2411171875,-0.21585241455078125,0.7655295947265625
-0.17862904296875,-0.140119501953125,0.7876485888671875
-0.37752126953125,-0.189137568359375,0.8223016796875
-0.3437241796875,-0.07664110595703125,0.9100403564453124
-0.333512109375,-0.04477936279296875,1.049881552734375
-0.561095390625,0.1534987158203125,1.1010010058593749
-0.54626357421875,0.23609415771484374,1.0555341845703126
-0.28950294921874997,0.1427147412109375,0.911269189453125
-0.29582470703125,0.11845079833984375,0.8427003076171875
-0.2532744140625,0.12188206298828125,0.914218388671875
-0.25886673828125,0.050070595703125,0.9557529443359375
-0.387976484375,0.11354899169921875,1.091661875
-0.44268400390625,0.016738310546875,1.1504000927734375
-0.2882872265625,-0.0092412646484375,1.1970957470703125
-0.27880458984375,-0.08105273193359375,1.1835785839843749
-0.28901666015625,-0.09012107421875,1.2418252685546876
-0.579574375,-0.012427438964843749,1.0879753759765625
-0.3729015234375,-0.012427438964843749,0.8127167822265625
-0.30798193359375,-0.03546593017578125,0.785436689453125
-0.34810078125,0.1157548046875,0.85081060546875
-0.30992708984375,-0.0876701708984375,0.956490244140625
-0.3544225390625,-0.055808427734375,1.07101748046875
-0.3369161328125,0.08462833251953125,1.0432458544921874
-0.36828177734375,-0.12418863037109375,0.886692529296875
-0.3388612890625,0.02776737548828125,0.964354775390625
-0.382141015625,0.0922261328125,1.005643564453125
-0.33959072265625,0.07482471923828125,1.0383305224609374
-0.4322287890625,0.04884514404296875,1.0385762890625
-0.30457791015625,0.12433296630859375,1.033169423828125
-0.4438997265625,0.11599989501953126,0.9700074072265625
-0.356853984375,0.1093824560546875,0.931913583984375
-0.3904079296875,-0.046740085449218746,0.87047193359375
-0.31235853515625,-0.0239466845703125,0.7915808544921875
-0.35588140625,-0.07811164794921875,0.6795112841796875
-0.28585578125,-0.07468038330078125,0.7252238720703125
-0.31770771484375,-0.16340308349609375,0.7987080859375
-0.3145468359375,-0.055808427734375,0.9960586669921875
-0.29436583984375,0.0074248779296875,1.12017080078125
-0.39210994140625,-0.0523771630859375,1.2654188623046876
-0.47380650390625,-0.0038492773437499997,1.311377216796875
-0.35563826171875,0.0515411376953125,1.148188193359375
-0.4215304296875,0.05889384765625,1.0825685107421874
-0.3942982421875,0.083402880859375,1.1010010058593749
-0.40913005859375,0.04394333740234375,1.0063808642578125
-0.4361191015625,-0.00213364501953125,0.9532952783203125
-0.2454937890625,0.04737460205078125,0.9287186181640625
-0.40572603515625,-0.092081796875,0.7640549951171876
-0.304334765625,0.0030132519531249997,0.699909912109375
-0.25108611328125,0.04345315673828125,0.7200627734375
-0.40645546875,-0.0229663232421875,0.8353273095703125
-0.44025255859375,0.13315621826171875,0.95108337890625
-0.34226531250000003,0.10399046875,0.953541044921875
-0.4594609765625,0.1035002880859375,0.9906518017578125
-0.29193439453125003,0.04712951171875,0.970253173828125
-0.3417790234375,0.0010525292968750002,0.9759058056640625
-0.2853694921875,0.09492212646484376,1.0791277783203126
-0.3563676953125,-0.0798272802734375,0.9916348681640625
-0.31478998046875,0.03168882080078125,1.0289913916015625
-0.33764556640625,0.0152677685546875,1.012525029296875
-0.46262185546875,-0.013652890625,0.9572275439453125
-0.32062544921875,0.096147578125,0.9557529443359375
-0.41739697265625,0.0054641552734375,0.8655566015625
-0.323786328125,0.1054610107421875,0.8989808593749999
-0.36974064453125,0.0054641552734375,0.813945615234375
-0.338375,0.0221302978515625,0.8122252490234375
-0.28755779296875,-0.02149578125,0.8136998486328125
-0.41107521484375,0.0010525292968750002,0.983033037109375
-0.23649744140625,-0.10972830078125,1.0260421923828125
-0.41982841796875,-0.11561046875,0.9862280029296875
-0.37071322265625,-0.0425735498046875,0.979100771484375
-0.38821962890625,-0.01291761962890625,0.8800568310546875
-0.30068759765624997,-0.01928996826171875,0.84884447265625
-0.3009307421875,0.0211499365234375,0.784453623046875
-0.3388612890625,0.0750698095703125,0.9331424169921875
-0.42055785156250003,0.073599267578125,0.956490244140625
-0.49423064453125,0.02678701416015625,0.8957858935546875
-0.304334765625,0.085363603515625,0.7741314257812499
-0.3816547265625,-0.023456503906250002,0.7200627734375
-0.3446967578125,0.008405239257812499,0.8992266259765624
-0.41934212890625,0.04002189208984375,0.9572275439453125
-0.41934212890625,0.02482629150390625,0.8992266259765624
-0.2445212109375,0.055952763671875,0.8717007666015625
-0.3680386328125,0.02237538818359375,1.0009739990234374
-0.25594900390624997,0.0750698095703125,1.08871267578125
-0.43587595703125,0.009140510253906251,1.063644482421875
-0.3651208984375,0.028257556152343752,1.0486527197265625
-0.347128203125,0.00816014892578125,0.8653108349609375
-0.4079143359375,-0.0513968017578125,0.8957858935546875
-0.34980279296875,0.07874616455078125,0.9990078662109375
-0.39745912109375,0.0010525292968750002,1.0098215966796875
-0.44292714843750003,-0.00213364501953125,1.009575830078125
-0.2931501171875,-0.0533575244140625,0.9896687353515625
-0.32281375,-0.01389798095703125,0.9242948193359375
-0.47769681640625,-0.1038461328125,0.94518498046875
-0.3145468359375,0.0505607763671875,1.0112961962890625
-0.32062544921875,-0.011201987304687501,0.966320908203125
-0.32062544921875,0.0936966748046875,1.0761785791015626
-0.42225986328125,-0.0006631030273437505,1.1317218310546875
-0.41642439453125,0.04320806640625,1.209138310546875
-0.39065107421875,-0.036201201171875,1.1644087890625
-0.54091439453125,-0.04698517578125,1.015474228515625
-0.4166675390625,-0.06267095703125,0.9144641552734375
-0.343237890625,0.0530116796875,0.7380037353515625
-0.3495596484375,-0.0827683642578125,0.6809858837890626
-0.21193984375,0.091245771484375,0.9218371533203125
-0.4088869140625,0.04100225341796875,1.156052724609375
-0.49082662109375,-0.02762303955078125,1.277952958984375
-0.39551396484375,0.12384278564453124,1.1388490625
-0.337402421875,0.00791505859375,0.9257694189453125
-0.4575158203125,-0.09085634521484375,0.904387724609375
-0.2484115234375,-0.175412509765625,0.9166760546875
-0.36390517578125,-0.08423890625,0.8427003076171875
-0.3748466796875,-0.06438658935546875,0.822793212890625
-0.2318776953125,-0.03129939453125,0.76626689453125
-0.438550546875,-0.04379900146484375,0.73480876953125
-0.25594900390624997,0.061834931640625,0.8780906982421874
-0.42931105468749997,-0.02713285888671875,0.8970147265625
-0.3884627734375,0.05105095703125,0.9955671337890625
-0.26907880859375,0.0037485229492187503,0.9127437890625
-0.42809533203125,0.040266982421875,0.9272440185546875
-0.27248283203125,0.02041466552734375,0.9552614111328125
-0.3106565234375,-0.034240478515625,0.867522734375
-0.3135742578125,0.17188049072265624,0.9365831494140625
-0.341292734375,0.03928662109375,0.91765912109375
-0.34007701171875,0.05913893798828125,1.062661416015625
-0.47234763671875,0.02237538818359375,1.1159927685546875
-0.42201671875,0.04541387939453125,1.091170341796875
-0.323786328125,-0.09036616455078125,0.8245135791015625
-0.345183046875,0.008405239257812499,0.678282451171875
-0.29631099609375,-0.04428918212890625,0.6411716943359375
-0.3378887109375,-0.09796396484375,0.664519521484375
-0.3106565234375,-0.07517056396484376,0.7606142626953125
-0.22385392578125,0.03315936279296875,0.84491220703125
-0.37338781249999997,-0.0455146337890625,0.932896650390625
-0.30457791015625,0.0270321044921875,1.0039231982421875
-0.25789416015625,0.10619628173828125,0.906353857421875
-0.284883203125,0.077520712890625,0.976151572265625
-0.4040240234375,0.03708080810546875,1.0953483740234375
-0.21583015625000002,0.11747043701171875,1.0810939111328124
-0.2639727734375,0.01649322021484375,1.0850261767578124
-0.4730770703125,0.0407571630859375,1.1250861328125
-0.41253408203124997,0.1417343798828125,1.0673309814453125
-0.42201671875,0.0133070458984375,0.889641728515625
-0.34542619140624997,0.04492369873046875,0.98254150390625
-0.36293259765625,0.02776737548828125,1.13786599609375
-0.3806821484375,-0.03252484619140625,1.0771616455078126
-0.27588685546875,0.053992041015625,0.9842618701171875
-0.36779548828124997,-0.06340622802734375,0.8122252490234375
-0.21193984375,0.055952763671875,0.864082001953125
-0.30263275390625,0.06011929931640625,1.06020375
-0.40913005859375,0.03757098876953125,1.2666476953124999
-0.44146828125,-0.0092412646484375,1.2745122265625
-0.46116298828125,-0.0415931884765625,1.1120605029296875
-0.41691068359375,-0.09183670654296874,0.9228202197265625
-0.426879609375,-0.149923115234375,0.823776279296875
-0.4049966015625,-0.0337502978515625,0.7242408056640625
-0.37338781249999997,-0.06683749267578125,0.6768078515625
-0.35563826171875,-0.09183670654296874,0.83704767578125
-0.35709712890625,-0.0210056005859375,0.842454541015625
-0.3019033203125,-0.0411030078125,0.7502920654296875
-0.23212083984375,0.053992041015625,0.789368955078125
-0.354908828125,0.02433611083984375,0.9105318896484375
-0.2800203125,0.05227640869140625,1.040050888671875
-0.35855599609375,0.0309535498046875,1.20668064453125
-0.48012826171875,0.030463369140625002,1.227816572265625
-0.37800755859375,0.06943273193359376,1.1346710302734375
-0.43879369140625,0.024581201171875,0.9370746826171875
-0.247925234375,0.04198261474609375,0.8984893261718749
-0.3019033203125,0.049090234375,0.9206083203125
-0.3894353515625,0.04541387939453125,1.0167030615234376
-0.43393080078125,0.01404231689453125,0.9842618701171875
-0.3578265625,0.01183650390625,0.84491220703125
-0.24038775390625,-0.065612041015625,0.8065726171875
-0.3057936328125,-0.02909358154296875,0.8417172412109375
-0.34202216796875,-0.061690595703125004,0.8766160986328125
-0.23260712890625002,-0.03595611083984375,0.7790467578125
-0.370470078125,0.11649007568359375,0.7360376025390625
-0.42177357421875,0.00619942626953125,0.7163762744140625
-0.2289599609375,-0.0376717431640625,0.6780366845703125
-0.28853037109375,0.11796061767578125,0.812471015625
-0.317950859375,0.07580508056640625,0.9518206787109375
-0.3884627734375,-0.0016434643554687498,1.037101689453125
-0.361716875,0.159871064453125,1.0353813232421876
-0.3033621875,0.00816014892578125,0.9542783447265625
-0.36341888671875,-0.0001729223632812504,0.984016103515625
-0.2561921484375,0.08903995849609375,1.1145181689453125
-0.39210994140625,0.02237538818359375,1.1268064990234374
-0.30263275390625,0.081442158203125,1.060695283203125
-0.35174794921875,-0.0053198193359375,0.9169218212890625
-0.32208431640625,-0.06634731201171876,0.8898874951171875
-0.3767918359375,-0.011201987304687501,0.8525309716796875
-0.31576255859375,0.02580665283203125,0.8989808593749999
-0.294608984375,-0.04428918212890625,0.9085657568359375
-0.38967849609375,-0.00777072265625,1.007609697265625
-0.345183046875,0.02727719482421875,1.04545775390625
-0.2853694921875,-0.04477936279296875,0.9562444775390625
-0.38287044921875,-0.00752563232421875,0.91176072265625
-0.32281375,0.0008074389648437498,1.0265337255859375
-0.315033125,-0.07026875732421875,1.032677890625
-0.28172232421875,-0.069533486328125,1.032186357421875
-0.335457265625,0.02335574951171875,1.040542421875
-0.34834392578125,-0.008751083984375,1.0466865869140625
-0.3213548828125,0.01575794921875,0.9990078662109375
-0.42055785156250003,0.0064445166015625,1.028745625
-0.28123603515625,0.004973974609375,1.01989802734375
-0.32013916015625,0.063795654296875,0.9577190771484375
-0.3116291015625,0.03413972412109375,1.0245675927734375
-0.37217208984375,0.09443194580078125,1.005643564453125
-0.36050115234375,0.061834931640625,1.001219765625
-0.34445361328125,0.0309535498046875,0.911269189453125
-0.3855450390625,0.05913893798828125,0.889641728515625
-0.21412814453125,-0.02321141357421875,0.8235305126953125
-0.360744296875,0.01698340087890625,0.831640810546875
-0.296554140625,-0.00997653564453125,0.955507177734375
-0.38578818359375,0.0373258984375,1.0692971142578125
-0.34737134765625,0.05864875732421875,1.1179589013671876
-0.41812640624999997,-0.01732924560546875,1.0747039794921875
-0.30895451171875,0.0417375244140625,1.148188193359375
-0.377278125,-0.047965537109375,1.012525029296875
-0.384086171875,0.0309535498046875,1.0343982568359376
-0.28123603515625,0.0037485229492187503,0.94321884765625
-0.4886383203125,-0.0994345068359375,0.8933282275390625
-0.294608984375,0.126538779296875,1.0078554638671875
-0.3631757421875,0.0064445166015625,0.89996392578125
-0.3242726171875,-0.0092412646484375,0.9301932177734376
-0.28804408203125,0.09002031982421875,0.908319990234375
-0.38432931640625,-0.11340465576171875,0.797233486328125
-0.30627992187499997,0.03610044677734375,0.890624794921875
-0.3077387890625,0.02580665283203125,0.89996392578125
-0.378250703125,-0.0788469189453125,0.8746499658203125
-0.39113736328125,0.00227798095703125,0.9316678173828125
-0.2717533984375,-0.03154448486328125,0.9245405859375
-0.3612305859375,-0.02762303955078125,0.946168046875
-0.37606240234375,-0.093062158203125,0.950591845703125
-0.240144609375,0.014777587890624999,0.9719735400390626
-0.3826273046875,-0.0504164404296875,0.965829375
-0.35126166015625,-0.01193725830078125,1.0432458544921874
-0.26640421875,0.017718671875,1.0029401318359374
-0.38505875,-0.03693647216796875,0.9994993994140625
-0.3281629296875,0.0378160791015625,1.0226014599609374
-0.39113736328125,0.02139502685546875,0.9110234228515625
-0.31989601562500003,0.06060947998046875,0.95894791015625
-0.35344996093750003,-0.04379900146484375,0.9002096923828125
-0.35077537109375,0.05325677001953125,0.9365831494140625
-0.27977716796875,-0.0474753564453125,0.8928366943359375
-0.3116291015625,0.01551285888671875,0.9213456201171875
-0.360744296875,-0.01193725830078125,0.998762099609375
-0.38578818359375,0.04394333740234375,1.0476696533203125
-0.37581925781250003,-0.008996174316406251,1.01596576171875
-0.29193439453125003,0.02237538818359375,0.993355234375
-0.31819400390625,-0.0001729223632812504,0.9188879541015624
-0.3388612890625,-0.00311400634765625,0.90782845703125
-0.3038484765625,0.04100225341796875,0.9523122119140625
-0.43927998046875,-0.0063001806640625,0.93437125
-0.32402947265625,-0.022476142578125,0.9508376123046876
-0.3417790234375,-0.05017135009765625,0.94223578125
-0.34299474609375,-0.01683906494140625,0.9700074072265625
-0.30895451171875,-0.01634888427734375,0.9542783447265625
-0.3826273046875,-0.0661022216796875,0.9048792578125
-0.3437241796875,-0.008751083984375,0.92159138671875
-0.32791978515625,-0.027868129882812502,0.9149556884765625
-0.331566953125,0.008405239257812499,0.9815584374999999
-0.33253953125,-0.0474753564453125,1.0014655322265624
-0.36196001953125,-0.06487677001953125,0.965337841796875
-0.3223274609375,-0.02027032958984375,0.959439443359375
-0.3573402734375,-0.0308092138671875,0.9542783447265625
-0.3320532421875,-0.032279755859375,0.9247863525390625
-0.3894353515625,-0.07075893798828126,0.8200897802734375
-0.25692158203125,0.075559990234375,0.93928658203125
-0.3913805078125,0.0064445166015625,0.957473310546875
-0.36244630859375,-0.07664110595703125,0.9547698779296875
-0.32597462890625,0.111833359375,0.9759058056640625
-0.32257060546875,0.02335574951171875,1.001711298828125
-0.27637314453125,-0.027868129882812502,0.9822957373046874
-0.34032015625,0.02972809814453125,1.023338759765625
-0.34931650390625,-0.016593974609375,1.00416896484375
-0.36220316406249997,0.0319339111328125,0.9638632421875
-0.2970404296875,0.0035034326171875,0.8989808593749999
-0.2921775390625,0.0250713818359375,0.882760263671875
-0.26907880859375,0.0137972265625,1.0014655322265624
-0.4332013671875,-0.00581,1.0358728564453126
-0.24695265625,0.08168724853515624,1.0594664501953126
-0.3889490625,-0.047965537109375,0.9105318896484375
-0.27783201171875,-0.01095689697265625,0.9245405859375
-0.33861814453125,-0.1249239013671875,0.7940385205078125
-0.24573693359375,0.040266982421875,0.8353273095703125
-0.23941517578125,0.07727562255859374,0.823776279296875
-0.347128203125,-0.030073942871093752,0.9985163330078125
-0.3213548828125,-0.04477936279296875,1.053813818359375
-0.35101851562499997,-0.0053198193359375,1.0461950537109375
-0.2970404296875,0.00472888427734375,0.9518206787109375
-0.27248283203125,-0.0690433056640625,0.8623616357421875
-0.30652306640625,-0.059729873046875,0.780521357421875
-0.31089966796875,0.011346323242187501,0.8834975634765625
-0.2367405859375,-0.081297822265625,0.8938197607421875
-0.23941517578125,0.11379408203125,1.048406953125
-0.27053767578125,0.059874208984374996,1.1066536376953124
-0.31235853515625,-0.0023787353515625003,1.08281427734375
-0.24719580078125,0.10202974609375,1.0250591259765625
-0.36779548828124997,0.04639424072265625,0.9405154150390624
-0.1589343359375,0.0686974609375,0.9636174755859375
-0.2610550390625,-0.077376376953125,0.8365561425781249
-0.2386857421875,-0.01193725830078125,0.913235322265625
-0.170118984375,0.01453249755859375,0.947642646484375
-0.30603677734375,-0.08203309326171875,0.997779033203125
-0.23892888671875,0.02360083984375,1.085271943359375
-0.304334765625,0.00619942626953125,1.053813818359375
-0.2814791796875,-0.06144550537109375,0.9655836083984375
-0.21412814453125,-0.04821062744140625,0.9223286865234375
-0.284883203125,-0.03987755615234375,0.9714820068359376
-0.2445212109375,-0.0592396923828125,0.9228202197265625
-0.25789416015625,-0.0999246875,0.9021758251953125
-0.27491427734375,0.010856142578125,0.9953213671875
-0.26956509765625,-0.03105430419921875,1.016948828125
-0.27151025390625,0.0008074389648437498,1.020389560546875
-0.284883203125,-0.011201987304687501,0.9611598095703124
-0.26032560546875,-0.0239466845703125,1.041033955078125
-0.23990146484375,-0.00777072265625,1.0535680517578125
-0.4137498046875,-0.03203466552734375,1.0157199951171876
-0.21947732421875,0.011346323242187501,1.04349162109375
-0.341292734375,-0.04330882080078125,0.9193794873046874
-0.31235853515625,0.0020328906249999995,0.954032578125
-0.30263275390625,-0.052867343750000004,0.8692431005859375
-0.300444453125,-0.0121823486328125,0.941744248046875
-0.35344996093750003,0.0721287255859375,0.969761640625
-0.27394169921875,-0.07860182861328124,0.9532952783203125
-0.3096839453125,0.0025230712890624996,0.9075826904296875
-0.38335673828125,-0.0175743359375,0.9552614111328125
-0.25497642578125,-0.0327699365234375,0.9655836083984375
-0.463837578125,-0.1347275146484375,0.9164302880859375
-0.36147373046875,-0.05360261474609375,1.011541962890625
-0.28391062499999997,-0.061690595703125004,0.8805483642578125
-0.27637314453125,0.04100225341796875,0.9134810888671875
-0.33764556640625,0.0064445166015625,0.96681244140625
-0.37022693359375003,-0.02174087158203125,1.0830600439453124
-0.31770771484375,-0.01732924560546875,0.9503460791015625
-0.2104809765625,-0.116590830078125,0.809030283203125
-0.24136033203125,-0.02909358154296875,0.8540055712890625
-0.30846822265625,0.0231106591796875,0.9360916162109375
-0.30652306640625,0.0378160791015625,1.0582376171875
-0.382141015625,0.04002189208984375,1.0825685107421874
-0.39259623046875003,0.0466393310546875,1.0412797216796874
-0.23795630859375,0.02286556884765625,0.8898874951171875
-0.26810623046875,0.03021827880859375,0.823776279296875
-0.28269490234375,0.010611052246093749,0.8520394384765625
-0.1997826171875,-0.0259074072265625,0.8537598046875
-0.3033621875,-0.10972830078125,0.82918314453125
-0.31333111328125,-0.01487834228515625,0.938795048828125
-0.216802734375,-0.07664110595703125,0.9552614111328125
-0.23455228515625,-0.0935523388671875,0.9832788037109375
-0.323786328125,0.024581201171875,1.079373544921875
-0.28804408203125,-0.0876701708984375,1.051847685546875
-0.228473671875,-0.08301345458984374,0.90586232421875
-0.21121041015625,-0.0298288525390625,0.91077765625
-0.30895451171875,-0.05997496337890625,1.0083469970703125
-0.27394169921875,-0.069533486328125,1.062661416015625
-0.3320532421875,0.0299731884765625,1.0609410498046874
-0.33521412109375,-0.00752563232421875,0.99630443359375
-0.2279873828125,-0.0386521044921875,0.9321593505859375
-0.20488865234375,-0.004829638671875,0.946168046875
-0.31722142578125,-0.08889562255859375,0.974185439453125
-0.22044990234375,-0.0004180126953125,1.041033955078125
-0.298499296875,-0.03497574951171875,0.918150654296875
-0.3320532421875,-0.03203466552734375,0.9400238818359374
-0.20804953125,-0.08007237060546875,0.9252778857421875
-0.33253953125,-0.04281864013671875,0.9287186181640625
-0.2255559375,-0.0582593310546875,1.02088109375
-0.411318359375,-0.0866898095703125,1.0071181640625
-0.273212265625,0.012816865234374999,1.0093300634765625
-0.35369310546875,-0.034240478515625,0.9031588916015625
-0.19953947265625,-0.01487834228515625,0.974185439453125
-0.37922328125,-0.03987755615234375,0.8721922998046875
-0.27029453125,-0.03448556884765625,1.0343982568359376
-0.31284482421875,-0.05703387939453125,0.963371708984375
-0.3369161328125,-0.07419020263671874,1.0137538623046876
-0.33521412109375,-0.0016434643554687498,1.0280083251953125
-0.30992708984375,-0.060710234375,0.9972875
-0.36341888671875,-0.06291604736328126,0.9196252539062499
-0.32257060546875,0.04712951171875,0.97860923828125
-0.29339326171875,-0.07566074462890625,0.9324051171875
-0.38092529296875,-0.0553182470703125,1.0130165625
-0.3889490625,-0.020515419921875,0.9808211376953125
