ax,ay,az
-0.411318359375,0.0711483642578125,1.0417712548828124
-0.1336473046875,0.1510478125,1.0078554638671875
-0.16647181640625,0.1015395654296875,0.988931435546875
-0.2411171875,0.1525183544921875,1.0363643896484376
-0.187625390625,0.05570767333984375,0.97074470703125
-0.27005138671875,0.0373258984375,0.87243806640625
-0.2450075,0.012816865234374999,0.824759345703125
-0.2912049609375,-0.014633251953124999,0.8368019091796874
-0.2279873828125,-0.098944326171875,0.843437607421875
-0.34883021484375,0.0201695751953125,0.953541044921875
-0.3388612890625,0.03757098876953125,1.001219765625
-0.28609892578125,-0.03399538818359375,0.98057537109375
-0.29193439453125003,0.049090234375,1.024813359375
-0.32889236328125,0.0686974609375,0.8805483642578125
-0.1477496875,-0.0337502978515625,0.7704449267578125
-0.1161408984375,0.055462583007812497,0.8323781103515625
-0.137051328125,0.015022678222656249,1.026287958984375
-0.3767918359375,-0.028358310546875,1.177680185546875
-0.34153587890625,-0.07026875732421875,1.1110774365234375
-0.2552195703125,-0.0945327001953125,0.926998251953125
-0.3408064453125,0.024091020507812498,0.7714279931640625
-0.22044990234375,-0.11561046875,0.6367478955078125
-0.2552195703125,-0.023456503906250002,0.6215103662109375
-0.20342978515625,-0.02149578125,0.6846723828125
-0.21583015625000002,-0.0935523388671875,0.7896147216796875
-0.317950859375,-0.035711020507812496,0.84687833984375
-0.11443888671875,-0.037916833496093746,0.92159138671875
-0.33132380859375,0.07825598388671876,1.0919076416015625
-0.2955815625,0.0378160791015625,1.16735798828125
-0.298499296875,0.14001874755859375,1.095594140625
-0.28026345703125,0.0495804150390625,0.954032578125
-0.0777240625,0.05570767333984375,0.8893959619140624
-0.325731484375,0.15129290283203126,0.8191067138671875
-0.26664736328125,0.12163697265625,1.012525029296875
-0.36098744140625,0.12555841796875,1.1277895654296874
-0.4589746875,0.1515379931640625,1.0461950537109375
-0.2231244921875,0.0868341455078125,0.8775991650390624
-0.1297569921875,0.038306259765625,0.78789435546875
-0.16209521484375,0.12923477294921876,0.89013326171875
-0.29728357421875,0.07188363525390624,1.0108046630859375
-0.42055785156250003,0.0883046875,1.1526119921875
-0.27880458984375,0.114774443359375,1.00416896484375
-0.27783201171875,-0.068553125,0.8014115185546875
-0.25254498046875,-0.1170810107421875,0.7842078564453125
-0.13243158203125,-0.07958218994140626,0.810013349609375
-0.3291355078125,-0.0038492773437499997,0.8485987060546875
-0.2454937890625,0.008895419921875,1.011541962890625
-0.37849384765625,-0.02370159423828125,1.10247560546875
-0.430769921875,0.0309535498046875,0.9874568359375
-0.11784291015625001,0.050070595703125,0.8584293701171875
-0.265431640625,0.06551128662109375,0.8144371484375
-0.232363984375,-0.04428918212890625,0.781504423828125
-0.16063634765625,0.064776015625,0.8692431005859375
-0.36439146484375,-0.03129939453125,0.8648193017578125
-0.21996361328125,0.06404074462890624,0.92748978515625
-0.30530734375,0.14786163818359374,1.016457294921875
-0.403537734375,0.05129604736328125,1.03169482421875
-0.257651015625,0.1201664306640625,0.97074470703125
-0.216802734375,0.20227169189453126,1.00220283203125
-0.20245720703125,0.046149150390625,1.1361456298828125
-0.24768208984375,0.0564429443359375,1.2059433447265624
-0.3656071875,0.067717099609375,1.180629384765625
-0.2454937890625,0.03119864013671875,1.0857634765625
-0.38141158203125003,0.0603643896484375,0.9911433349609375
-0.33521412109375,-0.01487834228515625,0.9675497412109375
-0.2309051171875,-0.07909200927734375,0.91077765625
-0.24573693359375,0.0255615625,0.94715111328125
-0.2474389453125,0.010856142578125,0.8830060302734375
-0.28512634765625,-0.03595611083984375,0.891607861328125
-0.28269490234375,0.09418685546875,0.918150654296875
-0.24622322265625,0.015022678222656249,0.8572005371093749
-0.12027435546875,0.09443194580078125,0.8481071728515625
-0.23114826171875,0.004973974609375,0.930930517578125
-0.19175884765625,-0.1533543798828125,0.9768888720703125
-0.27734572265625,0.0037485229492187503,1.099034873046875
-0.20294349609375,0.10595119140625,1.121645400390625
-0.277102578125,0.071638544921875,1.0869923095703125
-0.46019041015625,0.12482314697265626,1.087238076171875
-0.19370400390625,0.08168724853515624,1.043983154296875
-0.29582470703125,0.12947986328125,0.930438984375
-0.1793584765625,-0.061690595703125004,0.9434646142578125
-0.2309051171875,0.1191860693359375,0.9953213671875
-0.25546271484375,0.0221302978515625,0.9051250244140625
-0.17182099609375,0.08805959716796875,0.9685328076171875
-0.35174794921875,0.0069346972656249995,0.9714820068359376
-0.21801845703125,-0.038161923828125,1.0555341845703126
-0.3500459375,0.0299731884765625,1.0648733154296874
-0.27637314453125,0.0368357177734375,1.1705529541015625
-0.25059982421875,0.09418685546875,1.03366095703125
-0.28074974609375003,-0.0249270458984375,0.8756330322265625
-0.1910294140625,0.05423713134765625,0.9351085498046875
-0.31478998046875,-0.040122646484374996,1.02186416015625
-0.2756437109375,0.06404074462890624,1.1312302978515625
-0.19564916015625,-0.0043394580078125,1.0393135888671874
-0.30141703125,-0.061690595703125004,0.8783364648437499
-0.12562353515625,0.042227705078125,0.8250051123046875
-0.346155625,0.04933532470703125,0.8360646093749999
-0.2795340234375,0.10325519775390625,0.8970147265625
-0.29242068359375,0.12041152099609376,0.9380577490234375
-0.26154132812499997,0.13707766357421874,0.9665666748046875
-0.30409162109375,0.1005592041015625,0.8505648388671875
-0.14264365234375,0.140263837890625,0.87931953125
-0.3126016796875,0.0221302978515625,0.9070911572265625
-0.25084296875,-0.03350520751953125,0.87931953125
-0.29922873046875,0.0436982470703125,0.89013326171875
-0.3164919921875,0.00178780029296875,0.9370746826171875
-0.26129818359375,7.216796875000007e-05,0.9614055761718749
-0.2785614453125,0.034384814453125,0.880794130859375
-0.20804953125,-0.03350520751953125,0.83114927734375
-0.17717017578125,0.0133070458984375,0.9803296044921875
-0.30166017578125,-0.008751083984375,1.0648733154296874
-0.27345541015625,0.0407571630859375,1.111323203125
-0.338375,0.1270289599609375,1.038084755859375
-0.3111428125,0.02580665283203125,0.8810398974609375
-0.12610982421875,7.216796875000007e-05,0.8569547705078124
-0.1944334375,-0.03129939453125,0.8419630078125
-0.2800203125,-0.020515419921875,0.9953213671875
-0.32208431640625,-0.04772044677734375,0.9970417333984375
-0.25303126953125,0.0172284912109375,0.9498545458984375
-0.30506419921875,0.1299700439453125,0.9405154150390624
-0.2095083984375,0.09786321044921875,1.0191607275390624
-0.27491427734375,0.0686974609375,1.0388220556640624
-0.37168580078125,0.12923477294921876,0.916184521484375
-0.11346630859375,0.0476196923828125,0.7625803955078125
-0.166228671875,0.05619785400390625,0.76626689453125
-0.2143712890625,0.1338914892578125,0.830657744140625
-0.1433730859375,0.02090484619140625,0.8500733056640625
-0.397702265625,0.03757098876953125,0.9719735400390626
-0.25497642578125,0.10521592041015625,1.0255506591796875
-0.26178447265625,-0.029338671875,0.975168505859375
-0.2357680078125,0.0858537841796875,1.0678225146484375
-0.265431640625,-0.0141430712890625,1.0530765185546875
-0.24476435546875,-0.0092412646484375,1.096085673828125
-0.345183046875,-0.0229663232421875,0.983033037109375
-0.19856689453125,0.08854977783203125,1.0260421923828125
-0.2892598046875,-0.00703545166015625,1.045949287109375
-0.27102396484375,-0.11781628173828125,1.0307117578125
-0.177899609375,-0.0249270458984375,0.9778719384765625
-0.29436583984375,-0.10972830078125,0.7940385205078125
-0.13145900390625,0.0544822216796875,0.8972604931640625
-0.30457791015625,0.04835496337890625,1.1032129052734374
-0.35272052734375,0.12237224365234375,1.245020234375
-0.37363095703125,0.255946474609375,1.22437583984375
-0.29047552734375,0.13217585693359374,1.1656376220703124
-0.29339326171875,0.1436951025390625,0.99433830078125
-0.2722396875,0.22678072509765626,0.9233117529296875
-0.23892888671875,-0.06095532470703125,0.908319990234375
-0.23601115234375,-0.063651318359375,0.8987350927734374
-0.20537494140625,0.02237538818359375,0.781504423828125
-0.2202067578125,-0.0337502978515625,0.8756330322265625
-0.34883021484375,-0.0406128271484375,1.008592763671875
-0.40280830078125,-0.01389798095703125,0.941744248046875
-0.2386857421875,-0.03448556884765625,0.7507835986328125
-0.23552486328125,-0.06291604736328126,0.7596311962890625
-0.34785763671875003,-0.05801424072265625,0.8751414990234375
-0.2566784375,0.0137972265625,0.9795923046875
-0.2892598046875,0.0015427099609375003,1.02383029296875
-0.31089966796875,0.03953171142578125,1.0147369287109376
-0.294608984375,0.03806116943359375,0.9714820068359376
-0.1929745703125,0.0008074389648437498,0.9257694189453125
-0.20586123046875,0.1260485986328125,1.053813818359375
-0.3476144921875,0.04884514404296875,1.1880023828125
-0.2639727734375,0.030708459472656248,1.2949108544921875
-0.3767918359375,0.030463369140625002,1.2393676025390625
-0.3271903515625,0.01845394287109375,0.9552614111328125
-0.13607875,0.07629526123046874,0.7537327978515624
-0.28074974609375003,0.10325519775390625,0.7920723876953125
-0.28853037109375,-0.08497417724609375,0.9714820068359376
-0.15236943359375,-0.079337099609375,1.20471451171875
-0.36001486328125,-0.00605509033203125,1.3116229833984374
-0.42517759765625,-0.02517213623046875,1.1420440283203126
-0.22579908203125,-0.07419020263671874,0.8471241064453126
-0.1783858984375,0.05325677001953125,0.7448852001953125
-0.296554140625,0.06551128662109375,0.76430076171875
-0.16452666015625,0.04051207275390625,0.988931435546875
-0.30360533203125,0.00717978759765625,1.1051790380859374
-0.2805066015625,-0.044534272460937496,1.127052265625
-0.2571647265625,0.00423870361328125,0.95108337890625
-0.20780638671875,-0.11536537841796875,1.02383029296875
-0.405482890625,0.056933125,1.12312
-0.41010263671875,-0.09281706787109376,0.8628531689453125
-0.1414279296875,0.015022678222656249,0.78494515625
-0.26129818359375,-0.0876701708984375,0.897506259765625
-0.31965287109375,-0.112669384765625,1.0191607275390624
-0.13875333984375,0.0093856005859375,1.1238572998046874
-0.3583128515625,-0.0494360791015625,1.0575003173828126
-0.2309051171875,0.10080429443359375,0.9454307470703125
-0.19127255859375,0.0035034326171875,0.82721701171875
-0.1103054296875,0.0584036669921875,1.1046875048828124
-0.28464005859375,0.03119864013671875,1.3150637158203125
-0.2649453515625,0.169674677734375,1.378225732421875
-0.4030514453125,0.15031254150390624,1.1331964306640625
-0.4098594921875,-0.03448556884765625,0.9245405859375
-0.27005138671875,0.13070531494140625,0.8294289111328125
-0.25886673828125,0.01159141357421875,0.8778449316406249
-0.15625974609374998,0.0603643896484375,1.02383029296875
-0.33618669921875,0.1074217333984375,1.0904330419921875
-0.1920019921875,-0.006790361328125,1.028254091796875
-0.3155194140625,0.0294830078125,0.9179048876953125
-0.2931501171875,0.0456589697265625,0.89603166015625
-0.19905318359375002,-0.091101435546875,0.765283828125
-0.31430369140625003,-0.03154448486328125,0.775606025390625
-0.18081734375,-0.07320984130859375,0.866048134765625
-0.30166017578125,-0.00605509033203125,1.05135615234375
-0.3835998828125,-0.0018885546875000003,1.02186416015625
-0.28609892578125,-0.08987598388671875,0.92355751953125
-0.190543125,0.08707923583984375,0.927981318359375
-0.29728357421875,0.06894255126953125,0.8643277685546875
-0.1200312109375,0.033404453125,1.0275167919921875
-0.299471875,-0.09526797119140624,1.12803533203125
-0.265431640625,-0.0960032421875,1.096085673828125
-0.34056330078125,-0.07835673828125,0.9523122119140625
-0.2639727734375,-0.14673694091796874,0.757910830078125
-0.18689595703125,0.014777587890624999,0.6337986962890625
-0.2630001953125,-0.0396324658203125,0.6475616259765625
-0.14629082031250001,-0.0018885546875000003,0.739232568359375
-0.21753216796875,0.1544790771484375,0.9945840673828125
-0.3184371484375,0.169674677734375,1.1762055859375
-0.3111428125,-0.006790361328125,1.17325638671875
-0.10228166015625,0.2750635205078125,1.1656376220703124
-0.32475890625,0.13658748291015624,1.156052724609375
-0.35661083984374997,0.18168410400390625,1.3199790478515625
-0.35223423828125,0.14246965087890626,1.213562109375
-0.38700390625000003,-0.00801581298828125,1.051847685546875
-0.19419029296875,0.01110123291015625,0.99827056640625
-0.27831830078124997,-0.06928839599609375,0.883251796875
-0.15966376953125,-0.136198056640625,0.8363103759765624
-0.27394169921875,-0.10065995849609374,0.8589209033203125
-0.2566784375,0.01551285888671875,0.9429730810546875
-0.27637314453125,-0.07271966064453125,0.970253173828125
-0.3602580078125,-0.1788437744140625,0.9402696484374999
-0.15577345703125,-0.05556333740234375,0.9311762841796875
-0.40621232421875,-0.08056255126953125,0.8997181591796874
-0.31235853515625,-0.065612041015625,0.8078014501953125
-0.236254296875,-0.0009081933593750001,0.721537373046875
-0.19467658203125,-0.028113220214843748,0.69548611328125
-0.11492517578125,0.01845394287109375,0.76626689453125
-0.2591098828125,0.00399361328125,0.9793465380859375
-0.29971501953125,0.1025199267578125,1.12312
-0.31746457031249997,0.01992448486328125,1.031203291015625
-0.38457246093749997,0.02972809814453125,0.9756600390625
-0.21899103515625,0.06109966064453125,1.012525029296875
-0.220693046875,0.0020328906249999995,0.92945591796875
-0.40913005859375,0.1074217333984375,0.9188879541015624
-0.18057419921875,0.0338946337890625,0.9498545458984375
-0.3515048046875,0.11943115966796874,1.016948828125
-0.4400094140625,0.05913893798828125,1.07298361328125
-0.17182099609375,0.18609572998046875,0.96288017578125
-0.11079171875,0.008895419921875,0.8102591162109375
0.0020273437500000005,-0.08963089355468751,0.9842618701171875
-0.30700935546875,0.07776580322265625,1.437209716796875
-0.5168430859375,-0.040122646484374996,1.36593740234375
-0.39940427734375,-0.04870080810546875,1.1533492919921875
-0.496905234375,0.06845237060546874,1.0678225146484375
-0.4278521875,-0.13840386962890625,0.7947758203124999
-0.10908970703125,-0.083258544921875,0.57161974609375
-0.10811712890625,-0.08252327392578125,0.5448311865234375
-0.0714023046875,-0.08840544189453126,0.69745224609375
-0.11054857421875,-0.06389640869140625,1.16145958984375
-0.35904228515625003,0.083402880859375,1.4241840869140625
-0.5217059765625,0.22531018310546874,1.487346103515625
-0.49374435546875,0.2338883447265625,1.2194605078125
-0.33278267578125,0.065756376953125,1.0909245751953125
-0.30141703125,0.05913893798828125,1.032186357421875
-0.21461443359375,-0.018554697265625,1.0112961962890625
-0.26567478515625,-0.03203466552734375,0.8736668994140625
-0.234309140625,-0.0371815625,0.8382765087890625
-0.2260422265625,-0.0964934228515625,0.7736398925781249
-0.21072412109375,-0.03595611083984375,0.74267330078125
-0.24670951171875,0.02433611083984375,0.719571240234375
-0.08331638671875,0.0642858349609375,0.888658662109375
-0.1949197265625,0.22334946044921875,1.2113502099609375
-0.27929087890625,0.0843832421875,1.437209716796875
-0.25473328125,0.1329111279296875,1.500125966796875
-0.42201671875,0.20717349853515626,1.3828952978515625
-0.5212196875,0.13168567626953126,1.2017653125
-0.42371873046874997,0.16991976806640624,1.0570087841796876
-0.022773398437500002,-0.075415654296875,0.876861865234375
0.13210966796875,-0.09796396484375,1.003677431640625
-0.129270703125,-0.09918941650390625,1.5755763134765626
-0.49082662109375,-0.1513936572265625,1.4094380908203126
-0.17717017578125,0.0530116796875,1.1887396826171874
-0.54966759765625,0.067717099609375,1.1410609619140626
-0.41618125,0.00472888427734375,1.1051790380859374
-0.181789921875,0.00717978759765625,0.9174133544921875
-0.26761994140625,-0.04306373046875,0.6819689501953125
-0.15820490234375,-0.038161923828125,0.53033095703125
-0.0018629687499999992,-0.0582593310546875,0.651248125
-0.33132380859375,-0.0055649096679687505,0.9245405859375
-0.4808576953125,0.07629526123046874,1.1597392236328126
-0.35028908203125,0.0770305322265625,1.1572815576171875
-0.1988100390625,0.016738310546875,1.1538408251953125
-0.21607330078125,-0.01634888427734375,1.0039231982421875
-0.30749564453125,0.04051207275390625,0.8785822314453124
-0.3904079296875,0.0294830078125,0.8195982470703125
-0.232363984375,-0.0043394580078125,0.8279543115234375
-0.1774133203125,0.00178780029296875,0.9481341796875
-0.2843969140625,0.02360083984375,0.9754142724609375
-0.18859796875,0.14516564453125,0.8746499658203125
-0.14604767578125,0.09786321044921875,0.7901062548828125
-0.14458880859375,0.153988896484375,1.0142453955078126
-0.27248283203125,0.13805802490234376,1.138357529296875
-0.26616107421875,0.11207844970703125,1.0919076416015625
-0.3067662109375,-0.077376376953125,0.8874298291015625
-0.13778076171875,0.07188363525390624,0.992863701171875
-0.47186134765625,-0.1062970361328125,1.0267794921875
-0.32597462890625,-0.13938423095703126,0.8653108349609375
-0.1219763671875,-0.04379900146484375,0.698926845703125
-0.302389609375,-0.12222790771484375,0.6414174609375
-0.11103486328125,-0.138158779296875,0.7193254736328125
-0.11225058593750001,-0.14134495361328125,0.759876962890625
-0.19029998046875,-0.073454931640625,0.6569007568359375
-0.10957599609375,-0.11585555908203125,0.598654072265625
-0.160393203125,0.040266982421875,0.765775361328125
-0.33983386718749997,0.0255615625,0.7861739892578125
-0.06726884765625,0.1652630517578125,0.917167587890625
-0.189570546875,0.175556845703125,1.1715360205078125
-0.39308251953125,0.18217428466796876,1.3278435791015626
-0.23795630859375,0.23658433837890624,1.3964124609375
-0.4263933203125,0.1348718505859375,1.3497168066406249
-0.3816547265625,0.10374537841796876,1.1302472314453125
-0.259596171875,-0.05801424072265625,1.032186357421875
-0.3009307421875,-0.0308092138671875,0.9572275439453125
-0.1978374609375,-0.06683749267578125,0.7394783349609375
-0.11541146484375,0.0142874072265625,0.83508154296875
-0.2766162890625,-0.11389483642578124,0.9670582080078125
-0.304334765625,-0.032279755859375,1.0412797216796874
-0.31989601562500003,0.0074248779296875,0.7987080859375
-0.40913005859375,-0.0504164404296875,0.7340714697265625
-0.28609892578125,0.06551128662109375,0.5984083056640626
-0.1628246484375,-0.11977700439453125,0.5010847314453125
-0.1764407421875,-0.21560732421875,0.5423735205078125
-0.252788125,-0.20457825927734374,0.591772607421875
-0.18786853515625002,0.0044837939453125,0.64633279296875
-0.2878009375,-0.08987598388671875,0.8166490478515624
-0.35199109375,0.05374695068359375,1.0346440234375
-0.2056180859375,0.17776265869140626,1.157035791015625
-0.2980130078125,0.0922261328125,1.275003759765625
-0.2299325390625,0.24246650634765626,1.2088925439453124
-0.31138595703125,0.1936935302734375,0.915201455078125
-0.16890326171875,0.0221302978515625,0.7434106005859376
-0.174981875,0.05668803466796875,0.7729025927734375
-0.38821962890625,0.0329142724609375,0.94518498046875
-0.323786328125,-0.0661022216796875,1.1223827001953124
-0.31333111328125,0.09026541015625,1.1828412841796876
-0.45970412109375003,0.049090234375,1.054796884765625
-0.3164919921875,-0.095022880859375,0.721537373046875
-0.10665826171875001,-0.08938580322265625,0.63846826171875
-0.21947732421875,-0.16193254150390626,0.5431108203125
-0.11468203125,-0.2092349755859375,0.5236952587890625
0.008592246093749999,-0.18031431640625,0.76036849609375
-0.15723232421875,-0.2200189501953125,1.154086591796875
-0.3767918359375,-0.17565760009765624,1.4369639501953124
-0.438550546875,0.07874616455078125,1.5662371826171875
-0.4283384765625,0.08217742919921875,1.3514371728515624
-0.28658521484375,0.16354741943359374,1.04152548828125
-0.32864921874999997,0.197124794921875,0.936828916015625
-0.2921775390625,0.11305881103515625,0.9916348681640625
-0.12951384765625001,0.009140510253906251,1.1250861328125
-0.3111428125,0.0456589697265625,1.1469593603515624
-0.2668905078125,-0.08987598388671875,0.9095488232421876
-0.1978374609375,0.02090484619140625,0.83213234375
-0.2114535546875,0.1946738916015625,0.8849721630859375
-0.33910443359375,0.20398732421875,1.0700344140625
-0.42566388671875,0.12531332763671876,1.2391218359375
-0.434660234375,0.24344686767578125,1.4163195556640624
-0.42663646484375,0.2662402685546875,1.1597392236328126
-0.370470078125,0.17923320068359375,0.7964961865234375
-0.15577345703125,-0.008751083984375,0.635027529296875
0.004458789062499999,0.03757098876953125,0.6249510986328125
-0.1385101953125,0.059874208984374996,0.742181767578125
-0.216802734375,-0.0817880029296875,1.048406953125
-0.333512109375,-0.11291447509765624,1.41410765625
-0.528027734375,-0.1043363134765625,1.335953876953125
-0.2853694921875,-0.20114699462890626,0.9414984814453125
-0.2279873828125,-0.11438501708984375,0.760860029296875
-0.26859251953125,0.0907555908203125,0.76233462890625
-0.0694571484375,0.07482471923828125,0.7633176953125
-0.02836572265625,0.15717507080078125,1.193409248046875
-0.32694720703125,0.25766210693359376,1.66478958984375
-0.2834243359375,0.19148771728515626,1.8169191162109375
-0.36876806640625,0.2682009912109375,1.625958466796875
-0.42760904296875,-0.0018885546875000003,1.1661291552734374
-0.10130908203125,-0.11781628173828125,1.0130165625
-0.32864921874999997,0.09100068115234375,1.0707717138671875
-0.405482890625,0.085363603515625,1.0186691943359376
-0.181789921875,-0.07026875732421875,0.8412257080078125
-0.2980130078125,-0.0288484912109375,0.7149016748046875
-0.1832487890625,-0.0602200537109375,0.5944760400390625
-0.06191966796875,-0.1915884716796875,0.525907158203125
-0.21996361328125,-0.08497417724609375,0.6529684912109375
-0.07553576171875,0.15521434814453125,0.6859012158203125
-0.174009296875,0.23511379638671875,0.86850580078125
-0.31089966796875,0.2858474951171875,1.16342572265625
-0.20683380859375,0.21746729248046875,1.49176990234375
-0.54383212890625,0.1172253466796875,1.4310655517578126
-0.4122909375,0.2044775048828125,1.0614325830078124
-0.1842213671875,0.015022678222656249,0.7763433251953125
-0.1278118359375,-0.10580685546875,0.650756591796875
-0.1088465625,-0.20898988525390624,0.7006472119140625
-0.191515703125,-0.242077080078125,0.7822417236328125
-0.19564916015625,-0.1494329345703125,0.709740576171875
-0.2882872265625,-0.012672529296875,0.7837163232421875
-0.2678630859375,-0.0788469189453125,1.06118681640625
-0.32402947265625,0.01796376220703125,1.292698955078125
-0.56206796875,0.14394019287109375,1.25583396484375
-0.13243158203125,0.13658748291015624,1.1329506640625
-0.213885,0.23168253173828124,1.136391396484375
-0.28391062499999997,0.12825441162109374,0.99630443359375
-0.26810623046875,0.0686974609375,0.8417172412109375
-0.24865466796875,0.0010525292968750002,0.6937657470703125
-0.0889087109375,-0.1259042626953125,0.5576110498046875
-0.02885201171875,-0.09404251953125001,0.6455954931640625
-0.24281919921875,-0.08546435791015625,0.757910830078125
-0.27345541015625,0.03659062744140625,0.9601767431640625
-0.5061447265625,-0.00409436767578125,0.978117705078125
-0.48061455078125,-0.11340465576171875,0.7790467578125
-0.16598552734375,0.083402880859375,0.58931494140625
-0.1492085546875,0.12041152099609376,0.52836482421875
-0.1608794921875,0.14443037353515625,0.5861199755859375
-0.20026890625,0.20227169189453126,0.751029365234375
-0.282938046875,0.234378525390625,0.8741584326171875
-0.1151683203125,0.20913422119140626,0.8481071728515625
-0.142886796875,0.0740894482421875,1.0221099267578124
-0.29363640625,-0.0504164404296875,1.2747579931640625
-0.28026345703125,-0.02370159423828125,1.3622509033203125
-0.290718671875,0.11550971435546875,1.44556578125
-0.4667553125,0.04712951171875,1.3529117724609374
-0.4798851171875,0.03757098876953125,1.0759328125
-0.3106565234375,0.06011929931640625,0.752012431640625
-0.02398912109375,-0.046740085449218746,0.652722724609375
-0.061190234375,-0.0808076416015625,0.9985163330078125
-0.35588140625,0.09590248779296875,1.3258774462890626
-0.47575166015625,0.1740863037109375,1.3416065087890625
-0.2639727734375,0.04492369873046875,0.916184521484375
-0.19564916015625,-0.02321141357421875,0.6922911474609375
-0.2202067578125,0.04394333740234375,0.603569404296875
-0.14215736328125,-0.09379742919921875,0.668451787109375
-0.37363095703125,0.01698340087890625,0.80755568359375
-0.3223274609375,0.00472888427734375,0.7719195263671875
-0.1788721875,-0.11879664306640625,0.7318595703125
-0.28074974609375003,0.08413815185546875,0.81148794921875
-0.17765646484375,0.085363603515625,0.864082001953125
-0.1424005078125,0.10987263671875,1.0722463134765625
-0.30798193359375,0.150067451171875,1.2374014697265625
-0.343237890625,0.106931552734375,1.3177671484375
-0.29193439453125003,0.12433296630859375,1.087729609375
-0.1988100390625,0.04590406005859375,1.040542421875
-0.271267109375,0.09639266845703125,1.091170341796875
-0.32791978515625,-0.034240478515625,1.1759598193359375
-0.41812640624999997,0.11796061767578125,1.211104443359375
-0.28318119140625,-0.01953505859375,0.8938197607421875
-0.2503566796875,-0.03399538818359375,0.765283828125
-0.1637972265625,-0.123453359375,0.7350545361328125
-0.3184371484375,0.02580665283203125,0.9105318896484375
-0.23017568359375,0.0231106591796875,0.9975332666015625
-0.2289599609375,-0.053847705078125,1.0425085546875
-0.27151025390625,0.169674677734375,1.096085673828125
-0.11346630859375,0.05129604736328125,1.000728232421875
-0.30457791015625,0.1525183544921875,0.9390408154296875
-0.27515742187500003,0.12335260498046875,0.957473310546875
-0.2785614453125,0.034384814453125,1.07494974609375
-0.3067662109375,0.18266446533203126,1.21454517578125
-0.315033125,0.01208159423828125,1.280410625
-0.172064140625,0.020659755859375,1.278936025390625
-0.317950859375,0.1887917236328125,1.1287726318359375
-0.29874244140625,0.1260485986328125,0.94911724609375
-0.29144810546875,0.0946770361328125,0.9120064892578125
-0.27515742187500003,0.061834931640625,0.99630443359375
-0.36050115234375,0.07727562255859374,0.998762099609375
-0.18300564453125,0.09688284912109375,0.972219306640625
-0.207076953125,0.0211499365234375,0.79575888671875
-0.2056180859375,0.00816014892578125,0.760860029296875
-0.23212083984375,0.1289896826171875,0.89996392578125
-0.3967296875,0.04712951171875,1.0958399072265625
-0.335457265625,0.05864875732421875,1.258291630859375
-0.24136033203125,0.07874616455078125,1.2108586767578124
-0.03298546875,-0.10507158447265624,1.2037314453125
-0.34396732421875,0.0907555908203125,1.2378930029296875
-0.2746711328125,0.0368357177734375,1.030220224609375
-0.2566784375,0.17335103271484376,1.0299744580078125
-0.38919220703125,0.1897720849609375,1.0928907080078125
-0.30846822265625,0.04198261474609375,1.146222060546875
-0.19224513671875,0.08805959716796875,1.0417712548828124
-0.177899609375,0.22874144775390626,0.87440419921875
-0.1336473046875,0.0922261328125,0.7266984716796875
-0.20975154296875,0.06894255126953125,0.758893896484375
-0.31576255859375,0.16085142578125,0.95108337890625
-0.249870390625,-0.034240478515625,1.1130435693359375
-0.31041337890625,-0.12149263671875,1.1970957470703125
-0.28658521484375,-0.028358310546875,0.9953213671875
-0.317950859375,-0.08203309326171875,0.8579378369140624
-0.38481560546875,-0.00213364501953125,0.7397241015625
-0.23917203125,0.19344843994140626,0.8628531689453125
-0.22677166015625,0.28413186279296876,0.90586232421875
-0.13510617187500001,0.2642795458984375,0.9397781152343749
-0.02715,0.1397736572265625,1.011541962890625
-0.195406015625,0.0740894482421875,0.9921264013671875
-0.28196546875,0.02874773681640625,1.0167030615234376
-0.31965287109375,0.0887948681640625,1.0464408203125
-0.38627447265625,0.16599832275390625,0.962388642578125
-0.27685943359375,0.10913736572265625,0.902421591796875
-0.2153438671875,0.14418528320312501,0.9587021435546875
-0.36293259765625,0.04247279541015625,0.9891772021484375
-0.113709453125,0.20080114990234374,1.0147369287109376
-0.32646091796875,0.167713955078125,0.966320908203125
-0.2231244921875,0.044188427734375,1.0053977978515625
-0.2416034765625,0.13266603759765624,0.8984893261718749
-0.247925234375,0.014777587890624999,0.8569547705078124
-0.2250696484375,0.09296140380859375,0.922574453125
-0.230418828125,-0.026397587890625,0.8458952734375
-0.16112263671875,0.052031318359375,0.8372934423828124
-0.312115390625,0.0544822216796875,0.8136998486328125
-0.2124261328125,-0.07811164794921875,0.839505341796875
-0.2367405859375,-0.06340622802734375,0.912252255859375
-0.24233291015625,-0.15212892822265625,0.969270107421875
-0.30263275390625,-0.075415654296875,0.937811982421875
-0.22677166015625,0.06796218994140625,1.040542421875
-0.29509527343749997,0.16501796142578126,1.0928907080078125
-0.245980078125,0.2809456884765625,1.1749767529296875
-0.25400384765625,0.2897689404296875,1.2290454052734374
-0.3038484765625,0.12163697265625,1.180629384765625
-0.277102578125,0.1123235400390625,1.0570087841796876
-0.2036729296875,0.12972495361328126,0.83508154296875
-0.16841697265625,0.13462676025390624,0.8146829150390625
-0.17327986328125,0.10325519775390625,0.8972604931640625
-0.34931650390625,0.05227640869140625,0.9166760546875
-0.34639876953125,0.11403917236328125,0.869980400390625
-0.27540056640625,0.2662402685546875,0.8127167822265625
-0.1890842578125,0.06624655761718751,0.867031201171875
-0.20099833984375,0.1485969091796875,1.053813818359375
-0.310170234375,0.24001560302734376,1.0444746875
-0.1414279296875,0.06011929931640625,0.8812856640625
-0.2766162890625,0.09786321044921875,0.95698177734375
-0.3515048046875,0.14099910888671874,1.0700344140625
-0.21753216796875,-0.03154448486328125,1.050864619140625
-0.2736985546875,0.042227705078125,1.04939001953125
-0.38457246093749997,-0.02027032958984375,1.06020375
-0.1205175,-0.022476142578125,0.974185439453125
-0.24330548828125,0.0211499365234375,1.038084755859375
-0.23406599609375,0.0270321044921875,1.052830751953125
-0.1608794921875,-0.00213364501953125,1.008592763671875
-0.19078626953125,0.03462990478515625,1.1567900244140625
-0.29096181640625,0.07482471923828125,1.128526865234375
-0.3962433984375,-0.07271966064453125,1.0904330419921875
-0.32986494140625,0.05570767333984375,1.118696201171875
-0.393811953125,0.0348749951171875,1.079373544921875
-0.1968648828125,-0.00360418701171875,0.89406552734375
-0.09352845703125,0.04737460205078125,0.7365291357421875
-0.1287844140625,-0.08644471923828125,0.61094240234375
-0.2279873828125,0.00276816162109375,0.66796025390625
-0.11930177734375,0.13364639892578126,0.89209939453125
-0.1287844140625,0.07923634521484375,1.111323203125
-0.366579765625,0.23462361572265625,1.242562568359375
-0.314060546875,0.1250682373046875,1.148188193359375
-0.35272052734375,0.18119392333984374,0.990897568359375
-0.3242726171875,0.02923791748046875,0.859166669921875
-0.26470220703125,0.1235976953125,0.97664310546875
-0.27515742187500003,0.284376953125,1.16145958984375
-0.450221484375,0.0358553564453125,1.06511908203125
-0.1005796484375,-0.0170841552734375,0.9105318896484375
-0.1336473046875,-0.0249270458984375,0.8879213623046875
-0.21266927734375,-0.1430605859375,0.9901602685546875
-0.228473671875,-0.0406128271484375,1.1155012353515625
-0.3359435546875,0.1868310009765625,1.1533492919921875
-0.39308251953125,0.10717664306640624,1.039067822265625
-0.25400384765625,0.17286085205078125,0.887675595703125
-0.25011353515625,0.1201664306640625,0.705808310546875
-0.17473873046875,0.10031411376953125,0.7625803955078125
-0.1715778515625,0.16673359375,0.9528037451171875
-0.3641483203125,0.1074217333984375,1.0174403613281249
-0.26859251953125,0.17776265869140626,1.1892312158203124
-0.35369310546875,0.10276501708984374,1.2216724072265626
-0.25594900390624997,0.0255615625,1.1469593603515624
-0.3573402734375,0.042227705078125,1.0543053515625
-0.22336763671875,-0.06144550537109375,1.065610615234375
-0.22434021484375,0.07972652587890625,0.977626171875
-0.1988100390625,0.03217900146484375,0.90782845703125
-0.26154132812499997,-0.08791526123046875,0.9537868115234375
-0.3126016796875,-0.0406128271484375,0.92355751953125
-0.237226875,0.0608545703125,0.7502920654296875
-0.244034921875,-0.027868129882812502,0.577026611328125
-0.13243158203125,0.04884514404296875,0.5549076171875
-0.0762651953125,0.15129290283203126,0.7004014453125
-0.21266927734375,0.15129290283203126,0.98647376953125
-0.27296912109375,0.14786163818359374,1.246494833984375
-0.34348103515625,0.03144373046875,1.4192687548828125
-0.4098594921875,-0.0945327001953125,1.322190947265625
-0.23795630859375,-0.04330882080078125,0.928964384765625
-0.23941517578125,0.12237224365234375,0.7397241015625
-0.32159802734375,0.10399046875,0.6910623144531249
-0.372415234375,0.1319307666015625,0.969761640625
-0.32208431640625,0.284376953125,1.1720275537109375
-0.32159802734375,0.3113368896484375,1.1427813281249999
-0.156502890625,0.0838930615234375,0.8466325732421875
-0.12343523437500001,0.08119706787109375,0.7163762744140625
-0.1783858984375,-0.02272123291015625,0.597671005859375
-0.24330548828125,-0.07517056396484376,0.5871030419921874
-0.2445212109375,0.030463369140625002,0.6500192919921874
-0.19905318359375002,0.05913893798828125,0.83508154296875
-0.31722142578125,0.00865032958984375,1.0412797216796874
-0.45143720703125,-0.047965537109375,1.1302472314453125
-0.1608794921875,-0.02958376220703125,1.062661416015625
-0.32451576171875,0.05497240234375,0.9704989404296875
-0.2377131640625,0.01575794921875,1.041033955078125
-0.07164544921875,0.06306038330078124,1.129509931640625
-0.0947441796875,0.016738310546875,1.2157740087890625
-0.31138595703125,0.1770273876953125,1.2076637109375
-0.41545181640625,0.1000690234375,1.021372626953125
-0.25400384765625,0.10570610107421875,0.974185439453125
-0.40937320312500003,0.1510478125,1.0835515771484374
-0.31138595703125,0.10227483642578125,1.2369099365234375
-0.286828359375,0.1103628173828125,1.0975602734375
-0.2095083984375,0.11845079833984375,0.90193005859375
-0.09595990234375,0.0535018603515625,0.75053783203125
-0.18835482421875,0.13756784423828125,0.7357918359375
-0.209022109375,0.17629211669921874,0.8500733056640625
-0.28634207031250003,0.053992041015625,1.1327048974609375
-0.277102578125,0.14295983154296876,1.24010490234375
-0.3563676953125,0.0593840283203125,1.278936025390625
-0.2338228515625,0.07678544189453125,1.028254091796875
-0.22823052734375,0.1191860693359375,0.7738856591796874
-0.25205869140625,0.0946770361328125,0.685163916015625
-0.2474389453125,0.12163697265625,0.67582478515625
-0.23819945312500002,0.19687970458984375,0.9685328076171875
-0.17376615234375,0.0917359521484375,1.105916337890625
-0.2177753125,0.04712951171875,1.2531305322265625
-0.23844259765625,0.2113400341796875,1.231748837890625
-0.32402947265625,0.10521592041015625,1.05725455078125
-0.30992708984375,0.20178151123046875,0.965829375
-0.26859251953125,0.0740894482421875,0.89799779296875
-0.25400384765625,0.18560554931640624,0.804606484375
-0.28196546875,0.0883046875,0.7783094580078125
-0.11249373046875,0.0015427099609375003,0.76036849609375
-0.24476435546875,0.059874208984374996,0.892590927734375
-0.38505875,-0.02909358154296875,0.894557060546875
-0.216802734375,-0.04281864013671875,1.0034316650390624
-0.3889490625,0.1015395654296875,0.99237216796875
-0.222638203125,0.15080272216796875,0.953541044921875
-0.1920019921875,0.008405239257812499,0.97271083984375
-0.32086859375,0.12947986328125,1.0668394482421875
-0.18349193359375,0.04002189208984375,1.0732293798828125
-0.28755779296875,0.06698182861328125,0.9837703369140625
-0.3592854296875,0.1633023291015625,0.9695158740234375
-0.15528716796875,0.114774443359375,0.9301932177734376
-0.21947732421875,0.01404231689453125,0.927981318359375
-0.30555048828125,0.07874616455078125,0.8849721630859375
-0.31478998046875,-0.011201987304687501,0.7325968701171874
-0.21169669921875,-0.015368522949218751,0.690079248046875
-0.170118984375,0.0005623486328125002,0.7242408056640625
-0.23528171875,-0.091101435546875,0.873912666015625
-0.3009307421875,-0.00703545166015625,1.023338759765625
-0.36633662109375,0.12531332763671876,1.0442289208984374
-0.18251935546875,0.06845237060546874,1.0629071826171874
-0.3709563671875,0.19246807861328125,1.0464408203125
-0.23941517578125,0.22874144775390626,1.0044147314453125
-0.24379177734375002,0.1044806494140625,0.9503460791015625
-0.36779548828124997,0.20080114990234374,1.04152548828125
-0.2396583203125,0.01575794921875,0.977134638671875
-0.216802734375,-0.06683749267578125,0.842454541015625
-0.183735078125,-0.11438501708984375,0.8245135791015625
-0.31746457031249997,-0.06144550537109375,0.78789435546875
-0.29874244140625,-0.09379742919921875,0.823776279296875
-0.23747001953125,0.0691876416015625,0.9341254833984375
-0.21364185546875,0.14443037353515625,1.14671359375
-0.37411724609375,0.30569981201171875,1.1880023828125
-0.20391607421875,0.1838899169921875,1.2290454052734374
-0.172064140625,0.191242626953125,1.307444951171875
-0.368524921875,0.20080114990234374,1.2332234375
-0.26664736328125,0.055952763671875,1.0078554638671875
-0.2260422265625,-0.06977857666015624,0.8972604931640625
-0.26713365234374997,-0.0327699365234375,0.8702261669921875
-0.1346198828125,-0.09967959716796874,0.8223016796875
-0.28561263671875,-0.134237333984375,1.045949287109375
-0.30530734375,0.080461796875,1.0958399072265625
-0.1190586328125,0.0603643896484375,1.1995534130859375
-0.42955419921875,0.11403917236328125,1.2074179443359374
-0.244034921875,0.19393862060546874,1.0896957421875
-0.273212265625,0.1123235400390625,0.9744312060546875
-0.32475890625,0.12188206298828125,1.067576748046875
-0.21412814453125,0.010611052246093749,1.0179318945312499
-0.2133987109375,0.024581201171875,0.9424815478515625
-0.17303671874999998,-0.0474753564453125,0.8805483642578125
-0.28123603515625,-0.0249270458984375,0.8574463037109374
-0.32937865234375,0.0486000537109375,0.9282270849609375
-0.33715927734375,-0.0141430712890625,0.9311762841796875
-0.2099946875,-0.038161923828125,0.9051250244140625
-0.228473671875,-0.11340465576171875,0.8215643798828125
-0.18349193359375,-0.07271966064453125,0.89504859375
-0.41204779296875,0.05497240234375,0.8891501953125
-0.27613,0.055952763671875,0.889641728515625
-0.2561921484375,0.13903838623046874,0.9857364697265625
-0.35466568359375,0.0103659619140625,1.02579642578125
-0.11079171875,0.08364797119140625,1.03759322265625
-0.0665394140625,0.153988896484375,1.0555341845703126
-0.2882872265625,0.23119235107421876,1.082322744140625
-0.32694720703125,0.0535018603515625,1.1449932275390624
-0.29144810546875,0.062080021972656246,1.1395863623046876
-0.34153587890625,-0.025662316894531252,1.1056705712890624
-0.16647181640625,-0.09232688720703125,1.003677431640625
-0.26154132812499997,-0.08644471923828125,0.8984893261718749
-0.2882872265625,0.03806116943359375,0.8913620947265625
-0.38676076171875,-0.0533575244140625,0.848352939453125
-0.3009307421875,0.11109808837890625,1.0211268603515624
-0.25400384765625,0.13168567626953126,1.023338759765625
-0.207076953125,0.0250713818359375,0.938795048828125
-0.12027435546875,0.0848734228515625,0.8913620947265625
-0.35199109375,0.02041466552734375,0.8387680419921875
-0.205131796875,0.07188363525390624,0.7729025927734375
-0.12465095703125,0.02727719482421875,0.85081060546875
-0.3096839453125,0.0819323388671875,1.0250591259765625
-0.26081189453125,-0.01830960693359375,0.9842618701171875
-0.2659179296875,0.0182088525390625,1.022355693359375
-0.3427516015625,0.13560712158203125,1.12312
-0.29631099609375,0.1701648583984375,1.125577666015625
-0.3466419140625,0.04982550537109375,1.1361456298828125
-0.28804408203125,0.06624655761718751,1.1100943701171875
-0.23212083984375,-0.02860340087890625,1.0589749169921876
-0.21266927734375,0.03536517578125,0.9972875
-0.31746457031249997,0.0564429443359375,0.9719735400390626
-0.29339326171875,0.01575794921875,0.8830060302734375
-0.13437673828125,-0.01928996826171875,0.9223286865234375
-0.299471875,0.06158984130859375,0.945676513671875
-0.177899609375,-0.03889719482421875,0.9719735400390626
-0.32111173828125,0.0348749951171875,0.9356000830078125
-0.27394169921875,0.0515411376953125,0.852285205078125
-0.1472633984375,-0.0415931884765625,0.8068183837890625
-0.27442798828125,0.16011615478515626,0.957473310546875
-0.22944625,0.06158984130859375,0.9577190771484375
-0.33570041015625,0.05668803466796875,1.1037044384765624
-0.32208431640625,0.0373258984375,1.129509931640625
-0.26907880859375,0.06158984130859375,1.050864619140625
-0.25400384765625,0.062080021972656246,0.9719735400390626
-0.1511537109375,0.1378129345703125,1.00515203125
-0.1774133203125,0.18830154296875,1.0447204541015624
-0.3223274609375,0.09492212646484376,1.1056705712890624
-0.32743349609375,0.1417343798828125,1.062661416015625
-0.257651015625,0.07188363525390624,0.977626171875
-0.36390517578125,0.04051207275390625,0.966320908203125
-0.27807515625,0.073599267578125,0.9360916162109375
-0.19808060546875,-0.00311400634765625,0.8458952734375
-0.34153587890625,0.0770305322265625,0.789368955078125
-0.17084841796875,0.03953171142578125,0.71121517578125
-0.19516287109375,0.00717978759765625,0.7581565966796875
-0.191515703125,0.030463369140625002,0.841471474609375
-0.20683380859375,-0.0710040283203125,0.9115149560546875
-0.20634751953125,0.0427178857421875,1.062661416015625
-0.3369161328125,0.00570924560546875,1.1926719482421875
-0.34810078125,0.0397768017578125,1.1110774365234375
-0.31868029296875,0.19540916259765626,1.0624156494140624
-0.30263275390625,0.06747200927734374,1.0432458544921874
-0.23455228515625,0.021640117187500002,0.9749227392578125
-0.21850474609375,0.07825598388671876,0.855234404296875
-0.0986344921875,-0.0175743359375,0.7409529345703125
-0.1161408984375,-0.0053198193359375,0.801165751953125
-0.29169125,0.153988896484375,1.0658563818359374
-0.337402421875,0.17261576171875,1.2644357958984376
-0.3437241796875,0.042227705078125,1.3484879736328126
-0.308225078125,0.15766525146484375,1.1592476904296876
-0.269321953125,0.0966377587890625,0.96484630859375
-0.29363640625,0.01159141357421875,0.810996416015625
-0.1744955859375,0.0740894482421875,0.7812586572265625
-0.201241484375,0.014777587890624999,0.755944697265625
-0.257651015625,-0.06340622802734375,0.8245135791015625
-0.10325423828125,-0.10850284912109374,0.9626344091796875
-0.263486484375,-0.11561046875,1.068559814453125
-0.29339326171875,-0.05801424072265625,1.04545775390625
-0.2668905078125,-0.06242586669921875,0.953541044921875
-0.26664736328125,0.1260485986328125,0.9798380712890625
-0.405482890625,0.06281529296875,0.807064150390625
-0.160393203125,0.06453092529296875,0.863098935546875
-0.3048210546875,0.1941837109375,0.946659580078125
-0.14410251953125,0.033404453125,0.8525309716796875
-0.19467658203125,0.0593840283203125,0.8898874951171875
-0.22628537109375,0.14099910888671874,1.0108046630859375
-0.31308796875,0.063795654296875,1.107882470703125
-0.3164919921875,0.0338946337890625,1.208155244140625
-0.27394169921875,-0.01561361328125,1.249444033203125
-0.33108066406250003,0.03855135009765625,1.1037044384765624
-0.30944080078125,0.09835339111328124,0.972219306640625
-0.31868029296875,0.0417375244140625,0.8082929833984375
-0.24670951171875,0.0270321044921875,0.8105048828125
-0.26810623046875,-0.022476142578125,0.8431918408203125
-0.17765646484375,-0.00507472900390625,0.9370746826171875
-0.24136033203125,0.08021670654296875,0.9591936767578125
-0.3291355078125,0.03708080810546875,0.964354775390625
-0.181789921875,0.0010525292968750002,0.8380307421875
-0.280992890625,0.0191892138671875,0.8136998486328125
-0.21315556640625,-0.028358310546875,0.84687833984375
-0.20975154296875,0.0417375244140625,0.932896650390625
-0.26907880859375,-0.00458454833984375,1.0211268603515624
-0.24525064453125,-0.0161037939453125,0.9815584374999999
-0.323786328125,0.03315936279296875,0.9955671337890625
-0.2649453515625,-0.0004180126953125,0.909303056640625
-0.210967265625,0.0191892138671875,0.8694888671875
-0.23309341796875,0.06698182861328125,0.969761640625
-0.2396583203125,0.0037485229492187503,1.0506188525390625
-0.23941517578125,-0.013162709960937501,1.09067880859375
-0.2834243359375,0.08903995849609375,1.130492998046875
-0.327676640625,0.11379408203125,1.0206353271484374
-0.15382830078125,-0.008996174316406251,0.9193794873046874
-0.228473671875,0.093206494140625,1.0147369287109376
-0.28634207031250003,-0.0259074072265625,1.0953483740234375
-0.28026345703125,0.05423713134765625,1.1722733203125
-0.35661083984374997,0.0020328906249999995,1.0147369287109376
-0.24379177734375002,-0.06879821533203125,0.8407341748046875
-0.22750109375,-0.029338671875,0.7984623193359375
-0.2104809765625,-0.0327699365234375,0.9852449365234375
-0.34299474609375,-0.0033590966796874996,1.150154326171875
-0.33132380859375,-0.134237333984375,1.0307117578125
-0.24379177734375002,-0.09183670654296874,0.8294289111328125
-0.26470220703125,-0.03889719482421875,0.74267330078125
-0.131215859375,-0.0768861962890625,0.7239950390625
-0.23406599609375,-0.04281864013671875,0.8677685009765626
-0.29169125,0.04443351806640625,0.9567360107421875
-0.3515048046875,-0.0175743359375,0.923065986328125
-0.27783201171875,0.036345537109375,0.8572005371093749
-0.25011353515625,0.00423870361328125,0.867031201171875
-0.185680234375,0.0613447509765625,1.010558896484375
-0.33181009765625,-0.01095689697265625,1.04152548828125
-0.2668905078125,0.0535018603515625,1.1071451708984374
-0.3301080859375,0.01551285888671875,0.9245405859375
-0.25059982421875,-0.0023787353515625003,0.788385888671875
-0.29533841796875,0.00472888427734375,0.7266984716796875
-0.13510617187500001,0.062080021972656246,0.8930824609375
-0.2610550390625,0.1079119140625,1.1454847607421874
-0.40815748046875,0.00816014892578125,1.185544716796875
-0.22093619140625,0.04345315673828125,1.07101748046875
-0.21850474609375,0.06624655761718751,0.9508376123046876
-0.27685943359375,0.030463369140625002,0.969270107421875
-0.31697828125,0.0809519775390625,0.99040603515625
-0.360744296875,0.02335574951171875,0.9626344091796875
-0.27929087890625,-0.08693489990234375,0.8559717041015625
-0.13948277343749999,-0.098944326171875,0.9537868115234375
-0.31770771484375,-0.09575815185546875,1.003677431640625
-0.32743349609375,-0.0974737841796875,0.927981318359375
-0.2513292578125,-0.02958376220703125,0.8692431005859375
-0.28220861328125,-0.04919098876953125,0.7871570556640625
-0.14069849609375001,-0.01683906494140625,0.8535140380859375
-0.38627447265625,-0.010221625976562499,0.94223578125
-0.21899103515625,0.0044837939453125,1.07101748046875
-0.252788125,0.00668960693359375,1.103458671875
-0.3855450390625,0.04149243408203125,1.0722463134765625
-0.2328502734375,0.0603643896484375,0.96681244140625
-0.292663828125,-0.01561361328125,0.89209939453125
-0.247925234375,0.06060947998046875,0.9646005419921875
-0.32694720703125,0.02335574951171875,1.135408330078125
-0.35952857421875,-0.045024453125,1.1562984912109375
-0.16160892578125,0.08070688720703124,1.118696201171875
-0.36585033203125,0.106931552734375,1.0461950537109375
-0.22750109375,-0.00997653564453125,0.90782845703125
-0.220693046875,0.07580508056640625,0.8368019091796874
-0.16793068359375,-0.0180645166015625,0.8771076318359375
-0.28609892578125,0.0309535498046875,0.963371708984375
-0.24962724609375,0.02531647216796875,1.0348897900390626
-0.263486484375,0.07580508056640625,0.99827056640625
-0.26324333984375,0.0378160791015625,1.0540595849609375
-0.2406308984375,0.09345158447265625,1.2025026123046876
-0.4225030078125,-0.03301502685546875,1.31285181640625
-0.40256515625,0.019679394531249998,1.25190169921875
-0.12465095703125,0.0133070458984375,1.04349162109375
-0.29509527343749997,0.050070595703125,0.9405154150390624
-0.20926525390625,-0.0327699365234375,0.9196252539062499
-0.21583015625000002,0.06600146728515625,1.0948568408203125
-0.39989056640625,0.12335260498046875,1.1666206884765624
-0.2795340234375,-0.08056255126953125,1.0545511181640626
-0.2221519140625,-0.02125069091796875,0.9503460791015625
-0.17084841796875,0.02286556884765625,0.8771076318359375
-0.2571647265625,-0.0092412646484375,0.8653108349609375
-0.20804953125,0.02923791748046875,0.9097945898437501
-0.2561921484375,-0.0371815625,1.0678225146484375
-0.3369161328125,-0.06781785400390625,1.2924531884765624
-0.3709563671875,-0.1131595654296875,1.1331964306640625
-0.255705859375,-0.12541408203125,0.9609140429687499
-0.24184662109375,-0.13203152099609375,0.91765912109375
-0.2644590625,-0.045024453125,0.9134810888671875
-0.17376615234375,0.0069346972656249995,0.8928366943359375
-0.35515197265625,-0.0680629443359375,0.8692431005859375
-0.29047552734375,0.022620478515625,0.9901602685546875
-0.152612578125,0.05889384765625,0.9744312060546875
-0.2289599609375,-0.1278649853515625,0.885709462890625
-0.2347954296875,0.034384814453125,0.91077765625
-0.33667298828125003,0.06943273193359376,0.8987350927734374
-0.28366748046875,-0.0200252392578125,0.8323781103515625
-0.2561921484375,-0.006790361328125,0.906353857421875
-0.2260422265625,0.1084020947265625,1.079373544921875
-0.28366748046875,-0.05213207275390625,1.0444746875
-0.24573693359375,-0.030319033203124998,0.956490244140625
-0.19078626953125,0.0172284912109375,0.985982236328125
-0.43976626953125,-0.0268877685546875,1.062661416015625
-0.1530988671875,0.05105095703125,1.1801378515625
-0.32791978515625,0.016738310546875,1.0982975732421876
-0.4273658984375,0.04100225341796875,0.975168505859375
-0.12173322265625,0.065756376953125,0.878827998046875
-0.23917203125,-0.07124911865234375,0.8392595751953125
-0.32305689453124997,-0.02713285888671875,0.906845390625
-0.2255559375,0.07482471923828125,0.9542783447265625
-0.3072525,0.024091020507812498,1.0117877294921875
-0.268349375,0.050070595703125,1.145238994140625
-0.40864376953125,0.09688284912109375,1.1936550146484375
-0.40086314453125,-0.08963089355468751,0.89406552734375
-0.16525609375,-0.0994345068359375,0.7758517919921875
-0.1949197265625,-0.0016434643554687498,0.9179048876953125
-0.2736985546875,-0.110708662109375,0.97369390625
-0.28609892578125,-0.02909358154296875,0.996795966796875
-0.3680386328125,-0.048455717773437504,1.1130435693359375
-0.34445361328125,-0.24305744140625,0.9714820068359376
-0.20488865234375,0.010856142578125,0.7620888623046875
-0.28220861328125,-0.02615249755859375,0.6492819921874999
-0.090367578125,-0.1631579931640625,0.7620888623046875
-0.310170234375,0.1079119140625,1.05528841796875
-0.29047552734375,0.06011929931640625,1.1513831591796875
-0.1988100390625,-0.06144550537109375,1.2332234375
-0.34810078125,0.14492055419921876,1.1317218310546875
-0.315033125,0.0917359521484375,0.9972875
-0.35223423828125,-0.05262225341796875,0.86359046875
-0.2114535546875,0.04982550537109375,0.9793465380859375
-0.24330548828125,-0.02615249755859375,0.8446664404296875
-0.22628537109375,-0.0013983740234375002,0.9370746826171875
-0.2805066015625,0.0054641552734375,0.9975332666015625
-0.20391607421875,-0.0464949951171875,1.026287958984375
-0.2202067578125,0.07678544189453125,1.1155012353515625
-0.479398828125,-0.06438658935546875,1.1346710302734375
-0.38311359375,-0.042083369140625,0.9936010009765625
-0.29144810546875,-0.07468038330078125,0.8628531689453125
-0.2805066015625,-0.18815720703125,0.9186421875
-0.25862359375,-0.08742508056640624,0.9577190771484375
-0.3806821484375,-0.05115171142578125,0.888658662109375
-0.22482650390625,0.0995788427734375,0.933879716796875
-0.15480087890625,-0.07320984130859375,0.9874568359375
-0.17619759765625,-0.0631611376953125,1.1010010058593749
-0.25862359375,0.07237381591796875,1.097068740234375
-0.31430369140625003,0.018699033203125,0.963371708984375
-0.144831953125,-0.02419177490234375,0.94911724609375
-0.3267040625,0.03168882080078125,0.986965302734375
-0.389921640625,-0.11781628173828125,1.0575003173828126
-0.403537734375,-0.0827683642578125,0.9483799462890625
-0.11832919921875,0.04786478271484375,0.8751414990234375
-0.23892888671875,0.2495741259765625,1.068559814453125
-0.26761994140625,0.138303115234375,1.217002841796875
-0.25886673828125,0.122617333984375,1.2767241259765625
-0.35272052734375,0.038306259765625,1.226833505859375
-0.304334765625,-0.1915884716796875,0.9704989404296875
-0.2853694921875,-0.16242272216796874,0.796250419921875
-0.14629082031250001,-0.17614778076171875,0.6362563623046875
-0.2484115234375,-0.21683277587890626,0.652722724609375
-0.33959072265625,-0.130315888671875,0.776589091796875
-0.218747890625,0.07580508056640625,0.91176072265625
-0.191515703125,0.017718671875,1.009084296875
-0.2474389453125,0.0319339111328125,1.1508916259765625
-0.19953947265625,-0.04772044677734375,1.135408330078125
-0.18884111328125,-0.0055649096679687505,0.9911433349609375
-0.329621796875,-0.20948006591796875,0.89603166015625
-0.187625390625,-0.10409122314453124,0.942727314453125
-0.36244630859375,-0.0955130615234375,0.8989808593749999
-0.29582470703125,-0.12811007568359375,0.8810398974609375
-0.29728357421875,0.14050892822265626,0.7534870312499999
-0.20683380859375,-0.02027032958984375,0.584399609375
-0.01572220703125,-0.04134809814453125,0.541636220703125
-0.039793515625,0.00325834228515625,0.71318130859375
-0.1205175,0.07237381591796875,1.17915478515625
-0.358799140625,0.1770273876953125,1.4114042236328124
-0.330594375,0.197124794921875,1.4580998779296874
-0.55890708984375,0.03168882080078125,1.41902298828125
-0.4691867578125,0.05962911865234375,1.021372626953125
0.032177265625,-0.0180645166015625,0.6964691796875
0.07521384765625,-0.01683906494140625,0.7325968701171874
-0.292663828125,0.021640117187500002,0.930438984375
-0.1637972265625,-0.02737794921875,1.04349162109375
-0.18932740234375,-0.13595296630859374,1.119187734375
-0.3515048046875,-0.124433720703125,1.2319946044921875
-0.41010263671875,0.05913893798828125,1.0103131298828125
-0.2999581640625,-0.16340308349609375,0.840488408203125
-0.37217208984375,0.0172284912109375,0.8498275390625
-0.16452666015625,0.017718671875,0.8210728466796875
-0.2406308984375,-0.06928839599609375,0.859658203125
-0.08915185546875,0.02727719482421875,0.952557978515625
-0.230418828125,0.14246965087890626,0.8623616357421875
-0.30530734375,0.17040994873046875,0.930438984375
-0.28707150390625,0.0133070458984375,0.981066904296875
-0.2571647265625,-0.167569619140625,1.0894499755859375
-0.34493990234375,-0.028358310546875,1.0516019189453125
-0.29436583984375,-0.16536380615234375,0.891607861328125
-0.14847912109375,0.02335574951171875,0.7409529345703125
-0.1861665234375,0.12139188232421876,0.716622041015625
-0.07383375,0.095167216796875,0.882760263671875
-0.27394169921875,0.1515379931640625,1.333004677734375
-0.45581380859375,0.3123172509765625,1.6753575537109375
-0.4040240234375,-0.0788469189453125,1.3216994140625
-0.18106048828125,-0.023456503906250002,0.9803296044921875
-0.26275705078125,-0.10213050048828125,0.8530225048828125
-0.3330258203125,-0.073454931640625,0.68958771484375
-0.144831953125,0.0152677685546875,0.73874103515625
-0.10957599609375,0.14099910888671874,1.156052724609375
-0.39551396484375,0.132420947265625,1.439175849609375
-0.361716875,-0.07835673828125,1.3502083398437499
-0.39089421875,-0.01781942626953125,1.1902142822265624
-0.39843169921875,0.07727562255859374,0.95304951171875
-0.21947732421875,0.0838930615234375,0.8358188427734374
-0.21655958984375,0.12678386962890625,1.06511908203125
-0.32864921874999997,-0.1562954638671875,1.2138078759765625
-0.3437241796875,-0.11536537841796875,1.3720815673828124
-0.317950859375,0.1289896826171875,1.2981058203125
-0.25740787109375,0.00791505859375,1.1292641650390625
-0.290718671875,0.05472731201171875,1.194392314453125
-0.33959072265625,0.1152646240234375,1.2963854541015625
-0.38530189453125,-0.1719812451171875,1.2197062744140625
-0.2746711328125,-0.05801424072265625,1.0184234277343749
-0.22579908203125,-0.0151234326171875,0.80165728515625
-0.159420625,-0.11585555908203125,0.7665126611328125
-0.22725794921875,-0.11095375244140625,1.06708521484375
-0.3690112109375,0.22947671875,1.4762866064453124
-0.42858162109375,0.22359455078125,1.6797813525390626
-0.4978778125,0.0299731884765625,1.53502482421875
-0.39308251953125,0.08903995849609375,0.9862280029296875
-0.15820490234375,-0.2219796728515625,0.6256883984375
-0.084532109375,-0.27124282958984375,0.5981625390625
-0.21558701171875,-0.26192939697265627,0.714164375
-0.249870390625,-0.27908572021484374,0.8156659814453124
-0.21753216796875,-0.0925719775390625,1.0545511181640626
-0.31673513671875,0.07825598388671876,1.2506728662109374
-0.38530189453125,0.0309535498046875,1.372327333984375
-0.3485870703125,-0.05360261474609375,1.217494375
-0.207076953125,0.1554594384765625,0.8989808593749999
-0.22750109375,0.11256863037109376,0.642892060546875
-0.13972591796875,-0.170510703125,0.8122252490234375
-0.1754681640625,-0.00458454833984375,1.1449932275390624
-0.255705859375,0.237319609375,1.280902158203125
-0.20197091796875,-0.04698517578125,1.1764513525390625
-0.113709453125,0.02360083984375,1.1985703466796875
-0.20342978515625,0.1682041357421875,1.42885365234375
-0.408400625,0.13658748291015624,1.5588641845703126
-0.3344846875,0.24099596435546874,1.237647236328125
-0.259596171875,0.1397736572265625,0.9478884130859375
-0.2177753125,-0.0023787353515625003,0.803131884765625
-0.253760703125,-0.047965537109375,0.699909912109375
-0.11541146484375,-0.0803174609375,0.6399428613281251
0.03387927734375,-0.09845414550781251,0.7026133447265624
-0.1929745703125,-0.0935523388671875,0.918150654296875
-0.3578265625,0.00791505859375,1.09952640625
-0.33424154296874997,-0.0097314453125,1.0619241162109374
-0.3602580078125,-0.03497574951171875,0.859658203125
-0.22823052734375,-0.06046514404296875,0.6534600244140625
-0.0932853125,-0.2160975048828125,0.6286375976562499
-0.20537494140625,-0.2523708740234375,0.859166669921875
-0.29144810546875,-0.0641414990234375,0.9483799462890625
-0.30360533203125,-0.0347306591796875,0.871946533203125
-0.27151025390625,0.055952763671875,0.79379275390625
-0.2177753125,0.15178308349609376,0.7930554541015625
-0.16525609375,0.095167216796875,0.8318865771484375
-0.3485870703125,0.075559990234375,0.7527497314453125
-0.1365650390625,-0.032279755859375,0.6964691796875
-0.205131796875,0.05913893798828125,0.655180390625
-0.33959072265625,0.015022678222656249,0.6888504150390625
-0.2085358203125,-0.0006631030273437505,0.686638515625
-0.199296328125,0.12776423095703124,0.6967149462890625
-0.19953947265625,-0.03914228515625,0.6932742138671875
-0.16452666015625,0.06551128662109375,0.8948028271484375
-0.36439146484375,0.07188363525390624,1.048406953125
-0.33959072265625,0.05325677001953125,1.237647236328125
-0.36001486328125,0.1005592041015625,1.3366911767578125
-0.34639876953125,0.00865032958984375,1.1440101611328124
-0.24184662109375,-0.0562986083984375,1.0058893310546875
-0.25205869140625,0.0010525292968750002,0.858183603515625
-0.29679728515625,-0.03914228515625,0.7208000732421875
-0.2075632421875,0.01992448486328125,0.7178508740234375
-0.2707808203125,0.02923791748046875,0.930930517578125
-0.292663828125,-0.00262382568359375,0.9820499707031249
-0.24379177734375002,-0.0288484912109375,1.0196522607421874
-0.3320532421875,0.0020328906249999995,0.9341254833984375
-0.11541146484375,-0.1082577587890625,0.78199595703125
-0.2202067578125,0.015022678222656249,0.7901062548828125
-0.2707808203125,0.0172284912109375,0.89799779296875
-0.292663828125,-0.04036773681640625,1.1268064990234374
-0.37752126953125,0.0030132519531249997,1.214053642578125
-0.3388612890625,-0.05899460205078125,1.0739666796875
-0.2445212109375,-0.06095532470703125,0.7832247900390625
-0.12027435546875,-0.07026875732421875,0.6706636865234374
-0.10130908203125,-0.05360261474609375,0.63650212890625
-0.119544921875,-0.051886982421875,0.8471241064453126
-0.20804953125,0.0231106591796875,1.0324321240234375
-0.24281919921875,0.0927163134765625,1.0825685107421874
-0.33959072265625,0.0525214990234375,1.1553154248046875
-0.347128203125,0.07457962890625,1.188493916015625
-0.31284482421875,0.12874459228515625,1.039067822265625
-0.19516287109375,0.048109873046875,1.0579918505859376
-0.2902323828125,0.12972495361328126,1.2138078759765625
-0.33424154296874997,7.216796875000007e-05,1.1789090185546875
-0.26372962890625,0.08462833251953125,1.0928907080078125
-0.2746711328125,-0.11830646240234374,0.9442019140625
-0.1501811328125,-0.0808076416015625,0.9198710205078124
-0.30627992187499997,0.04345315673828125,0.835573076171875
-0.13510617187500001,-0.01978014892578125,0.9419900146484375
-0.19224513671875,0.01600303955078125,1.2310115380859374
-0.456056953125,-0.07443529296875,1.36397126953125
-0.31235853515625,0.06060947998046875,1.221426640625
-0.41399294921875,0.05521749267578125,1.0280083251953125
-0.3767918359375,-0.0082609033203125,0.723503505859375
-0.1180860546875,-0.0651218603515625,0.5782554443359375
-0.12829812499999999,0.08315779052734375,0.85081060546875
-0.33326896484375,-0.07664110595703125,1.1469593603515624
-0.183735078125,0.11011772705078125,1.565991416015625
-0.52924345703125,0.1941837109375,1.40919232421875
-0.349073359375,-0.10703230712890625,0.9975332666015625
-0.12221951171875,-0.01389798095703125,0.7640549951171876
-0.17960162109375,-0.01487834228515625,0.6441208935546875
-0.1715778515625,-0.01561361328125,0.6583753564453125
-0.22701480468750002,-0.01585870361328125,0.7316138037109375
-0.26664736328125,-0.030073942871093752,0.8893959619140624
-0.3077387890625,-0.08252327392578125,0.9390408154296875
-0.2377131640625,0.0946770361328125,1.0899415087890625
-0.33667298828125003,0.004973974609375,1.1722733203125
-0.27783201171875,0.06649164794921875,1.1926719482421875
-0.2192341796875,0.016738310546875,1.1882481494140624
-0.26421591796875,-0.0533575244140625,1.1784174853515625
-0.25473328125,0.02041466552734375,1.0835515771484374
-0.30360533203125,-0.008751083984375,0.9599309765625
-0.21169669921875,-0.0366913818359375,0.8485987060546875
-0.236254296875,0.06109966064453125,0.8073099169921875
-0.17473873046875,-0.0866898095703125,0.8608870361328125
-0.226528515625,-0.018554697265625,1.170798720703125
-0.2853694921875,0.09296140380859375,1.2998261865234375
-0.40913005859375,0.1368325732421875,1.1789090185546875
-0.2027003515625,-0.03889719482421875,0.9552614111328125
-0.3281629296875,0.06281529296875,0.8262339453125
-0.29387955078125,-0.14967802490234375,0.7429190673828125
-0.21364185546875,-0.2170778662109375,0.8712092333984375
-0.28391062499999997,-0.04281864013671875,0.9778719384765625
-0.13194529296875,-0.14771730224609375,0.9041419580078125
-0.27637314453125,0.00987578125,0.9164302880859375
-0.3009307421875,-0.12222790771484375,0.6991726123046875
-0.10665826171875001,-0.047965537109375,0.69745224609375
-0.1988100390625,0.0299731884765625,0.7827332568359375
-0.30919765625,0.03904153076171875,0.9965502001953125
-0.26810623046875,-0.06242586669921875,1.08281427734375
-0.29485212890625,0.080461796875,1.1174673681640626
-0.44049570312499997,0.0299731884765625,0.9021758251953125
-0.28464005859375,-0.00581,0.783470556640625
-0.234309140625,0.09541230712890625,0.842454541015625
-0.2785614453125,-0.0308092138671875,0.888658662109375
-0.13243158203125,-0.046004814453125,0.908319990234375
-0.2377131640625,0.0191892138671875,0.83508154296875
-0.17571130859375,-0.1582561865234375,0.7694618603515625
-0.16938955078125,-0.050661530761718754,0.7473428662109375
-0.2386857421875,0.049090234375,0.7940385205078125
-0.18397822265625,0.046149150390625,0.9174133544921875
-0.3116291015625,-0.0013983740234375002,1.1528577587890625
-0.35977171875,0.15129290283203126,1.31973328125
-0.39843169921875,0.05497240234375,1.22830810546875
-0.19175884765625,0.01110123291015625,1.0661021484375
-0.2785614453125,0.07825598388671876,0.9960586669921875
-0.29047552734375,0.011346323242187501,0.8810398974609375
-0.1399690625,0.0044837939453125,0.818860947265625
-0.14069849609375001,-0.19992154296875,0.80853875
-0.20926525390625,-0.13203152099609375,0.758893896484375
-0.23990146484375,-0.08619962890625,0.6060270703125
-0.14702025390625,-0.17712814208984376,0.5384412548828125
-0.084532109375,-0.09036616455078125,0.6392055615234375
-0.2503566796875,0.017718671875,0.7920723876953125
-0.24622322265625,-0.0621807763671875,0.99630443359375
-0.29825615234375,0.12776423095703124,1.252884765625
-0.42371873046874997,0.26893626220703126,1.3283351123046876
-0.413263515625,0.089285048828125,1.2511643994140624
-0.2931501171875,0.22359455078125,1.256325498046875
-0.2566784375,-0.04723026611328125,1.080356611328125
-0.14653396484375,-0.1719812451171875,0.893573994140625
-0.13340416015625,0.009140510253906251,0.74660556640625
-0.15164,-0.0229663232421875,0.6726298193359375
-0.21996361328125,-0.124433720703125,0.7296476708984375
-0.30117388671875,0.091245771484375,0.843437607421875
-0.34421046875,-0.11193411376953125,0.88030259765625
-0.37533296875,0.01600303955078125,0.8928366943359375
-0.242089765625,0.0623251123046875,0.78592822265625
-0.24816837890625,0.0020328906249999995,0.8667854345703125
-0.36925435546875,0.06673673828125,1.1272980322265624
-0.3874901953125,0.06992291259765625,1.1926719482421875
-0.25351755859375,0.14197947021484375,1.1565442578125
-0.1151683203125,0.0137972265625,1.080356611328125
-0.21996361328125,-0.0259074072265625,1.1671122216796874
-0.1365650390625,0.05423713134765625,1.2152824755859375
-0.33083751953125,0.01845394287109375,1.1504000927734375
-0.27151025390625,0.0642858349609375,1.1562984912109375
-0.366579765625,0.0985984814453125,1.0334151904296875
-0.4312562109375,0.013552136230468751,0.954524111328125
-0.41447923828125,0.0427178857421875,0.984016103515625
-0.424934453125,-0.07443529296875,1.0801108447265624
-0.34688505859375,-0.1308060693359375,0.9400238818359374
-0.26761994140625,-0.17173615478515625,0.8348357763671875
-0.1560166015625,-0.196980458984375,0.7655295947265625
-0.089395,-0.04526954345703125,0.8053437841796875
-0.06872771484375,-0.067572763671875,0.983033037109375
-0.26372962890625,-0.02958376220703125,1.28532595703125
-0.38700390625000003,0.01208159423828125,1.492261435546875
-0.4866931640625,0.049090234375,1.424429853515625
-0.42712275390625,0.07776580322265625,1.0348897900390626
-0.277102578125,-0.07320984130859375,0.706791376953125
-0.222638203125,-0.1013952294921875,0.6020948046875
-0.29363640625,0.021640117187500002,1.0329236572265625
-0.28853037109375,0.03757098876953125,0.909303056640625
-0.22701480468750002,-0.05164189208984375,0.817877880859375
-0.172064140625,-0.05360261474609375,0.8259881787109375
-0.11492517578125,-0.008996174316406251,1.0461950537109375
-0.2099946875,-0.0621807763671875,1.24010490234375
-0.19248828125,0.010856142578125,1.521753427734375
-0.380195859375,-0.00654527099609375,1.6628234570312501
-0.43344451171875,0.012816865234374999,1.5298637255859375
-0.48401857421875,0.06281529296875,1.19095158203125
-0.3787369921875,-0.100905048828125,1.078390478515625
-0.2834243359375,-0.11242429443359375,0.9936010009765625
-0.2503566796875,-0.0254172265625,0.8672769677734375
-0.24038775390625,-0.048945898437499996,0.733825703125
-0.1774133203125,-0.0964934228515625,0.672384052734375
-0.10763083984374999,0.0603643896484375,0.731368037109375
-0.1307295703125,0.183399736328125,0.872929599609375
-0.2377131640625,0.16305723876953124,1.14376439453125
-0.42177357421875,0.14737145751953126,1.3905140625
-0.4828028515625,0.16844922607421875,1.30400421875
-0.35588140625,0.0721287255859375,1.0806023779296874
-0.21607330078125,-0.03693647216796875,0.8567090039062499
-0.197351171875,-0.0798272802734375,0.771673759765625
-0.2347954296875,-0.18521612304687501,0.7601227294921875
-0.221665625,-0.16242272216796874,0.8525309716796875
-0.2357680078125,-0.06928839599609375,0.85867513671875
-0.21899103515625,-0.0582593310546875,0.9763973388671875
-0.28658521484375,0.01012087158203125,0.96681244140625
-0.26275705078125,-0.00581,0.8731753662109375
-0.27734572265625,0.06355056396484375,0.7987080859375
-0.16720125,0.01649322021484375,0.7556989306640625
-0.26761994140625,-0.03693647216796875,0.7987080859375
-0.26372962890625,-0.0121823486328125,0.9218371533203125
-0.30117388671875,0.03953171142578125,1.0432458544921874
-0.177899609375,-0.00262382568359375,1.0535680517578125
-0.3524773828125,-0.032279755859375,1.150645859375
-0.3485870703125,0.03708080810546875,1.1754682861328125
-0.22750109375,0.01649322021484375,1.02579642578125
-0.279047734375,-0.016593974609375,0.94321884765625
-0.20245720703125,-0.0881603515625,0.9862280029296875
-0.25084296875,-0.0567887890625,0.9650920751953125
-0.23163455078125,-0.0298288525390625,0.9405154150390624
-0.2649453515625,-0.0494360791015625,0.859166669921875
-0.2406308984375,-0.116590830078125,0.810013349609375
-0.28026345703125,-0.09722869384765626,0.7979707861328125
-0.282938046875,0.008895419921875,0.8891501953125
-0.28074974609375003,0.03512008544921875,0.9442019140625
-0.302389609375,0.03168882080078125,1.002694365234375
-0.2561921484375,0.0427178857421875,0.955507177734375
-0.2620276171875,0.018699033203125,0.875878798828125
-0.20926525390625,-0.0180645166015625,0.7768348583984375
-0.2289599609375,-0.1043363134765625,0.759876962890625
-0.18640966796875,-0.091101435546875,0.8490902392578125
-0.2017277734375,-0.09183670654296874,0.94125271484375
-0.321841171875,-0.08546435791015625,1.0638902490234374
-0.3067662109375,-0.0151234326171875,1.04545775390625
-0.32743349609375,0.053992041015625,1.0319405908203125
-0.28634207031250003,0.07261890625,0.9980247998046875
-0.26640421875,0.0819323388671875,0.956490244140625
-0.2377131640625,0.057913486328125,0.83213234375
-0.2104809765625,-0.00948635498046875,0.790352021484375
-0.249870390625,-0.09404251953125001,0.8028861181640625
-0.10617197265625,0.0025230712890624996,0.9326508837890625
-0.2824517578125,-0.1435507666015625,0.90586232421875
-0.21510072265625,-0.1651187158203125,0.909303056640625
-0.2566784375,-0.00997653564453125,0.985982236328125
-0.21947732421875,-0.0259074072265625,0.9906518017578125
-0.27613,0.02923791748046875,1.0294829248046875
-0.21947732421875,-0.00703545166015625,1.028745625
-0.26616107421875,0.04786478271484375,0.967303974609375
-0.1851939453125,-0.00948635498046875,1.0176861279296876
-0.2980130078125,0.02923791748046875,1.0673309814453125
-0.2717533984375,0.0843832421875,1.048406953125
-0.2698082421875,0.0505607763671875,0.9719735400390626
-0.221665625,0.044188427734375,0.9704989404296875
-0.22677166015625,0.08168724853515624,1.0324321240234375
-0.366579765625,0.20619313720703125,1.0678225146484375
-0.21972046875,0.14001874755859375,0.8790737646484375
-0.11735662109375,0.09933375244140626,0.8299204443359375
-0.28074974609375003,0.20178151123046875,1.0879753759765625
-0.3553951171875,0.0191892138671875,1.24108796875
-0.343237890625,-0.023456503906250002,1.3067076513671876
-0.41788326171875,0.12923477294921876,1.341852275390625
-0.42177357421875,-0.0254172265625,1.12410306640625
-0.26956509765625,-0.0661022216796875,0.922574453125
-0.205131796875,0.0037485229492187503,0.8692431005859375
-0.1978374609375,0.03928662109375,0.86260740234375
-0.20975154296875,-0.051886982421875,1.12312
-0.325731484375,0.04124734375,1.2875378564453124
-0.3952708203125,0.016738310546875,1.1474508935546874
-0.29825615234375,-0.02027032958984375,0.924049052734375
-0.27734572265625,-0.10752248779296875,0.8554801708984375
-0.389921640625,-0.02713285888671875,0.8871840625
-0.2921775390625,-0.046740085449218746,0.9419900146484375
-0.28172232421875,-0.10262068115234375,1.0319405908203125
-0.247925234375,0.0008074389648437498,0.929947451171875
-0.2085358203125,-0.0366913818359375,0.8392595751953125
-0.16258150390625,-0.02223105224609375,0.8751414990234375
-0.35126166015625,-0.0582593310546875,0.9196252539062499
-0.22823052734375,-0.1327667919921875,0.7566819970703125
-0.14945169921875,-0.08963089355468751,0.60307787109375
-0.12805498046875,-0.09036616455078125,0.5964421728515625
-0.0840458203125,-0.10458140380859375,0.7257154052734375
-0.19856689453125,0.01257177490234375,0.993846767578125
-0.4828028515625,0.17874302001953124,1.2587831640625
-0.41107521484375,0.16550814208984374,1.2273250390625
-0.044899550781250006,0.06355056396484375,1.318258681640625
-0.39648654296875,0.2412410546875,1.2845886572265626
-0.22336763671875,-0.00213364501953125,1.048406953125
-0.25254498046875,-0.077376376953125,1.010558896484375
-0.37217208984375,0.04884514404296875,1.0776531787109376
-0.2309051171875,-0.07909200927734375,0.955507177734375
-0.18081734375,-0.0308092138671875,0.951574912109375
-0.220693046875,0.10399046875,1.062661416015625
-0.26372962890625,-0.06732767333984375,1.087238076171875
-0.2912049609375,-0.06536695068359374,1.12803533203125
-0.3077387890625,0.077520712890625,1.2590289306640625
-0.52486685546875,0.07776580322265625,1.20274837890625
-0.2192341796875,0.021885207519531248,1.05233921875
-0.21364185546875,0.01306195556640625,1.0928907080078125
-0.28634207031250003,-0.09526797119140624,1.1730106201171875
-0.2289599609375,-0.02149578125,1.0629071826171874
-0.24670951171875,-0.02664267822265625,0.8879213623046875
-0.33108066406250003,-0.04330882080078125,0.871455
-0.226528515625,-0.11364974609375,0.8948028271484375
-0.18932740234375,0.020659755859375,0.889641728515625
-0.27831830078124997,-0.076396015625,0.7741314257812499
-0.26810623046875,0.0008074389648437498,0.6453497265625
-0.28366748046875,0.06502110595703126,0.5802215771484375
-0.1034973828125,0.0574233056640625,0.651248125
-0.222638203125,0.1211467919921875,0.8790737646484375
-0.35977171875,0.179478291015625,1.1695698876953124
-0.294608984375,0.106931552734375,1.2482152001953124
-0.3660934765625,0.14099910888671874,1.2197062744140625
-0.181789921875,0.05864875732421875,1.0407881884765624
-0.24622322265625,0.03855135009765625,0.9872110693359375
-0.18446451171875,-0.038161923828125,1.0874838427734375
-0.352963671875,-0.03105430419921875,1.1213996337890624
-0.2411171875,-0.05360261474609375,0.946659580078125
-0.28074974609375003,0.01575794921875,0.8431918408203125
-0.232363984375,-0.0803174609375,0.7881401220703125
-0.18543708984375,0.0495804150390625,0.9223286865234375
-0.2878009375,0.00325834228515625,1.08281427734375
-0.330594375,0.01551285888671875,1.1852989501953124
-0.36633662109375,0.0427178857421875,1.1892312158203124
-0.33764556640625,-0.10213050048828125,1.01989802734375
-0.25935302734375,-0.05115171142578125,0.8933282275390625
-0.22968939453125,-0.0646316796875,0.84786140625
-0.2056180859375,0.00766996826171875,0.911269189453125
-0.28974609375,-0.08203309326171875,0.9921264013671875
-0.31770771484375,-0.00581,1.0346440234375
-0.23819945312500002,-0.1352176953125,0.9021758251953125
-0.23819945312500002,-0.0827683642578125,0.7321053369140624
-0.1628246484375,-0.07443529296875,0.6446124267578125
-0.191515703125,-0.08987598388671875,0.685163916015625
-0.20732009765625,0.04933532470703125,0.9488714794921875
-0.35661083984374997,-0.08399381591796876,1.2133163427734375
-0.32694720703125,0.1387932958984375,1.31285181640625
-0.269321953125,0.1240878759765625,1.1877566162109374
-0.3301080859375,-0.08595453857421875,1.072000546875
-0.26056875,0.12580350830078124,1.096085673828125
-0.31527626953125,0.0270321044921875,1.024813359375
-0.3009307421875,-0.02027032958984375,1.0304659912109375
-0.21266927734375,-0.01144707763671875,1.096085673828125
-0.2445212109375,-0.085219267578125,1.0108046630859375
-0.218747890625,-0.0974737841796875,0.9007012255859375
-0.29679728515625,-0.04723026611328125,0.828691611328125
-0.24962724609375,-0.03742665283203125,0.7822417236328125
-0.22482650390625,-0.0803174609375,0.7699533935546875
-0.2255559375,0.06158984130859375,0.8223016796875
-0.205131796875,-0.01830960693359375,0.8498275390625
-0.2124261328125,0.01698340087890625,0.9783634716796875
-0.265431640625,0.061834931640625,1.108865537109375
-0.378250703125,0.071638544921875,1.15752732421875
-0.30020130859375,0.059874208984374996,1.182103984375
-0.25205869140625,0.06011929931640625,1.13393373046875
-0.2843969140625,0.0064445166015625,1.030220224609375
-0.24938410156250002,-0.00777072265625,0.979100771484375
-0.1978374609375,0.12727405029296876,0.9088115234375
-0.27418484375,-0.0023787353515625003,0.80558955078125
-0.27783201171875,0.0309535498046875,0.7694618603515625
-0.125380390625,0.03904153076171875,0.7869112890625
-0.1813036328125,-0.0004180126953125,0.95304951171875
-0.27005138671875,0.11207844970703125,1.2000449462890626
-0.32791978515625,0.0966377587890625,1.2359268701171875
-0.31624884765625,-0.0592396923828125,1.0294829248046875
-0.24087404296875,0.0750698095703125,1.0739666796875
-0.1297569921875,-0.06267095703125,1.24600330078125
-0.3111428125,0.004973974609375,1.3804376318359375
-0.4866931640625,0.0191892138671875,1.2605035302734375
-0.2279873828125,0.00423870361328125,0.9877026025390625
-0.19710802734375,-0.02664267822265625,0.8323781103515625
-0.13048642578125,-0.07370002197265625,0.8343442431640625
-0.216802734375,0.0250713818359375,0.99630443359375
-0.31868029296875,-0.01928996826171875,0.9768888720703125
-0.3495596484375,0.04002189208984375,0.79182662109375
-0.199296328125,-0.013162709960937501,0.6964691796875
-0.174009296875,-0.01683906494140625,0.647807392578125
-0.170118984375,0.03610044677734375,0.709740576171875
-0.16306779296875,0.126538779296875,0.8655566015625
-0.31722142578125,0.096147578125,1.0742124462890625
-0.41350666015625,0.06992291259765625,1.1784174853515625
-0.24087404296875,0.028257556152343752,1.1041959716796874
-0.1667149609375,0.02874773681640625,1.055779951171875
-0.32013916015625,0.0142874072265625,0.9331424169921875
-0.138996484375,-0.138158779296875,0.8481071728515625
-0.16914640625,0.01747358154296875,0.96288017578125
-0.3631757421875,-0.09330724853515625,0.97369390625
-0.2630001953125,-0.1033559521484375,0.9815584374999999
-0.32475890625,0.06060947998046875,0.9351085498046875
-0.21947732421875,-0.1013952294921875,0.852285205078125
-0.23601115234375,-0.046740085449218746,0.785436689453125
-0.22044990234375,-0.05752406005859375,0.7935469873046875
-0.31819400390625,0.00791505859375,0.89799779296875
-0.21753216796875,0.05031568603515625,0.9095488232421876
-0.22190876953125,-0.03938737548828125,0.8441749072265625
-0.23528171875,-0.06242586669921875,0.925032119140625
-0.23649744140625,-0.10507158447265624,0.95894791015625
-0.3267040625,0.0010525292968750002,0.9616513427734374
-0.25643529296875,-0.07419020263671874,0.824759345703125
-0.2036729296875,-0.0317895751953125,0.8380307421875
-0.25862359375,-0.01046671630859375,0.8952943603515625
-0.343237890625,-0.0592396923828125,0.97369390625
-0.25254498046875,0.03536517578125,0.98450763671875
-0.25862359375,-0.081297822265625,0.8603955029296875
-0.18446451171875,-0.01585870361328125,0.88226873046875
-0.13437673828125,-0.0396324658203125,0.8569547705078124
-0.20975154296875,-0.0016434643554687498,0.8694888671875
-0.310170234375,0.04345315673828125,1.024813359375
-0.392839375,-0.096983603515625,1.0633987158203124
-0.31430369140625003,0.09149086181640625,1.0678225146484375
-0.23139140625,0.03561026611328125,1.0186691943359376
-0.26251390625,-0.03105430419921875,0.989914501953125
-0.3203823046875,0.02433611083984375,1.0157199951171876
-0.3388612890625,-0.0170841552734375,0.930930517578125
-0.15577345703125,-0.008996174316406251,0.8618701025390625
-0.15358515625,0.03462990478515625,0.8481071728515625
-0.2513292578125,-0.050661530761718754,0.859166669921875
-0.20634751953125,0.04786478271484375,0.962388642578125
-0.29339326171875,0.08315779052734375,0.9395323486328125
-0.24525064453125,-0.00360418701171875,0.9272440185546875
-0.2668905078125,0.16648850341796875,0.9331424169921875
-0.21023783203125002,0.028257556152343752,0.852285205078125
-0.23698373046875,0.0250713818359375,0.9139726220703125
-0.1676875390625,-0.08938580322265625,0.9397781152343749
-0.3145468359375,-0.07026875732421875,0.8775991650390624
-0.22336763671875,-0.1141399267578125,0.8731753662109375
-0.2552195703125,-0.06659240234375,0.946659580078125
-0.2386857421875,-0.07222947998046875,0.8653108349609375
-0.17960162109375,0.1142842626953125,0.9822957373046874
-0.19029998046875,0.0956573974609375,1.16735798828125
-0.349073359375,0.0544822216796875,1.171781787109375
-0.32937865234375,0.1235976953125,1.0511103857421875
-0.30360533203125,0.12629368896484375,0.867522734375
-0.23455228515625,0.01992448486328125,0.8033776513671875
-0.049762441406249996,0.05570767333984375,0.7340714697265625
-0.14361623046875,-0.0553182470703125,0.7620888623046875
-0.2299325390625,0.01649322021484375,0.922574453125
-0.33181009765625,0.0012976196289062499,0.985982236328125
-0.19662173828125,-0.01732924560546875,0.9877026025390625
-0.16209521484375,0.05105095703125,1.0240760595703124
-0.1472633984375,0.026296833496093748,0.96877857421875
-0.19516287109375,-0.2180582275390625,0.95304951171875
-0.384086171875,0.0829127001953125,1.2133163427734375
-0.43879369140625,0.15472416748046874,1.1661291552734374
-0.267376796875,0.14394019287109375,1.0427543212890624
-0.23698373046875,0.253005390625,1.0447204541015624
-0.28026345703125,0.16207687744140625,0.99237216796875
-0.13243158203125,0.197124794921875,1.009575830078125
-0.10422681640625,0.13707766357421874,1.0535680517578125
-0.29874244140625,-0.03546593017578125,0.9245405859375
-0.247925234375,0.1235976953125,0.9847534033203125
-0.46602587890625,0.01208159423828125,0.94518498046875
-0.25740787109375,-0.10115013916015625,0.8156659814453124
-0.20829267578125,-0.0288484912109375,0.8618701025390625
-0.26129818359375,0.08707923583984375,1.0289913916015625
-0.30992708984375,-0.00703545166015625,1.119187734375
-0.249870390625,0.014777587890624999,1.1941465478515625
-0.31770771484375,0.056933125,1.2270792724609374
-0.36536404296875,-0.023456503906250002,1.105916337890625
-0.07650833984375,-0.04330882080078125,0.8970147265625
-0.19419029296875,-0.03252484619140625,0.8242678125
-0.3446967578125,0.015022678222656249,1.0324321240234375
-0.290718671875,0.04786478271484375,1.1277895654296874
-0.35272052734375,-0.0504164404296875,1.1253318994140624
-0.34396732421875,-0.02370159423828125,0.97664310546875
-0.22093619140625,-0.12516899169921875,0.8972604931640625
-0.27491427734375,-0.06732767333984375,0.7615973291015625
-0.3923530859375,0.018699033203125,0.68958771484375
-0.04781728515625,-0.08203309326171875,0.5821877099609375
-0.0383346484375,-0.13546278564453124,0.7952673535156249
