ax,ay,az
-0.3262177734375,-0.0001729223632812504,1.1848074169921876
-0.34445361328125,0.0037485229492187503,0.9815584374999999
-0.245980078125,0.08854977783203125,0.98450763671875
-0.30360533203125,0.0858537841796875,1.0319405908203125
-0.317950859375,0.0003172583007812497,1.0506188525390625
-0.27540056640625,-0.07762146728515625,0.894557060546875
-0.26470220703125,-0.06977857666015624,0.6898334814453125
-0.19370400390625,-0.09404251953125001,0.57751814453125
-0.23552486328125,0.0289928271484375,0.6102051025390625
-0.3670660546875,-0.0406128271484375,0.790352021484375
-0.32013916015625,0.03855135009765625,1.0427543212890624
-0.43587595703125,0.0574233056640625,1.048898486328125
-0.32013916015625,-0.06585713134765625,0.9238032861328125
-0.26081189453125,0.03315936279296875,0.9048792578125
-0.423961875,0.07041309326171875,0.923065986328125
-0.37703498046875,-0.00948635498046875,0.871455
-0.30992708984375,-0.0925719775390625,0.780521357421875
-0.27540056640625,-0.057769150390625,0.6460870263671875
-0.21169669921875,0.0020328906249999995,0.559331416015625
-0.1501811328125,0.09982393310546875,0.6785282177734375
-0.25692158203125,0.14050892822265626,0.9016842919921875
-0.30603677734375,0.12163697265625,1.1243488330078124
-0.3933256640625,0.06698182861328125,1.2902412890625
-0.46797103515625,0.11747043701171875,1.134425263671875
-0.3067662109375,-0.0719843896484375,0.926015185546875
-0.36779548828124997,-0.02958376220703125,0.9154472216796875
-0.3719289453125,0.03708080810546875,1.093136474609375
-0.32402947265625,-0.132276611328125,1.195375380859375
-0.341292734375,-0.12541408203125,1.0668394482421875
-0.2955815625,-0.11928682373046876,0.737266435546875
-0.14507509765624998,-0.2347243701171875,0.6451039599609375
-0.16647181640625,-0.25604722900390625,0.6669771875
-0.3019033203125,-0.079337099609375,0.7655295947265625
-0.25838044921875,-0.0504164404296875,0.9139726220703125
-0.3631757421875,-0.11634573974609375,0.9677955078125
-0.3524773828125,-0.02149578125,0.78396208984375
-0.2523018359375,-0.0803174609375,0.6691890869140625
-0.23139140625,-0.13301188232421876,0.68270625
-0.2347954296875,0.0887948681640625,0.8338527099609375
-0.26956509765625,0.05374695068359375,0.9370746826171875
-0.25205869140625,0.11452935302734375,1.03562708984375
-0.21412814453125,-0.1102184814453125,1.2059433447265624
-0.34007701171875,-0.057769150390625,1.40919232421875
-0.38700390625000003,0.0348749951171875,1.3853529638671875
-0.3408064453125,0.08560869384765625,1.2496897998046874
-0.47137505859375,0.16795904541015624,1.0412797216796874
-0.28366748046875,0.0294830078125,0.7910893212890625
-0.06678255859375,-0.0837487255859375,0.7947758203124999
-0.37022693359375003,-0.1004148681640625,0.990897568359375
-0.33472783203125,0.0123266845703125,0.891607861328125
-0.237226875,0.0466393310546875,0.74857169921875
-0.33108066406250003,-0.11928682373046876,0.7596311962890625
-0.31381740234375,-0.12026718505859375,0.811979482421875
-0.18738224609375,-0.124433720703125,0.9542783447265625
-0.3699837890625,-0.132276611328125,1.2300284716796874
-0.37168580078125,-0.12663953369140624,1.275986826171875
-0.3889490625,-0.04526954345703125,1.1813666845703126
-0.522192265625,-0.03546593017578125,0.861132802734375
-0.27977716796875,-0.1626678125,0.570145146484375
-0.057543066406249996,-0.1626678125,0.5114069287109375
-0.0388209375,-0.10850284912109374,0.7178508740234375
-0.18251935546875,0.02531647216796875,0.9778719384765625
-0.5139253515625,0.10472573974609375,1.0722463134765625
-0.33521412109375,0.1584005224609375,0.955507177734375
-0.2561921484375,0.0010525292968750002,0.8436833740234375
-0.28634207031250003,0.07457962890625,0.9921264013671875
-0.2834243359375,-0.02860340087890625,1.1843158837890626
-0.3729015234375,0.057913486328125,1.2664019287109376
-0.421044140625,0.042227705078125,1.1857904833984374
-0.2824517578125,0.1314405859375,1.1676037548828124
-0.2805066015625,0.028502646484374998,1.1213996337890624
-0.237226875,0.0574233056640625,1.009084296875
-0.07018658203125,0.0623251123046875,0.9321593505859375
-0.15480087890625,0.10472573974609375,1.1617053564453126
-0.50371328125,0.14050892822265626,1.2678765283203126
-0.20804953125,-0.03252484619140625,1.165883388671875
-0.33132380859375,0.1221271533203125,1.1282810986328125
-0.432715078125,-0.10360104248046875,1.0044147314453125
-0.29169125,-0.06977857666015624,0.9287186181640625
-0.41107521484375,-0.03105430419921875,0.977134638671875
-0.27783201171875,-0.22124440185546876,0.9795923046875
-0.23455228515625,-0.151883837890625,0.947642646484375
-0.2153438671875,-0.14771730224609375,0.9326508837890625
-0.21947732421875,-0.10409122314453124,0.926015185546875
-0.23260712890625002,-0.15163874755859374,0.882760263671875
-0.2435486328125,0.01600303955078125,0.9424815478515625
-0.2630001953125,0.021640117187500002,1.0697886474609375
-0.3524773828125,-0.15654055419921875,1.20471451171875
-0.302389609375,-0.1631579931640625,1.0742124462890625
-0.25497642578125,-0.13301188232421876,0.756927763671875
-0.20197091796875,-0.10556176513671875,0.59914560546875
-0.2523018359375,-0.1651187158203125,0.5153391943359376
-0.05316646484375,-0.0915916162109375,0.535737822265625
-0.07018658203125,-0.038161923828125,0.8618701025390625
-0.29144810546875,0.0123266845703125,1.1631799560546874
-0.43879369140625,-0.04306373046875,1.370852734375
-0.35223423828125,0.09810830078125,1.331530078125
-0.308225078125,0.10962754638671875,1.041033955078125
-0.12829812499999999,0.03168882080078125,0.8574463037109374
-0.13389044921874999,0.08070688720703124,0.8144371484375
-0.3233000390625,-0.04306373046875,0.73874103515625
-0.11735662109375,-0.04723026611328125,0.77216529296875
-0.36974064453125,-0.07713128662109375,0.833606943359375
-0.30749564453125,-0.04870080810546875,0.904387724609375
-0.24476435546875,-0.03056412353515625,0.837539208984375
-0.2698082421875,-0.1670794384765625,0.8417172412109375
-0.18981369140625,-0.10580685546875,1.0228472265625
-0.28853037109375,-0.0803174609375,0.962388642578125
-0.30652306640625,-0.096983603515625,0.8515479052734375
-0.28998923828125,-0.08423890625,0.7153932080078125
-0.3349709765625,-0.17173615478515625,0.7357918359375
-0.30652306640625,-0.042328459472656246,0.718588173828125
-0.1890842578125,-0.1509034765625,0.614383134765625
-0.14507509765624998,-0.2214894921875,0.652722724609375
-0.27053767578125,-0.18742193603515625,0.6696806201171875
-0.29679728515625,-0.0562986083984375,0.70531677734375
-0.3699837890625,-0.05311243408203125,0.71121517578125
-0.2722396875,0.01159141357421875,0.6396970947265626
-0.21607330078125,0.0966377587890625,0.5590856494140625
-0.21218298828125,0.08315779052734375,0.6215103662109375
-0.236254296875,0.022620478515625,0.7869112890625
-0.174009296875,-0.01830960693359375,0.90389619140625
-0.31284482421875,0.00472888427734375,1.00416896484375
-0.3164919921875,0.0740894482421875,1.0402966552734374
-0.39210994140625,0.0015427099609375003,0.9582106103515625
-0.34250845703125,0.1358522119140625,0.93535431640625
-0.300444453125,0.06011929931640625,0.8662939013671875
-0.2240970703125,-0.010221625976562499,0.8525309716796875
-0.18251935546875,-0.01585870361328125,0.933879716796875
-0.2036729296875,-0.0562986083984375,1.0857634765625
-0.30895451171875,-0.00850599365234375,1.158510390625
-0.29242068359375,0.04737460205078125,1.09854333984375
-0.302389609375,0.128499501953125,1.0560257177734376
-0.221665625,-0.14036459228515624,1.0348897900390626
-0.33472783203125,0.10080429443359375,1.1646545556640624
-0.47526537109375,0.14590091552734374,1.14966279296875
-0.36001486328125,0.06060947998046875,1.079865078125
-0.22239505859375,0.03610044677734375,0.918150654296875
-0.2299325390625,-0.0161037939453125,0.7724110595703125
-0.222638203125,-0.1327667919921875,0.908319990234375
-0.1735230078125,-0.1121792041015625,1.0565172509765626
0.0132119921875,0.07237381591796875,1.18603625
-0.15625974609374998,0.10276501708984374,1.5470673876953125
-0.72546109375,0.05472731201171875,1.63333146484375
-0.59148845703125,0.0613447509765625,1.2727918603515624
-0.514411640625,0.1035002880859375,1.0683140478515625
-0.27685943359375,0.0799716162109375,0.9559987109375
-0.12708240234375,0.021885207519531248,0.7945300537109374
-0.0811280859375,0.089285048828125,0.6932742138671875
-0.05657048828125,0.06011929931640625,0.680248583984375
-0.2824517578125,-0.0327699365234375,0.86653966796875
-0.4011062890625,-0.09183670654296874,0.9992536328125
-0.27491427734375,-0.05164189208984375,1.2285538720703124
-0.3962433984375,0.04639424072265625,1.247477900390625
-0.345183046875,0.00963069091796875,1.1110774365234375
-0.3476144921875,0.00325834228515625,0.9931094677734374
-0.2931501171875,0.18707609130859376,0.9277355517578125
-0.26518849609375,0.22383964111328125,0.92650671875
-0.1706052734375,0.08609887451171874,0.9233117529296875
-0.04344068359375,0.09933375244140626,1.0171945947265626
-0.13024328125,-0.03448556884765625,1.062661416015625
-0.11832919921875,-0.044534272460937496,1.0973145068359376
-0.23844259765625,0.0451687890625,1.25190169921875
-0.55842080078125,0.17653720703125,1.370361201171875
-0.64498025390625,0.07090327392578125,1.13000146484375
-0.255705859375,0.1152646240234375,0.7790467578125
-0.060460800781250004,-0.012672529296875,0.5787469775390625
-0.0636216796875,0.008405239257812499,0.5900522412109375
-0.17814275390625,-0.09036616455078125,0.7321053369140624
-0.23844259765625,-0.04281864013671875,0.8869382958984375
-0.199296328125,0.018699033203125,1.1189419677734376
-0.27296912109375,0.09149086181640625,1.3185044482421875
-0.28853037109375,0.06502110595703126,1.4055058251953125
-0.38530189453125,0.199085517578125,1.35217447265625
-0.40037685546875,0.22482000244140626,0.9835245703125
-0.24427806640625,0.06060947998046875,0.7751144921875
-0.1321884375,0.0633054736328125,0.76430076171875
-0.265431640625,0.04786478271484375,0.9105318896484375
-0.2591098828125,-0.07026875732421875,1.0137538623046876
-0.277102578125,0.04688442138671875,0.95108337890625
-0.2532744140625,-0.0719843896484375,0.9469053466796875
-0.34834392578125,-0.07909200927734375,0.892590927734375
-0.300444453125,0.05374695068359375,0.8653108349609375
-0.354908828125,0.07433453857421875,0.9469053466796875
-0.3904079296875,0.05105095703125,0.98057537109375
-0.26372962890625,0.143204921875,0.9041419580078125
-0.2698082421875,0.1035002880859375,0.7979707861328125
-0.27588685546875,-0.044044091796875,0.850319072265625
-0.2610550390625,0.0799716162109375,0.9193794873046874
-0.20975154296875,0.08266760986328126,1.040050888671875
-0.299471875,0.05619785400390625,1.18112091796875
-0.25473328125,0.140263837890625,1.2093840771484374
-0.3281629296875,0.09982393310546875,1.0255506591796875
-0.34493990234375,0.0843832421875,0.869980400390625
-0.2999581640625,0.0623251123046875,0.7802755908203125
-0.22823052734375,-0.03497574951171875,0.8171405810546875
-0.27394169921875,-0.08203309326171875,0.89209939453125
-0.35199109375,-0.07762146728515625,0.8839890966796875
-0.19953947265625,-0.0411030078125,0.886692529296875
-0.26227076171875,0.0069346972656249995,0.98647376953125
-0.31916658203125,0.11207844970703125,1.1213996337890624
-0.304334765625,0.07972652587890625,1.1958669140625
-0.3388612890625,0.1358522119140625,1.22044357421875
-0.21315556640625,0.06894255126953125,1.13196759765625
-0.127325546875,0.03659062744140625,1.2118417431640625
-0.32451576171875,0.0838930615234375,1.2811479248046875
-0.34348103515625,0.0368357177734375,1.1656376220703124
-0.36196001953125,0.0182088525390625,0.9862280029296875
-0.31697828125,-0.028358310546875,0.97860923828125
-0.20877896484375,-0.08595453857421875,1.1213996337890624
-0.3048210546875,0.06453092529296875,1.1966042138671875
-0.32281375,-0.0259074072265625,1.1150097021484375
-0.28901666015625,-0.044044091796875,1.0117877294921875
-0.2892598046875,0.02923791748046875,0.95501564453125
-0.15723232421875,0.073599267578125,1.004660498046875
-0.2065906640625,0.08658905517578125,1.2772156591796875
-0.4059691796875,0.0966377587890625,1.3740477001953124
-0.29387955078125,-0.03203466552734375,1.32268248046875
-0.40280830078125,0.18511536865234374,1.2939277880859374
-0.315033125,-0.0837487255859375,1.16244265625
-0.18859796875,-0.06830803466796875,1.0152284619140626
-0.24573693359375,0.04590406005859375,1.0373474560546876
-0.3485870703125,-0.08154291259765625,1.1666206884765624
-0.27199654296875,-0.11095375244140625,1.1872650830078124
-0.29509527343749997,-0.1268846240234375,0.897506259765625
-0.2114535546875,-0.13203152099609375,0.742181767578125
-0.18981369140625,-0.2004117236328125,0.7350545361328125
-0.35515197265625,-0.083258544921875,0.8948028271484375
-0.2707808203125,0.0466393310546875,1.0184234277343749
-0.2853694921875,-0.073454931640625,1.1828412841796876
-0.3694975,0.0407571630859375,1.3067076513671876
-0.20829267578125,0.08070688720703124,1.2054518115234374
-0.23114826171875,0.07335417724609375,1.1459762939453124
-0.3515048046875,0.1123235400390625,1.113780869140625
-0.212912421875,0.02776737548828125,1.0511103857421875
-0.236254296875,-0.049926259765625,1.0019570654296874
-0.19224513671875,-0.0268877685546875,0.966320908203125
-0.22968939453125,0.02041466552734375,0.988931435546875
-0.24233291015625,-0.06389640869140625,1.089204208984375
-0.372415234375,0.0530116796875,1.129509931640625
-0.33472783203125,-0.030073942871093752,1.0778989453125
-0.37119951171875,-0.060710234375,0.89603166015625
-0.18786853515625002,-0.02615249755859375,0.7746229589843749
-0.06799828125,-0.14085477294921875,0.8156659814453124
-0.1599069140625,0.011346323242187501,1.0624156494140624
-0.36098744140625,-0.03399538818359375,1.0638902490234374
-0.37314466796875,-0.04281864013671875,0.93928658203125
-0.22920310546875,-0.06242586669921875,0.6849181494140625
-0.049762441406249996,-0.07370002197265625,0.6578838232421875
-0.09741876953125,-0.0371815625,0.85474287109375
-0.185680234375,-0.03914228515625,1.151137392578125
-0.34931650390625,0.08953013916015624,1.3917428955078126
-0.62893271484375,0.038306259765625,1.082322744140625
-0.255705859375,-0.09722869384765626,0.50182203125
-0.0645942578125,-0.14085477294921875,0.3673877001953125
-0.0752926171875,-0.181294677734375,0.445295712890625
-0.07577890625,-0.1896277490234375,0.5455684863281249
-0.10714455078125,-0.22222476318359374,0.6569007568359375
-0.2027003515625,-0.15948163818359376,0.7045794775390625
-0.25497642578125,-0.06144550537109375,0.812962548828125
-0.174981875,0.0633054736328125,0.8773533984374999
-0.15066742187499998,0.16550814208984374,0.9636174755859375
-0.18251935546875,0.189281904296875,1.108865537109375
-0.2698082421875,0.173596123046875,1.1041959716796874
-0.22434021484375,0.1172253466796875,0.929947451171875
-0.2309051171875,0.0829127001953125,0.848352939453125
-0.1628246484375,0.00791505859375,0.804606484375
-0.08185751953125,0.010611052246093749,0.778555224609375
-0.1141957421875,-0.03399538818359375,0.7537327978515624
-0.15091056640625,0.07531489990234375,0.7741314257812499
-0.15723232421875,0.0191892138671875,0.8810398974609375
-0.2124261328125,0.0319339111328125,1.0739666796875
-0.30530734375,0.02531647216796875,1.1484339599609374
-0.12246265625,0.028502646484374998,1.0176861279296876
-0.2202067578125,0.13707766357421874,0.8989808593749999
-0.26275705078125,-0.03301502685546875,0.800182685546875
-0.02787943359375,0.0799716162109375,0.8019030517578125
-0.2824517578125,0.0191892138671875,0.7773263916015625
-0.03566005859375,0.034384814453125,0.8603955029296875
-0.082586953125,0.036345537109375,0.885709462890625
-0.377278125,0.093206494140625,0.936828916015625
-0.18470765625,-0.04330882080078125,0.688113115234375
-0.06386482421875,-0.055808427734375,0.6175781005859375
-0.1385101953125,0.00717978759765625,0.661570322265625
-0.08817927734375,-0.1053166748046875,0.686638515625
-0.22920310546875,0.0436982470703125,0.738249501953125
-0.29242068359375,-0.00507472900390625,0.8028861181640625
-0.34056330078125,0.06109966064453125,0.798216552734375
-0.34202216796875,0.12825441162109374,0.7163762744140625
-0.19516287109375,0.0544822216796875,0.7006472119140625
-0.18470765625,0.19687970458984375,0.80558955078125
-0.09547361328125001,0.15423398681640624,0.901438525390625
-0.1258666796875,0.22138873779296875,1.0604495166015624
-0.21801845703125,0.1084020947265625,1.2312573046875
-0.22725794921875,0.20619313720703125,1.2831140576171876
-0.2785614453125,0.09247122314453125,1.2383845361328125
-0.35661083984374997,0.1682041357421875,1.2093840771484374
-0.40062,0.111833359375,1.0948568408203125
-0.3126016796875,0.0221302978515625,0.9852449365234375
-0.23455228515625,0.0020328906249999995,0.9002096923828125
-0.2722396875,0.0280124658203125,0.923065986328125
-0.1958923046875,0.0922261328125,0.94321884765625
-0.24719580078125,0.07261890625,0.94125271484375
-0.18446451171875,0.05815857666015625,1.0117877294921875
-0.183735078125,0.07482471923828125,0.9773804052734375
-0.17571130859375,0.09198104248046875,1.1572815576171875
-0.3019033203125,0.09247122314453125,1.3332504443359374
-0.31308796875,0.055952763671875,1.2826225244140625
-0.2892598046875,0.071638544921875,1.06905134765625
-0.26324333984375,0.057913486328125,0.9459222802734375
-0.1813036328125,0.04712951171875,0.7719195263671875
-0.098148203125,-0.04281864013671875,0.793301220703125
-0.19346085937500002,0.0789912548828125,1.0791277783203126
-0.2668905078125,-0.0219859619140625,1.2064348779296874
-0.12805498046875,0.0809519775390625,1.2059433447265624
-0.185680234375,0.056933125,1.1071451708984374
-0.218747890625,-0.01144707763671875,1.0904330419921875
-0.2309051171875,0.0750698095703125,1.06708521484375
-0.2153438671875,0.022620478515625,1.103458671875
-0.183735078125,0.09688284912109375,1.048406953125
-0.11395259765625,0.12580350830078124,0.9936010009765625
-0.16549923828125,0.07850107421875,1.0759328125
-0.1803310546875,0.0878145068359375,1.1518746923828125
-0.1788721875,0.1123235400390625,1.077407412109375
-0.19224513671875,0.06796218994140625,1.03661015625
-0.1696326953125,0.075559990234375,1.046932353515625
-0.1385101953125,0.050070595703125,1.0535680517578125
-0.16938955078125,0.0936966748046875,1.1238572998046874
-0.28026345703125,0.1378129345703125,1.200290712890625
-0.33715927734375,0.08634396484375,1.162934189453125
-0.1268392578125,-0.0651218603515625,0.876861865234375
-0.22579908203125,-0.052867343750000004,0.769707626953125
-0.1706052734375,-0.0621807763671875,0.6686975537109375
0.0034862109374999978,-0.13056097900390626,0.743164833984375
-0.14653396484375,0.0044837939453125,0.94715111328125
-0.2878009375,-0.027868129882812502,0.93437125
-0.1248941015625,0.03315936279296875,0.8392595751953125
-0.18349193359375,0.02286556884765625,0.781012890625
-0.220693046875,0.0008074389648437498,0.80853875
-0.1633109375,0.03512008544921875,0.7955131201171874
-0.213885,0.0348749951171875,0.7217831396484375
-0.23503857421875,0.02531647216796875,0.739232568359375
-0.1958923046875,0.00227798095703125,0.8422087744140625
-0.11249373046875,0.08634396484375,0.845403740234375
-0.2036729296875,0.16869431640625,0.8692431005859375
-0.1210037890625,0.1799684716796875,0.893573994140625
-0.33375525390625,0.10595119140625,0.9174133544921875
-0.2172890234375,0.1466361865234375,0.821810146484375
-0.26470220703125,0.0922261328125,0.7453767333984375
-0.2177753125,0.026541923828125,0.718096640625
-0.1900568359375,0.03512008544921875,0.6618160888671875
-0.14069849609375001,0.0672269189453125,0.588823408203125
-0.162338359375,0.11845079833984375,0.5826792431640625
-0.22701480468750002,0.0740894482421875,0.6910623144531249
-0.18932740234375,0.12555841796875,0.8380307421875
-0.26956509765625,0.0966377587890625,0.94715111328125
-0.30360533203125,0.06453092529296875,1.00810123046875
-0.19029998046875,0.13536203125,1.0294829248046875
-0.43538966796875,0.1966346142578125,1.0174403613281249
-0.17571130859375,0.0397768017578125,0.8058353173828126
-0.23503857421875,0.07850107421875,0.7318595703125
-0.1073876953125,-0.0739451123046875,0.8648193017578125
-0.26154132812499997,0.0593840283203125,0.9559987109375
-0.4030514453125,0.1505576318359375,0.9370746826171875
-0.32111173828125,0.1103628173828125,0.827708544921875
-0.3072525,0.1706550390625,0.7286646044921875
-0.11103486328125,0.09443194580078125,0.8033776513671875
-0.3077387890625,0.1162449853515625,0.9992536328125
-0.28318119140625,0.118695888671875,1.0398051220703124
-0.265431640625,0.16501796142578126,1.0673309814453125
-0.3330258203125,0.0495804150390625,1.126560732421875
-0.491069765625,0.1231075146484375,1.0579918505859376
-0.1900568359375,-0.03914228515625,0.8544971044921875
-0.05462533203125,0.0633054736328125,0.8183694140625
-0.32305689453124997,-0.07835673828125,0.9626344091796875
-0.24914095703125,-0.1366882373046875,1.0599579833984376
-0.17425244140625,-0.095022880859375,0.9867195361328125
-0.33715927734375,-0.04698517578125,1.0395593554687501
-0.191515703125,0.09026541015625,1.1636714892578124
-0.35174794921875,-0.0016434643554687498,1.0973145068359376
-0.32208431640625,0.05374695068359375,1.0643817822265624
-0.28318119140625,-0.095022880859375,0.99040603515625
-0.356853984375,-0.08791526123046875,0.9756600390625
-0.0388209375,0.0373258984375,1.0181776611328126
-0.30749564453125,0.01110123291015625,1.02186416015625
-0.15164,-0.05458297607421875,1.00613509765625
-0.22628537109375,0.11011772705078125,1.1287726318359375
-0.11468203125,0.02874773681640625,1.2521474658203124
-0.2571647265625,0.07923634521484375,1.3288266455078124
-0.27880458984375,0.17040994873046875,1.4320486181640626
-0.331566953125,-0.03987755615234375,1.404768525390625
-0.33521412109375,-0.03693647216796875,1.2428083349609376
-0.20829267578125,0.00717978759765625,1.13983212890625
-0.33618669921875,-0.04870080810546875,1.1341794970703125
-0.3057936328125,-0.05654369873046875,1.1592476904296876
-0.17814275390625,-0.0366913818359375,1.186527783203125
-0.22823052734375,-0.06487677001953125,1.296631220703125
-0.3077387890625,-0.13056097900390626,1.276969892578125
-0.2075632421875,-0.04968116943359375,1.09854333984375
-0.28707150390625,0.06600146728515625,1.123611533203125
-0.31284482421875,-0.01953505859375,1.061678349609375
-0.21607330078125,-0.00507472900390625,0.9606682763671874
-0.29047552734375,-0.03546593017578125,0.930438984375
-0.27394169921875,-0.1023755908203125,0.875387265625
-0.08307324218750001,0.06453092529296875,0.84786140625
-0.203186640625,0.17972338134765625,0.9815584374999999
-0.2484115234375,0.00570924560546875,1.3332504443359374
-0.26251390625,0.24197632568359376,1.62350080078125
-0.4536255078125,0.362805859375,1.4890664697265625
-0.33108066406250003,0.0780108935546875,1.1027213720703124
-0.19175884765625,0.057668395996093746,1.04742388671875
-0.1910294140625,-0.022476142578125,1.1489254931640625
-0.27685943359375,-0.01389798095703125,1.0108046630859375
-0.13923962890625,0.00423870361328125,0.920116787109375
-0.1866528125,-0.00213364501953125,0.9297016845703125
-0.31381740234375,0.08707923583984375,1.16342572265625
-0.28172232421875,0.075559990234375,1.2796733251953125
-0.28804408203125,0.0289928271484375,1.301546552734375
-0.39089421875,0.10423555908203125,1.2054518115234374
-0.25254498046875,0.00276816162109375,0.9614055761718749
-0.1754681640625,-0.02419177490234375,0.8677685009765626
-0.3038484765625,0.02090484619140625,0.8235305126953125
-0.15917748046875,0.095167216796875,0.8874298291015625
-0.34348103515625,0.0074248779296875,0.9375662158203125
-0.366579765625,-0.1111988427734375,0.9481341796875
-0.26227076171875,0.07727562255859374,0.9110234228515625
-0.35126166015625,-0.01732924560546875,0.82328474609375
-0.2644590625,0.00619942626953125,0.76626689453125
-0.30506419921875,-0.04306373046875,0.7117067089843749
-0.35855599609375,-0.04281864013671875,0.7298934375
-0.423961875,0.02678701416015625,0.6976980126953125
-0.38676076171875,0.0417375244140625,0.7271900048828125
-0.2912049609375,-0.01095689697265625,0.724486572265625
-0.29509527343749997,0.0280124658203125,0.823776279296875
-0.273212265625,0.23707451904296875,0.9614055761718749
-0.30992708984375,0.1819291943359375,1.132459130859375
-0.28998923828125,0.09884357177734375,1.194392314453125
-0.31041337890625,0.10766682373046875,1.106899404296875
-0.25546271484375,-0.10458140380859375,1.0663479150390625
-0.31868029296875,-0.04379900146484375,0.9744312060546875
-0.3189234375,-0.0513968017578125,0.813945615234375
-0.27929087890625,-0.073454931640625,0.7340714697265625
-0.28391062499999997,-0.09134652587890625,0.740215634765625
-0.2795340234375,-0.067572763671875,0.7498005322265625
-0.30555048828125,0.012816865234374999,0.7999369189453125
-0.1239215234375,0.077520712890625,0.9154472216796875
-0.240144609375,-0.0053198193359375,0.9704989404296875
-0.19808060546875,-0.0229663232421875,0.959439443359375
-0.17668388671875,0.09492212646484376,0.9808211376953125
-0.24816837890625,0.0750698095703125,0.97467697265625
-0.30530734375,0.05178622802734375,0.9518206787109375
-0.18349193359375,0.12090170166015625,1.0216183935546874
-0.3573402734375,0.07482471923828125,1.0692971142578125
-0.2707808203125,0.02335574951171875,1.0373474560546876
-0.1929745703125,0.1015395654296875,1.0638902490234374
-0.35320681640625,0.00399361328125,1.0447204541015624
-0.2386857421875,0.0770305322265625,1.08674654296875
-0.20634751953125,0.0142874072265625,1.0938737744140625
-0.39648654296875,0.08021670654296875,0.9975332666015625
-0.137051328125,-0.02149578125,0.8780906982421874
-0.14604767578125,0.06943273193359376,0.8048522509765625
-0.2620276171875,0.06698182861328125,0.94715111328125
-0.14069849609375001,0.10227483642578125,1.1533492919921875
-0.39089421875,0.20570295654296875,1.1587561572265626
-0.24330548828125,0.120656611328125,1.086255009765625
-0.2065906640625,0.1221271533203125,0.90586232421875
-0.05122130859375,-0.02615249755859375,0.92159138671875
-0.2581373046875,0.11379408203125,1.1017383056640626
-0.30603677734375,-0.00948635498046875,1.1813666845703126
-0.3223274609375,0.05619785400390625,1.22830810546875
-0.29436583984375,0.11943115966796874,1.06511908203125
-0.2581373046875,-0.048455717773437504,0.9375662158203125
-0.2231244921875,0.0231106591796875,0.8952943603515625
-0.22044990234375,0.10227483642578125,0.9641090087890625
-0.1696326953125,0.0525214990234375,0.94911724609375
-0.1783858984375,0.1123235400390625,0.93437125
-0.11784291015625001,0.08021670654296875,0.936828916015625
-0.2688356640625,0.0686974609375,1.0314490576171875
-0.26372962890625,0.06796218994140625,1.1523662255859375
-0.29363640625,0.0765403515625,1.1685868212890624
-0.3656071875,0.155949619140625,1.0889584423828125
-0.26956509765625,0.17286085205078125,0.981066904296875
-0.29290697265625,0.134381669921875,0.9292101513671875
-0.23163455078125,0.09810830078125,0.9596852099609375
-0.18106048828125,0.05668803466796875,1.0250591259765625
-0.18835482421875,0.12972495361328126,1.1528577587890625
-0.2873146484375,0.13903838623046874,1.0707717138671875
-0.22725794921875,0.0211499365234375,0.8984893261718749
-0.14847912109375,0.038306259765625,0.817877880859375
-0.23649744140625,0.0789912548828125,0.888658662109375
-0.13680818359375,-0.04036773681640625,0.974185439453125
-0.284883203125,0.1005592041015625,1.0103131298828125
-0.308225078125,0.07825598388671876,0.922574453125
-0.230418828125,0.12139188232421876,0.8852179296875
-0.21655958984375,0.0799716162109375,0.8161575146484374
-0.22093619140625,0.033404453125,0.8667854345703125
-0.249870390625,0.0843832421875,0.9773804052734375
-0.2007551953125,0.10472573974609375,1.00023669921875
-0.32889236328125,0.00668960693359375,0.9646005419921875
-0.257651015625,0.0201695751953125,1.0393135888671874
-0.236254296875,0.0770305322265625,0.9360916162109375
-0.19419029296875,0.021885207519531248,0.8427003076171875
-0.22482650390625,0.1000690234375,0.783470556640625
-0.2099946875,0.07139345458984375,0.73087650390625
-0.236254296875,0.1642826904296875,0.85277673828125
-0.2639727734375,0.10913736572265625,0.992863701171875
-0.21072412109375,0.10080429443359375,0.996795966796875
-0.27442798828125,0.04933532470703125,0.9459222802734375
-0.2892598046875,0.10962754638671875,1.0648733154296874
-0.34299474609375,0.06281529296875,1.0265337255859375
-0.27637314453125,0.0672269189453125,1.0230929931640624
-0.280992890625,-0.010221625976562499,0.96288017578125
-0.24136033203125,0.04982550537109375,0.9881941357421875
-0.121490078125,-0.0053198193359375,1.0324321240234375
-0.35223423828125,-0.045024453125,1.0395593554687501
-0.19808060546875,0.0613447509765625,1.1169758349609376
-0.2960678515625,-0.11291447509765624,0.924049052734375
-0.19273142578125,0.010856142578125,0.8820229638671875
-0.121490078125,0.07825598388671876,0.9306847509765624
-0.27807515625,-0.05556333740234375,1.0142453955078126
-0.21315556640625,-0.010711806640625,1.1061621044921874
-0.4020788671875,-0.0317895751953125,0.9523122119140625
-0.27151025390625,-0.120512275390625,0.851793671875
-0.1715778515625,-0.07271966064453125,0.85081060546875
-0.17960162109375,-0.02076051025390625,0.93338818359375
-0.18446451171875,-0.02737794921875,0.995812900390625
-0.2678630859375,0.02433611083984375,1.14179826171875
-0.28561263671875,0.10595119140625,1.2312573046875
-0.36244630859375,0.0740894482421875,1.176697119140625
-0.2960678515625,0.15374380615234376,1.168832587890625
-0.26081189453125,0.1770273876953125,1.0329236572265625
-0.1832487890625,0.10325519775390625,0.9203625537109374
-0.16841697265625,0.114774443359375,0.9011927587890625
-0.21947732421875,0.08266760986328126,0.95698177734375
-0.19564916015625,0.138303115234375,1.048406953125
-0.1958923046875,0.05080586669921875,1.0294829248046875
-0.24962724609375,0.0829127001953125,1.100017939453125
-0.314060546875,0.10374537841796876,1.294665087890625
-0.42906791015625,0.02776737548828125,1.3563525048828124
-0.42906791015625,0.0829127001953125,1.402310859375
-0.32500205078125,-0.0006631030273437505,1.3042499853515626
-0.25473328125,-0.077376376953125,1.12803533203125
-0.11298001953125,-0.024436865234375,1.031203291015625
-0.25157240234375,0.0012976196289062499,1.0393135888671874
-0.17303671874999998,-0.05360261474609375,1.0992806396484376
-0.17862904296875,0.069677822265625,1.1877566162109374
-0.1793584765625,0.0270321044921875,1.2491982666015624
-0.17619759765625,0.11747043701171875,1.3099026171875
-0.24330548828125,0.0922261328125,1.2899955224609374
-0.2566784375,0.042227705078125,1.19390078125
-0.315033125,-0.00409436767578125,1.0368559228515626
-0.23698373046875,-0.09036616455078125,0.9768888720703125
-0.1706052734375,-0.26781156494140623,0.9626344091796875
-0.212912421875,-0.22124440185546876,1.12213693359375
-0.308225078125,-0.12320826904296875,1.3590559375
-0.29193439453125003,-0.1817848583984375,1.3779799658203125
-0.45727267578124997,0.059874208984374996,1.193409248046875
-0.33861814453125,0.00178780029296875,0.917167587890625
-0.30214646484375,0.03928662109375,0.81738634765625
-0.14264365234375,0.0368357177734375,0.755944697265625
-0.14702025390625,0.0936966748046875,0.800182685546875
-0.22579908203125,0.09443194580078125,0.8159117480468749
-0.2931501171875,0.06600146728515625,0.88226873046875
-0.41302037109375,0.14884199951171875,0.949608779296875
-0.4915560546875,0.1157548046875,0.9798380712890625
-0.48766574218750003,0.14001874755859375,1.058729150390625
-0.4278521875,0.10595119140625,1.0889584423828125
-0.378250703125,0.10472573974609375,1.071509013671875
-0.35028908203125,0.1113431787109375,1.0201437939453124
-0.2902323828125,0.03266918212890625,0.91176072265625
-0.2843969140625,0.05031568603515625,0.7498005322265625
-0.26421591796875,-0.016593974609375,0.7232577392578124
-0.25400384765625,-0.01438816162109375,0.7822417236328125
-0.1900568359375,0.0731090869140625,0.850319072265625
-0.2581373046875,0.165753232421875,0.8948028271484375
-0.504685859375,0.02335574951171875,0.9238032861328125
-0.3339983984375,0.0584036669921875,1.001219765625
-0.35223423828125,-0.012672529296875,0.8957858935546875
-0.3641483203125,-0.01830960693359375,0.860149736328125
-0.2581373046875,-0.03840701416015625,0.905370791015625
-0.220693046875,-0.09771887451171875,0.872929599609375
-0.11298001953125,-0.12418863037109375,0.99630443359375
-0.117599765625,-0.18202994873046874,1.160968056640625
-0.2941226953125,-0.26781156494140623,1.28532595703125
-0.36050115234375,-0.154824921875,1.1823497509765626
-0.31041337890625,-0.18350049072265626,0.8333611767578125
-0.2980130078125,-0.122472998046875,0.5448311865234375
-0.25935302734375,-0.11536537841796875,0.45537214355468747
-0.16647181640625,-0.04772044677734375,0.4307954833984375
-0.15042427734375,-0.01291761962890625,0.4715927392578125
-0.1949197265625,0.071638544921875,0.5168137939453125
-0.25546271484375,-0.052867343750000004,0.6632906884765625
-0.29387955078125,-0.02419177490234375,0.8790737646484375
-0.42080099609375,0.0721287255859375,0.950591845703125
-0.38432931640625,0.038306259765625,0.941744248046875
-0.2177753125,-0.134237333984375,0.879811064453125
-0.27540056640625,-0.0680629443359375,0.7758517919921875
-0.168173828125,0.04884514404296875,0.719571240234375
-0.26567478515625,0.05913893798828125,0.636993662109375
-0.2177753125,0.183399736328125,0.6888504150390625
-0.32257060546875,0.18658591064453126,0.741198701171875
-0.2377131640625,0.122617333984375,0.87637033203125
-0.28998923828125,0.1035002880859375,1.001711298828125
-0.40280830078125,0.19687970458984375,1.0211268603515624
-0.37411724609375,0.020659755859375,1.0267794921875
-0.33083751953125,0.0003172583007812497,1.1388490625
-0.403537734375,0.071638544921875,1.25386783203125
-0.524137421875,0.06011929931640625,1.2430541015625
-0.4682141796875,-0.0371815625,1.07888201171875
-0.185680234375,-0.09012107421875,0.965337841796875
-0.08428896484375001,-0.04183827880859375,0.86359046875
-0.15382830078125,-0.045024453125,0.96484630859375
-0.42615017578125003,0.0829127001953125,1.078390478515625
-0.46870046875,0.0231106591796875,1.0230929931640624
-0.3544225390625,0.0451687890625,0.918150654296875
-0.35126166015625,-0.00752563232421875,0.81345408203125
-0.2571647265625,-0.01389798095703125,0.7881401220703125
-0.19662173828125,0.0613447509765625,0.9166760546875
-0.3578265625,0.12972495361328126,1.03759322265625
-0.35588140625,0.0760501708984375,1.1646545556640624
-0.25108611328125,0.06673673828125,1.1661291552734374
-0.30871136718750003,-0.02860340087890625,0.9704989404296875
-0.14021220703125,-0.00581,0.9877026025390625
-0.08428896484375001,0.0995788427734375,1.00515203125
-0.2357680078125,-0.059729873046875,1.13196759765625
-0.439523125,0.05276658935546875,1.3317758447265624
-0.51951767578125,0.01698340087890625,1.0840431103515624
-0.39600025390625,0.09198104248046875,0.8407341748046875
-0.31868029296875,0.24638795166015626,0.83704767578125
-0.24184662109375,0.2505544873046875,0.8431918408203125
-0.1171134765625,0.09345158447265625,0.899472392578125
-0.2065906640625,0.04786478271484375,0.926015185546875
-0.280992890625,-0.01561361328125,1.120662333984375
-0.23601115234375,0.08217742919921875,1.1317218310546875
-0.251815546875,-0.10016977783203125,1.0648733154296874
-0.43927998046875,0.08854977783203125,1.1479424267578124
-0.46797103515625,-0.012672529296875,1.1558069580078125
-0.32743349609375,0.07972652587890625,1.1017383056640626
-0.40329458984375,0.1784979296875,0.934862783203125
-0.2450075,0.016738310546875,0.9284728515625
-0.30214646484375,-0.07811164794921875,0.9434646142578125
-0.2250696484375,0.05717821533203125,0.981066904296875
-0.3359435546875,-0.02321141357421875,0.84687833984375
-0.3009307421875,-0.042083369140625,0.8567090039062499
-0.37752126953125,0.07261890625,0.8549886376953125
-0.3641483203125,0.01257177490234375,0.9434646142578125
-0.34202216796875,0.073599267578125,1.096085673828125
-0.362689453125,-0.03987755615234375,1.091661875
-0.18981369140625,0.04320806640625,0.8820229638671875
-0.30141703125,-0.17026561279296876,0.6937657470703125
-0.21266927734375,-0.153844560546875,0.70924904296875
-0.1978374609375,-0.11193411376953125,0.792318154296875
-0.090367578125,-0.07173929931640625,1.1523662255859375
-0.30117388671875,0.073599267578125,1.379208798828125
-0.533863203125,0.1848702783203125,1.429345185546875
-0.54626357421875,0.11599989501953126,1.1184504345703126
-0.32402947265625,-0.15310928955078124,0.8736668994140625
-0.2240970703125,-0.046740085449218746,0.7989538525390625
-0.24427806640625,-0.042328459472656246,0.6106966357421875
-0.0801555078125,-0.03522083984375,0.5096865625
-0.23114826171875,-0.03546593017578125,0.4824064697265625
-0.29193439453125003,0.1299700439453125,0.571128212890625
-0.203186640625,0.01845394287109375,0.80362341796875
-0.28074974609375003,-0.0219859619140625,1.00416896484375
-0.2795340234375,0.097127939453125,1.195375380859375
-0.255705859375,-0.02860340087890625,1.300563486328125
-0.4118046484375,-0.09330724853515625,1.1975872802734375
-0.33035123046875,0.0897752294921875,0.8262339453125
-0.22968939453125,-0.0161037939453125,0.6485446923828125
-0.19321771484375,-0.0523771630859375,0.721537373046875
-0.1871391015625,-0.023456503906250002,0.871455
-0.28512634765625,-0.17639287109375001,1.0029401318359374
-0.21266927734375,-0.01046671630859375,1.07494974609375
-0.315033125,0.09786321044921875,1.0609410498046874
-0.33764556640625,0.01453249755859375,1.1061621044921874
-0.38432931640625,0.22285927978515624,1.02186416015625
-0.32597462890625,0.21158512451171874,0.74267330078125
-0.1511537109375,-0.165608896484375,0.654688857421875
-0.152612578125,-0.2553119580078125,0.65812958984375
-0.26081189453125,-0.02737794921875,0.6986810791015625
-0.40426716796875,-0.01928996826171875,0.6441208935546875
-0.2309051171875,0.057913486328125,0.806081083984375
-0.31308796875,0.10595119140625,1.0009739990234374
-0.214857578125,0.0740894482421875,1.2059433447265624
-0.2172890234375,0.18364482666015625,1.2319946044921875
-0.26032560546875,0.2731027978515625,1.1484339599609374
-0.47526537109375,0.1966346142578125,0.9972875
-0.312115390625,0.06796218994140625,0.97467697265625
-0.4837754296875,0.05521749267578125,1.056271484375
-0.31284482421875,-0.05458297607421875,1.089204208984375
-0.3388612890625,-0.00507472900390625,0.9179048876953125
-0.2688356640625,0.096147578125,0.7876485888671875
-0.0500055859375,0.09835339111328124,0.868997333984375
-0.3874901953125,0.1123235400390625,1.1440101611328124
-0.49617580078125,-0.10850284912109374,1.21454517578125
-0.23017568359375,-0.10311086181640625,1.3170298486328125
-0.4667553125,-0.0935523388671875,1.3740477001953124
-0.607779140625,-0.011201987304687501,1.12312
-0.33642984375,-0.014633251953124999,0.9105318896484375
-0.34810078125,0.04394333740234375,0.8019030517578125
-0.29971501953125,-0.0327699365234375,0.9410069482421874
-0.3189234375,0.015022678222656249,1.0031858984375
-0.1696326953125,0.09933375244140626,0.956490244140625
-0.232363984375,0.11109808837890625,0.9567360107421875
-0.31965287109375,0.10766682373046875,0.9282270849609375
-0.32548833984375003,-0.044044091796875,0.8864467626953125
-0.1939471484375,-0.14526639892578125,0.7753602587890625
-0.237226875,-0.2827620751953125,0.81935248046875
-0.35977171875,-0.2866835205078125,0.9596852099609375
-0.3096839453125,-0.07051384765625,1.0110504296875
-0.43441708984375,0.15472416748046874,1.0329236572265625
-0.1404553515625,0.06943273193359376,1.0633987158203124
-0.092312734375,0.073599267578125,1.307936484375
-0.19662173828125,0.14908708984375,1.5419062890625
-0.40426716796875,0.206928408203125,1.6797813525390626
-0.40037685546875,0.1760470263671875,1.4492522802734376
-0.4020788671875,0.1221271533203125,1.2939277880859374
-0.3612305859375,0.0427178857421875,1.2103671435546874
-0.17084841796875,-0.01585870361328125,1.0928907080078125
-0.1424005078125,0.021640117187500002,1.0594664501953126
-0.07991236328125,-0.036201201171875,1.12803533203125
-0.2333365625,0.13021513427734374,1.271071494140625
-0.30700935546875,-0.01953505859375,1.4241840869140625
-0.48207341796875003,0.09051050048828126,1.457854111328125
-0.4905834765625,-0.0190448779296875,1.170798720703125
-0.32840607421875,-0.21879349853515626,0.9847534033203125
-0.1657423828125,-0.2357047314453125,0.9611598095703124
-0.09109701171875,-0.10727739746093751,1.0368559228515626
-0.29728357421875,-0.114630107421875,1.012525029296875
-0.362689453125,-0.0396324658203125,0.8662939013671875
-0.23309341796875,-0.04306373046875,0.8368019091796874
-0.265431640625,-0.10948321044921874,0.8889044287109376
-0.13048642578125,-0.0006631030273437505,0.9169218212890625
-0.142886796875,-0.00850599365234375,1.0174403613281249
-0.3349709765625,-0.06928839599609375,1.1218911669921874
-0.37460353515625,0.02360083984375,0.8540055712890625
-0.3826273046875,0.0642858349609375,0.6854096826171875
-0.29922873046875,-0.1317864306640625,0.65616345703125
-0.2022140625,0.07776580322265625,0.783470556640625
-0.2075632421875,0.1584005224609375,0.875878798828125
-0.195406015625,0.01159141357421875,0.9454307470703125
-0.2542469921875,0.1299700439453125,0.9557529443359375
-0.354908828125,0.019434304199218752,0.771673759765625
-0.1637972265625,0.011346323242187501,0.6274087646484375
-0.06580998046875,-0.051886982421875,0.6436293603515625
-0.054868476562500004,0.065756376953125,0.7222746728515625
-0.179844765625,0.09884357177734375,0.8392595751953125
-0.32986494140625,-0.10286577148437501,0.8643277685546875
-0.35126166015625,0.03021827880859375,0.82721701171875
-0.329621796875,0.0887948681640625,0.6942572802734375
-0.25205869140625,0.01575794921875,0.6927826806640625
-0.28950294921874997,-0.0249270458984375,0.673367119140625
-0.1248941015625,-0.12712971435546874,0.5335259228515625
-0.16598552734375,-0.0881603515625,0.4782284375
-0.14629082031250001,-0.114630107421875,0.4106426220703125
-0.07699462890625,-0.04723026611328125,0.418752919921875
-0.15066742187499998,0.03364954345703125,0.582925009765625
-0.18057419921875,0.0593840283203125,0.8613785693359375
-0.30700935546875,0.1549692578125,1.1612138232421876
-0.44317029296875,0.142224560546875,1.1997991796875
-0.19832375,-0.03522083984375,0.9827872705078124
-0.24330548828125,0.00276816162109375,0.8972604931640625
-0.26518849609375,-0.05115171142578125,0.88423486328125
-0.245980078125,0.06649164794921875,0.888658662109375
-0.26470220703125,0.02360083984375,0.8348357763671875
-0.31527626953125,0.00570924560546875,0.883251796875
-0.2445212109375,-0.05801424072265625,0.8537598046875
-0.2250696484375,-0.07173929931640625,0.821810146484375
-0.25303126953125,0.0255615625,0.72202890625
-0.244034921875,-0.02223105224609375,0.65419732421875
-0.19029998046875,0.02139502685546875,0.62273919921875
-0.32889236328125,0.010611052246093749,0.6967149462890625
-0.30627992187499997,0.02482629150390625,0.80755568359375
-0.226528515625,0.012816865234374999,0.925032119140625
-0.27029453125,0.152028173828125,1.213070576171875
-0.44219771484375,0.25104466796875,1.287783623046875
-0.28391062499999997,-0.0386521044921875,1.13098453125
-0.3019033203125,-0.0023787353515625003,1.0235845263671874
-0.294608984375,0.1525183544921875,1.045949287109375
-0.38335673828125,0.04394333740234375,0.979100771484375
-0.30506419921875,-0.07664110595703125,0.8874298291015625
-0.255705859375,-0.1396293212890625,0.75447009765625
-0.2333365625,-0.0386521044921875,0.733825703125
-0.23649744140625,-0.040122646484374996,0.764792294921875
-0.20391607421875,0.18707609130859376,0.991880634765625
-0.39989056640625,0.0731090869140625,1.16342572265625
-0.35393625,0.1417343798828125,1.36397126953125
-0.22531279296875,0.10962754638671875,1.341852275390625
-0.37533296875,-0.0011532836914062497,1.3494710400390626
-0.3806821484375,0.13609730224609376,1.3376742431640625
-0.2775888671875,0.05497240234375,1.245020234375
-0.41618125,-0.0955130615234375,1.2383845361328125
-0.27053767578125,-0.11242429443359375,1.076424345703125
-0.12756869140625,-0.1357078759765625,0.96288017578125
-0.28950294921874997,-0.26389011962890624,0.9677955078125
-0.30555048828125,-0.2758995458984375,1.0476696533203125
-0.2698082421875,-0.24673379638671875,1.045949287109375
-0.21850474609375,0.02237538818359375,1.25780009765625
-0.33035123046875,0.04884514404296875,1.2511643994140624
-0.24233291015625,-0.17712814208984376,1.2138078759765625
-0.24719580078125,-0.028358310546875,1.2275708056640624
-0.119544921875,-0.0386521044921875,1.3479964404296876
-0.51538421875,-0.1553151025390625,1.3086737841796876
-0.45046462890625,-0.02958376220703125,1.141306728515625
-0.30020130859375,-0.0455146337890625,0.944693447265625
-0.21510072265625,-0.23693018310546876,1.081339677734375
-0.299471875,0.06796218994140625,1.4349978173828124
-0.36755234375,0.0152677685546875,1.2614865966796875
-0.23309341796875,-0.0803174609375,1.0103131298828125
-0.39818855468750003,0.0074248779296875,0.92159138671875
-0.361716875,-0.11144393310546875,0.9100403564453124
-0.20975154296875,-0.13301188232421876,0.9105318896484375
-0.168173828125,0.22751599609375,0.9459222802734375
-0.13778076171875,0.14982236083984374,0.914709921875
-0.40280830078125,0.15325362548828125,1.0108046630859375
-0.20683380859375,0.1221271533203125,1.3332504443359374
-0.55793451171875,-0.14085477294921875,1.5500165869140625
-0.4351465234375,-0.02517213623046875,1.39542939453125
-0.304334765625,-0.1455114892578125,1.0211268603515624
-0.325731484375,-0.13129625,0.7984623193359375
-0.2980130078125,-0.2798209912109375,0.716622041015625
-0.2513292578125,-0.3504070068359375,0.73677490234375
-0.27540056640625,-0.35163245849609376,0.6726298193359375
-0.33229638671875,-0.31633945068359376,0.78396208984375
-0.20780638671875,-0.267566474609375,0.8613785693359375
-0.29922873046875,0.0505607763671875,1.0058893310546875
-0.54334583984375,0.0201695751953125,0.947642646484375
-0.159420625,0.08903995849609375,0.8766160986328125
-0.18446451171875,0.07433453857421875,0.7596311962890625
-0.3602580078125,0.11452935302734375,0.749554765625
-0.2668905078125,-0.087179990234375,0.889641728515625
-0.2328502734375,-0.20948006591796875,1.052830751953125
-0.44997833984375,-0.049926259765625,1.0597122167968749
-0.3729015234375,-0.146001669921875,0.8869382958984375
-0.10106593750000001,-0.13693332763671875,0.7719195263671875
-0.0694571484375,-0.00360418701171875,0.6932742138671875
-0.26227076171875,0.036345537109375,0.67975705078125
-0.2221519140625,0.008895419921875,0.832623876953125
-0.28318119140625,0.026541923828125,0.9129895556640625
-0.439523125,-0.03987755615234375,0.860149736328125
-0.12465095703125,-0.154824921875,0.8422087744140625
-0.11541146484375,-0.1131595654296875,0.77609755859375
-0.14458880859375,0.06551128662109375,0.844420673828125
-0.20488865234375,0.17678229736328124,0.9127437890625
-0.22628537109375,0.0338946337890625,0.9985163330078125
-0.3291355078125,0.1113431787109375,1.3059703515625
-0.37119951171875,-0.0200252392578125,1.4050142919921875
-0.1920019921875,-0.0249270458984375,1.2467406005859374
-0.190543125,0.021885207519531248,0.9704989404296875
-0.3028758984375,0.03855135009765625,0.789368955078125
-0.2027003515625,-0.07173929931640625,0.7694618603515625
-0.37411724609375,0.07065818359375,0.775606025390625
-0.2255559375,0.02482629150390625,0.86457353515625
-0.1647698046875,0.11354899169921875,0.926015185546875
-0.2377131640625,0.22138873779296875,1.004660498046875
-0.213885,-0.01438816162109375,0.9481341796875
-0.23795630859375,0.18609572998046875,1.0619241162109374
-0.4866931640625,0.11403917236328125,0.9980247998046875
-0.2878009375,-0.13987441162109376,0.930438984375
-0.25108611328125,0.0584036669921875,1.0503730859375
-0.5606091015625,-0.03644629150390625,0.9754142724609375
-0.286828359375,-0.14281549560546875,0.709740576171875
-0.0840458203125,-0.0631611376953125,0.6578838232421875
-0.31746457031249997,0.0280124658203125,0.7335799365234374
-0.21753216796875,-0.059729873046875,0.7829790234375
-0.18495080078125,-0.00752563232421875,0.89406552734375
-0.3135742578125,-0.00311400634765625,1.006626630859375
-0.34493990234375,-0.0013983740234375002,1.0422627880859374
-0.23406599609375,0.02041466552734375,0.9272440185546875
-0.247925234375,0.02531647216796875,0.909303056640625
-0.2707808203125,0.0294830078125,0.8412257080078125
-0.32402947265625,0.1152646240234375,0.8525309716796875
-0.3267040625,0.118695888671875,0.8485987060546875
-0.31916658203125,0.07041309326171875,0.8318865771484375
-0.21169669921875,0.0922261328125,0.8313950439453125
-0.26032560546875,0.0368357177734375,0.8643277685546875
-0.20683380859375,-0.02468195556640625,0.9601767431640625
-0.23503857421875,-0.006790361328125,0.9233117529296875
-0.28804408203125,-0.00801581298828125,0.9953213671875
-0.3612305859375,-0.030073942871093752,0.9267524853515625
-0.31868029296875,-0.02076051025390625,0.891116328125
-0.247925234375,0.11452935302734375,0.9223286865234375
-0.296554140625,0.0348749951171875,0.902913125
-0.23139140625,0.08805959716796875,0.9370746826171875
-0.22968939453125,0.064776015625,0.936828916015625
-0.25303126953125,0.00178780029296875,1.0393135888671874
-0.330594375,-0.0411030078125,1.0776531787109376
-0.32013916015625,0.02776737548828125,1.1769428857421875
-0.35077537109375,-0.08938580322265625,1.1371286962890625
-0.280992890625,-0.01389798095703125,1.0791277783203126
-0.2955815625,0.011346323242187501,0.9670582080078125
-0.27783201171875,-0.052867343750000004,0.9080742236328125
-0.20294349609375,-0.05262225341796875,0.906353857421875
-0.22677166015625,-0.07075893798828126,0.9604225097656249
-0.23503857421875,0.10619628173828125,1.0103131298828125
-0.11541146484375,0.0010525292968750002,1.0314490576171875
-0.34591248046875,-0.0200252392578125,1.09264494140625
-0.26956509765625,0.08609887451171874,1.1238572998046874
-0.30652306640625,-0.0053198193359375,1.213562109375
-0.343237890625,0.07139345458984375,1.2020110791015626
-0.1735230078125,0.0015427099609375003,1.0791277783203126
-0.18495080078125,-0.10065995849609374,0.8933282275390625
-0.12440781249999999,0.03217900146484375,0.726452705078125
-0.07261802734375,0.0740894482421875,0.6662398876953125
-0.16063634765625,-0.013162709960937501,0.7119524755859374
-0.174981875,0.16207687744140625,0.98450763671875
-0.41836955078125,0.08903995849609375,1.1213996337890624
-0.31430369140625003,0.05374695068359375,1.152120458984375
-0.3291355078125,0.1235976953125,1.066593681640625
-0.36196001953125,-0.03105430419921875,1.0240760595703124
-0.282938046875,-0.00360418701171875,1.0221099267578124
-0.34104958984375,0.1079119140625,1.0388220556640624
-0.3417790234375,0.06404074462890624,0.9621428759765625
-0.2668905078125,-0.1200220947265625,0.7144101416015625
-0.13534931640625,-0.1680597998046875,0.5212375927734375
-0.11298001953125,-0.1543347412109375,0.43472774902343747
-0.15358515625,-0.1768830517578125,0.49641516601562496
-0.22701480468750002,-0.04379900146484375,0.6347817626953125
-0.30506419921875,-0.030319033203124998,0.7832247900390625
-0.4030514453125,-0.03203466552734375,0.9321593505859375
-0.43879369140625,0.124578056640625,0.8672769677734375
-0.3271903515625,0.0721287255859375,0.702367578125
-0.1900568359375,0.03928662109375,0.796741953125
-0.4186126953125,0.021885207519531248,0.91765912109375
-0.18689595703125,-0.18399067138671876,0.8289373779296875
-0.12708240234375,0.0182088525390625,0.92159138671875
-0.35369310546875,0.055462583007812497,0.894557060546875
-0.24306234375,0.01575794921875,0.7920723876953125
-0.25546271484375,0.11158826904296874,0.6573922900390625
-0.280992890625,-0.07443529296875,0.573094345703125
-0.20829267578125,-0.0298288525390625,0.600620205078125
-0.23163455078125,-0.0210056005859375,0.64633279296875
-0.212912421875,-0.0229663232421875,0.7711822265625
-0.397702265625,0.11747043701171875,0.921099853515625
-0.33181009765625,0.10374537841796876,1.0098215966796875
-0.26032560546875,-0.0229663232421875,1.087729609375
-0.2240970703125,-0.1116890234375,1.1852989501953124
-0.21510072265625,-0.1357078759765625,1.2627154296875
-0.39891798828125,-0.1151202880859375,1.194392314453125
-0.37119951171875,-0.1337471533203125,1.0083469970703125
-0.32062544921875,0.0103659619140625,0.86653966796875
-0.310170234375,-0.08987598388671875,0.722520439453125
-0.18057419921875,-0.17908886474609376,0.7812586572265625
-0.27491427734375,-0.02370159423828125,1.039067822265625
-0.31187224609374997,0.06011929931640625,1.150154326171875
-0.38043900390625,0.04394333740234375,1.1081282373046875
-0.31527626953125,0.0927163134765625,1.1351625634765625
-0.30141703125,0.1613416064453125,1.232731904296875
-0.27272597656249997,-0.0268877685546875,1.198324580078125
-0.37703498046875,-0.0097314453125,1.211104443359375
-0.37022693359375003,-0.0798272802734375,1.164900322265625
-0.37557611328125,-0.0190448779296875,1.0378389892578126
-0.32354318359375,0.00325834228515625,1.0324321240234375
-0.25740787109375,-0.15801109619140624,0.96877857421875
-0.337402421875,0.038306259765625,1.070525947265625
-0.3515048046875,0.06551128662109375,1.1705529541015625
-0.4049966015625,0.0015427099609375003,1.1764513525390625
-0.486206875,-0.08963089355468751,1.1002637060546876
-0.25254498046875,-0.091101435546875,0.9520664453125
-0.19662173828125,-0.07370002197265625,0.81738634765625
-0.24865466796875,-0.03252484619140625,0.8761245654296875
-0.29047552734375,-0.10188541015625,1.1410609619140626
-0.36779548828124997,-0.057769150390625,1.229291171875
-0.4045103125,0.07261890625,1.337920009765625
-0.35806970703125,0.0564429443359375,1.2968769873046875
-0.31381740234375,-0.11977700439453125,1.1612138232421876
-0.2406308984375,-0.05090662109375,1.0815854443359374
-0.27442798828125,-0.16854998046875,1.0992806396484376
-0.2824517578125,-0.244037802734375,1.13393373046875
-0.252788125,-0.091101435546875,1.04742388671875
-0.28123603515625,-0.2082546142578125,0.988931435546875
-0.43830740234375,0.00816014892578125,1.0668394482421875
-0.3184371484375,-0.05482806640625,0.9955671337890625
-0.245980078125,0.04688442138671875,0.9852449365234375
-0.32281375,-0.09404251953125001,1.0936280078125
-0.28998923828125,-0.0827683642578125,1.222901240234375
-0.15966376953125,0.0373258984375,1.237155703125
-0.46359443359375,0.0074248779296875,1.25681703125
-0.12027435546875,0.1000690234375,1.333987744140625
-0.35904228515625003,0.05227640869140625,1.32661474609375
-0.37119951171875,-0.02076051025390625,1.3189959814453125
-0.36390517578125,-0.0249270458984375,1.2211808740234376
-0.3301080859375,-0.09134652587890625,1.0444746875
-0.2552195703125,0.04124734375,0.84491220703125
-0.32281375,-0.0121823486328125,0.709740576171875
-0.162338359375,-0.0719843896484375,0.603569404296875
-0.15674603515625,0.07188363525390624,0.8058353173828126
-0.234309140625,-0.03840701416015625,1.1172216015625
-0.35709712890625,-0.02713285888671875,1.3081822509765626
-0.53459263671875,0.190262265625,1.31481794921875
-0.42055785156250003,0.1015395654296875,1.005643564453125
-0.3033621875,0.08805959716796875,0.8417172412109375
-0.1530988671875,0.02433611083984375,0.765775361328125
-0.16185207031249998,-0.07443529296875,0.8544971044921875
-0.25108611328125,-0.02737794921875,0.916184521484375
-0.3145468359375,-0.057278969726562504,0.9636174755859375
-0.35855599609375,-0.037916833496093746,0.9557529443359375
-0.3067662109375,-0.04085791748046875,1.03366095703125
-0.35466568359375,-0.0011532836914062497,1.1351625634765625
-0.27977716796875,-0.06928839599609375,1.054796884765625
-0.21364185546875,0.0750698095703125,0.9881941357421875
-0.28804408203125,0.0270321044921875,0.93437125
-0.25789416015625,0.1025199267578125,0.941744248046875
-0.26081189453125,0.0731090869140625,0.93928658203125
-0.337402421875,-0.01046671630859375,1.01596576171875
-0.15820490234375,-0.0161037939453125,1.124594599609375
-0.2192341796875,0.114774443359375,1.1651460888671874
-0.40621232421875,-0.10262068115234375,0.9609140429687499
-0.3320532421875,-0.09036616455078125,0.7483259326171875
-0.28366748046875,0.01012087158203125,0.567195947265625
-0.1949197265625,-0.06144550537109375,0.4357108154296875
-0.0247185546875,-0.07075893798828126,0.5379497216796875
-0.14702025390625,0.08658905517578125,0.781012890625
-0.29047552734375,0.0838930615234375,1.0112961962890625
-0.35369310546875,0.05619785400390625,1.2098756103515624
-0.3038484765625,0.1201664306640625,1.217002841796875
-0.1968648828125,0.0270321044921875,1.084288876953125
-0.2299325390625,0.077520712890625,1.2236385400390626
-0.286828359375,0.10619628173828125,1.28139369140625
-0.28026345703125,0.048109873046875,1.1228742333984374
-0.33253953125,0.0451687890625,0.9990078662109375
-0.2921775390625,0.03928662109375,0.88620099609375
-0.1832487890625,-0.026397587890625,0.8210728466796875
-0.14847912109375,0.08168724853515624,0.9537868115234375
-0.19953947265625,0.0172284912109375,0.983033037109375
-0.22944625,0.024091020507812498,1.0599579833984376
-0.26761994140625,-0.04281864013671875,0.92355751953125
-0.32451576171875,0.00766996826171875,0.8992266259765624
-0.16355408203125,0.0010525292968750002,0.9191337207031249
-0.32646091796875,-0.01585870361328125,0.9646005419921875
-0.220693046875,0.0740894482421875,1.0987891064453126
-0.2707808203125,-0.024436865234375,0.950591845703125
-0.3203823046875,0.07972652587890625,1.0633987158203124
-0.17376615234375,0.06649164794921875,0.979100771484375
-0.2591098828125,-0.0121823486328125,0.962388642578125
-0.179844765625,0.061834931640625,0.952557978515625
-0.253760703125,-0.03546593017578125,0.9370746826171875
-0.29679728515625,-0.04281864013671875,0.963371708984375
-0.23114826171875,0.010611052246093749,0.9238032861328125
-0.27685943359375,-0.034240478515625,0.9874568359375
-0.2133987109375,0.11649007568359375,0.969270107421875
-0.29728357421875,0.023845930175781252,0.82721701171875
-0.2435486328125,0.057913486328125,0.765775361328125
-0.2668905078125,0.02531647216796875,0.7581565966796875
-0.29728357421875,-0.05090662109375,0.8908705615234375
-0.1958923046875,-0.0038492773437499997,0.9481341796875
-0.214857578125,-0.038161923828125,0.811979482421875
-0.1112780078125,0.00717978759765625,0.773148359375
-0.222638203125,-0.04870080810546875,0.82328474609375
-0.207076953125,0.0309535498046875,0.931913583984375
-0.2824517578125,-0.00213364501953125,0.9097945898437501
-0.24719580078125,0.06281529296875,1.0348897900390626
-0.23649744140625,0.069677822265625,1.0176861279296876
-0.27588685546875,-0.00801581298828125,0.9557529443359375
-0.1754681640625,0.0294830078125,0.9316678173828125
-0.34834392578125,-0.034240478515625,0.7512751318359375
-0.16647181640625,0.04443351806640625,0.7714279931640625
-0.2099946875,0.034384814453125,0.6915538476562499
-0.26081189453125,-0.04379900146484375,0.8065726171875
-0.2309051171875,0.0535018603515625,0.9768888720703125
-0.3019033203125,-0.03889719482421875,0.9311762841796875
-0.19029998046875,0.03757098876953125,0.915201455078125
-0.22531279296875,-0.008996174316406251,0.8717007666015625
-0.28391062499999997,-0.06487677001953125,0.8254966455078125
-0.24962724609375,0.01306195556640625,0.9287186181640625
-0.2416034765625,0.07090327392578125,0.965829375
-0.26713365234374997,0.0544822216796875,0.9520664453125
-0.2450075,0.08266760986328126,1.043983154296875
-0.23844259765625,0.03266918212890625,0.984999169921875
-0.37460353515625,0.05570767333984375,0.9926179345703126
-0.201241484375,0.05105095703125,1.0496357861328125
-0.31235853515625,-0.01046671630859375,0.9444476806640625
-0.25594900390624997,0.0466393310546875,0.985490703125
-0.25789416015625,-0.01732924560546875,1.0565172509765626
-0.310170234375,-0.01438816162109375,0.9820499707031249
-0.2221519140625,-0.0249270458984375,0.9407611816406249
-0.339347578125,0.03855135009765625,0.992863701171875
-0.27977716796875,0.02286556884765625,1.00613509765625
-0.382141015625,-0.065612041015625,0.891607861328125
-0.338375,0.0515411376953125,0.9402696484374999
-0.28998923828125,0.05178622802734375,1.03562708984375
-0.335457265625,0.03217900146484375,1.028745625
-0.30530734375,0.00816014892578125,0.9837703369140625
-0.27345541015625,-0.02321141357421875,0.9577190771484375
-0.21607330078125,-0.00507472900390625,1.0184234277343749
-0.3291355078125,-0.0504164404296875,1.0496357861328125
-0.28512634765625,0.0191892138671875,1.1464678271484374
-0.41739697265625,-0.0759058349609375,1.1130435693359375
-0.3583128515625,0.00865032958984375,1.122628466796875
-0.27248283203125,-0.01291761962890625,1.1189419677734376
-0.419098984375,-0.13840386962890625,1.1238572998046874
-0.23649744140625,0.00227798095703125,1.0928907080078125
-0.20464550781250002,-0.13056097900390626,0.980083837890625
-0.31138595703125,-0.06977857666015624,0.9179048876953125
-0.19905318359375002,-0.01830960693359375,0.886692529296875
-0.3500459375,0.02433611083984375,1.00416896484375
-0.27515742187500003,0.14246965087890626,1.119679267578125
-0.27588685546875,0.163792509765625,1.1435186279296874
-0.20026890625,0.05815857666015625,1.2801648583984375
-0.24379177734375002,0.0917359521484375,1.3794545654296875
-0.33959072265625,0.221633828125,1.3020380859375
-0.2668905078125,0.13119549560546875,1.1518746923828125
-0.27613,-0.0190448779296875,1.22437583984375
-0.2620276171875,0.0789912548828125,1.35807287109375
-0.28196546875,0.07776580322265625,1.2491982666015624
-0.35661083984374997,-0.012427438964843749,1.1504000927734375
-0.2785614453125,-0.00777072265625,1.133442197265625
-0.24038775390625,-0.068553125,1.1789090185546875
-0.220693046875,-0.06830803466796875,1.0747039794921875
-0.11638404296875,-0.1161006494140625,0.9036504248046875
-0.17571130859375,-0.0866898095703125,0.915201455078125
-0.21558701171875,-0.14477621826171874,0.9174133544921875
-0.3592854296875,-0.114630107421875,0.97860923828125
-0.2766162890625,0.0074248779296875,1.1479424267578124
-0.25643529296875,0.0740894482421875,1.29515662109375
-0.3252451953125,0.1211467919921875,1.2646815625
-0.1637972265625,0.1633023291015625,1.306461884765625
-0.280992890625,0.1025199267578125,1.2983515869140625
-0.39478453125,0.0922261328125,1.19291771484375
-0.2114535546875,0.09418685546875,1.20274837890625
-0.3320532421875,-0.02027032958984375,1.0712632470703125
-0.23212083984375,0.019679394531249998,1.051847685546875
-0.28123603515625,0.0407571630859375,0.8864467626953125
-0.28415376953125,0.07384435791015626,0.8530225048828125
-0.21193984375,0.04884514404296875,0.758893896484375
-0.1871391015625,0.0623251123046875,0.7399698681640625
-0.240144609375,0.0358553564453125,0.741690234375
-0.2805066015625,0.08560869384765625,0.8156659814453124
-0.16452666015625,0.09541230712890625,0.874895732421875
-0.24233291015625,0.03413972412109375,0.870963466796875
-0.26032560546875,0.02335574951171875,0.8721922998046875
-0.23601115234375,-0.06830803466796875,0.927981318359375
-0.21072412109375,0.01257177490234375,0.947642646484375
-0.16112263671875,0.059874208984374996,0.8869382958984375
-0.1647698046875,0.00276816162109375,0.9631259423828125
-0.24719580078125,-0.0425735498046875,1.128526865234375
-0.299471875,-0.012672529296875,1.3130975830078124
-0.3145468359375,0.06502110595703126,1.2649273291015626
-0.22336763671875,0.07065818359375,1.023338759765625
-0.15236943359375,0.01183650390625,0.84884447265625
-0.183735078125,0.02580665283203125,0.85474287109375
-0.2668905078125,0.16599832275390625,0.9783634716796875
-0.23260712890625002,0.108892275390625,0.9154472216796875
-0.23114826171875,0.040266982421875,0.771673759765625
-0.19637859375,-0.03301502685546875,0.6532142578125
-0.1900568359375,-0.0994345068359375,0.63650212890625
-0.11468203125,-0.01953505859375,0.57555201171875
-0.1229489453125,-0.00311400634765625,0.54016162109375
-0.10690140625,-0.09575815185546875,0.500347431640625
-0.07213173828125,-0.07566074462890625,0.6446124267578125
-0.20440236328125,0.0495804150390625,0.8682600341796876
-0.28609892578125,0.01012087158203125,1.0284998583984375
-0.2892598046875,-0.096983603515625,1.036118623046875
-0.2464663671875,0.03217900146484375,0.9356000830078125
-0.28391062499999997,-0.09722869384765626,0.791335087890625
-0.26056875,-0.02860340087890625,0.7227662060546876
-0.26640421875,0.02531647216796875,0.6156119677734375
-0.16258150390625,-0.03938737548828125,0.4696266064453125
-0.13048642578125,-0.10752248779296875,0.48166916992187503
-0.20975154296875,-0.02174087158203125,0.56768748046875
-0.10082279296875,-0.013407800292968751,0.6480531591796875
-0.1190586328125,-0.052867343750000004,0.7266984716796875
-0.249870390625,-0.10752248779296875,0.8451579736328125
-0.31576255859375,-0.1013952294921875,0.975168505859375
-0.32086859375,0.101049384765625,0.9478884130859375
-0.31989601562500003,0.0191892138671875,0.7778179248046875
-0.226528515625,-0.01928996826171875,0.77609755859375
-0.29825615234375,-0.03522083984375,0.84786140625
-0.30944080078125,-0.07419020263671874,0.9016842919921875
-0.30944080078125,-0.06193568603515625,0.7055625439453125
-0.22361078125,-0.1278649853515625,0.5502380517578125
-0.1355924609375,-0.1778634130859375,0.511161162109375
-0.12659611328125,-0.14477621826171874,0.5217291259765625
-0.2240970703125,-0.04085791748046875,0.5541703173828125
-0.325731484375,-0.0038492773437499997,0.5595771826171875
-0.21996361328125,-0.00703545166015625,0.5069831298828125
-0.2260422265625,-0.027868129882812502,0.5408989208984375
-0.22044990234375,0.08266760986328126,0.6785282177734375
-0.29922873046875,0.0740894482421875,0.82918314453125
-0.26470220703125,0.00423870361328125,0.9454307470703125
-0.31430369140625003,0.06355056396484375,1.0339067236328126
-0.27540056640625,-0.09281706787109376,1.121645400390625
-0.28464005859375,0.05962911865234375,1.161951123046875
-0.2707808203125,0.01453249755859375,1.090187275390625
-0.234309140625,0.057913486328125,0.9896687353515625
-0.32354318359375,0.0417375244140625,0.9056165576171875
-0.2970404296875,0.01649322021484375,0.872929599609375
-0.29242068359375,0.03315936279296875,0.90586232421875
-0.2299325390625,0.04394333740234375,0.9088115234375
-0.29096181640625,0.11943115966796874,1.002694365234375
-0.20634751953125,0.0505607763671875,1.0835515771484374
-0.20732009765625,0.0417375244140625,1.1327048974609375
-0.26907880859375,0.063795654296875,1.1538408251953125
-0.34056330078125,0.09051050048828126,1.246494833984375
-0.339347578125,0.15815543212890626,1.2713172607421874
-0.31576255859375,0.0231106591796875,1.2187232080078125
-0.2756437109375,0.0780108935546875,1.1848074169921876
-0.23990146484375,0.08707923583984375,1.1631799560546874
-0.23163455078125,0.05521749267578125,1.1336879638671875
-0.17692703125,0.12090170166015625,1.1604765234375
-0.20002576171875,0.0417375244140625,1.1223827001953124
-0.27929087890625,0.01575794921875,1.159001923828125
-0.2878009375,0.03561026611328125,1.2595204638671875
-0.26616107421875,-0.03742665283203125,1.1941465478515625
-0.30895451171875,0.0378160791015625,1.2351895703125
-0.2581373046875,-0.0043394580078125,1.194392314453125
-0.263486484375,0.075559990234375,1.2300284716796874
-0.330594375,0.06453092529296875,1.3020380859375
-0.31308796875,0.14590091552734374,1.3204705810546875
-0.24622322265625,0.1240878759765625,1.1823497509765626
-0.222638203125,0.06306038330078124,1.1565442578125
-0.2581373046875,-0.03056412353515625,1.107882470703125
-0.304334765625,-0.02419177490234375,1.197341513671875
-0.29047552734375,0.07286399658203124,1.231748837890625
-0.2124261328125,0.12433296630859375,1.190460048828125
-0.20464550781250002,0.1093824560546875,1.20962984375
-0.21315556640625,0.077520712890625,1.2742664599609375
-0.22579908203125,0.15717507080078125,1.3288266455078124
-0.17230728515625,0.1525183544921875,1.2836055908203126
-0.24816837890625,0.1191860693359375,1.21061291015625
-0.31770771484375,0.01845394287109375,1.1604765234375
-0.220693046875,0.02286556884765625,1.1759598193359375
-0.31187224609374997,0.06673673828125,1.2017653125
-0.22336763671875,-0.027868129882812502,1.2098756103515624
-0.2104809765625,-0.013652890625,1.207172177734375
-0.252788125,0.0711483642578125,1.18701931640625
-0.29533841796875,0.0003172583007812497,1.0609410498046874
-0.19564916015625,0.010611052246093749,1.0329236572265625
-0.21972046875,0.071638544921875,1.0147369287109376
-0.27491427734375,-0.0592396923828125,0.93338818359375
-0.22336763671875,-0.08938580322265625,0.9223286865234375
-0.36293259765625,-0.03522083984375,0.860149736328125
-0.2464663671875,-0.0504164404296875,0.83901380859375
-0.34883021484375,0.01551285888671875,0.8471241064453126
-0.339347578125,0.07335417724609375,0.97467697265625
-0.33253953125,0.049090234375,0.90389619140625
-0.24768208984375,0.0897752294921875,0.9228202197265625
-0.2805066015625,0.14516564453125,0.931913583984375
-0.2450075,0.0133070458984375,0.8097675830078125
-0.2878009375,0.0819323388671875,0.76921609375
-0.32597462890625,0.0525214990234375,0.738249501953125
-0.29631099609375,0.08168724853515624,0.7328426367187499
-0.26227076171875,0.12433296630859375,0.8505648388671875
-0.2970404296875,0.10766682373046875,0.830657744140625
-0.2912049609375,0.11109808837890625,0.8702261669921875
-0.21121041015625,0.15962597412109375,0.9734481396484375
-0.2882872265625,0.15276344482421875,0.9773804052734375
-0.213885,0.1397736572265625,0.9749227392578125
-0.21072412109375,0.13854820556640626,0.9604225097656249
-0.27929087890625,0.13462676025390624,0.999745166015625
-0.18981369140625,0.1476165478515625,0.9911433349609375
-0.19516287109375,0.05105095703125,0.965829375
-0.26032560546875,0.07090327392578125,1.056271484375
-0.2211793359375,0.05521749267578125,1.048898486328125
-0.206104375,0.09198104248046875,1.1051790380859374
-0.09085386718749999,0.05717821533203125,1.0452119873046875
-0.17303671874999998,-0.0009081933593750001,1.0525849853515625
-0.14945169921875,0.0927163134765625,0.9891772021484375
-0.3339983984375,0.0358553564453125,1.0189149609375
-0.18446451171875,-0.0200252392578125,1.0781447119140626
-0.27929087890625,0.15913579345703124,1.2037314453125
-0.27053767578125,0.075559990234375,1.2723003271484374
-0.240144609375,0.06011929931640625,1.120662333984375
-0.25449013671875,0.1172253466796875,1.016457294921875
-0.21121041015625,0.07090327392578125,0.875387265625
-0.1676875390625,0.04320806640625,0.7596311962890625
-0.08477525390625,0.122617333984375,0.805098017578125
-0.282938046875,0.004973974609375,0.8520394384765625
-0.2474389453125,0.00619942626953125,1.0179318945312499
-0.32281375,0.0025230712890624996,0.97664310546875
-0.32062544921875,-0.03497574951171875,0.8810398974609375
-0.19710802734375,0.13168567626953126,0.812962548828125
-0.26178447265625,0.14639109619140625,0.8186151806640625
-0.24695265625,0.13560712158203125,0.956490244140625
-0.34542619140624997,0.02482629150390625,0.9454307470703125
-0.331566953125,0.06943273193359376,0.895540126953125
-0.22482650390625,0.03168882080078125,0.8372934423828124
-0.22725794921875,0.00423870361328125,0.7866655224609375
-0.18592337890625,0.013552136230468751,0.7306307373046875
-0.2153438671875,0.046149150390625,0.813945615234375
-0.2834243359375,0.0358553564453125,0.927981318359375
-0.24525064453125,0.01992448486328125,0.8879213623046875
-0.2338228515625,0.0691876416015625,0.9410069482421874
-0.26713365234374997,0.06453092529296875,0.891607861328125
-0.18470765625,0.08315779052734375,0.8572005371093749
-0.31284482421875,0.0417375244140625,0.8579378369140624
-0.24427806640625,0.07874616455078125,0.937811982421875
-0.28585578125,0.056933125,0.9419900146484375
-0.25862359375,-0.01169216796875,0.94715111328125
-0.25740787109375,0.02874773681640625,0.9206083203125
-0.22774423828125,0.07433453857421875,0.9795923046875
-0.183735078125,0.1123235400390625,0.8694888671875
-0.125380390625,0.03462990478515625,0.8333611767578125
-0.129270703125,0.14148928955078124,0.989914501953125
-0.30846822265625,0.0515411376953125,1.1132893359375
-0.30117388671875,0.0985984814453125,1.2270792724609374
-0.247925234375,0.08903995849609375,1.20668064453125
-0.290718671875,0.12286242431640625,1.028745625
-0.14264365234375,0.0436982470703125,0.9739396728515625
-0.20732009765625,0.03708080810546875,1.0466865869140625
-0.2800203125,0.09835339111328124,1.0378389892578126
-0.2396583203125,0.03708080810546875,0.9483799462890625
-0.24816837890625,0.02286556884765625,0.8102591162109375
-0.1686601171875,-0.0006631030273437505,0.7741314257812499
-0.240144609375,0.0074248779296875,0.813945615234375
-0.209022109375,0.01453249755859375,0.817877880859375
-0.23917203125,0.0407571630859375,0.78592822265625
-0.29144810546875,0.020659755859375,0.8515479052734375
-0.25935302734375,0.03168882080078125,0.984999169921875
-0.2255559375,0.16158669677734375,0.9768888720703125
-0.23819945312500002,0.05080586669921875,0.9252778857421875
-0.255705859375,0.036345537109375,0.9380577490234375
-0.28707150390625,0.096147578125,1.06315294921875
-0.37581925781250003,0.077520712890625,1.1125520361328125
-0.31916658203125,0.138303115234375,1.0978060400390626
-0.316005703125,0.0074248779296875,0.931913583984375
-0.27394169921875,-0.006790361328125,0.931913583984375
-0.2824517578125,-0.0170841552734375,0.9061080908203125
-0.2571647265625,0.0731090869140625,0.881777197265625
-0.20829267578125,0.04320806640625,0.7940385205078125
-0.25862359375,-0.0016434643554687498,0.9021758251953125
-0.22701480468750002,0.04712951171875,1.0245675927734375
-0.36220316406249997,0.04712951171875,1.07298361328125
-0.335457265625,0.09051050048828126,1.0771616455078126
-0.37022693359375003,0.0373258984375,0.9847534033203125
-0.325731484375,-0.015368522949218751,0.989914501953125
-0.31235853515625,0.02972809814453125,1.0919076416015625
-0.26129818359375,0.00668960693359375,1.00810123046875
-0.20440236328125,0.02923791748046875,0.8893959619140624
-0.2600824609375,-0.03252484619140625,0.890624794921875
-0.27734572265625,0.0373258984375,1.099034873046875
-0.35028908203125,0.11501953369140624,1.1617053564453126
-0.282938046875,0.07874616455078125,1.0683140478515625
-0.2435486328125,0.126538779296875,1.0550426513671876
-0.36925435546875,0.0515411376953125,1.06806828125
-0.26421591796875,0.0255615625,1.152120458984375
-0.38870591796875,0.12531332763671876,1.1936550146484375
-0.31673513671875,0.05276658935546875,1.193409248046875
-0.282938046875,0.05031568603515625,1.2575543310546875
-0.31308796875,0.019434304199218752,1.2550966650390625
-0.37703498046875,0.03855135009765625,1.217985908203125
-0.3072525,-0.010711806640625,1.0830600439453124
-0.26956509765625,-0.04870080810546875,0.991880634765625
-0.2878009375,-0.030073942871093752,0.92355751953125
-0.32548833984375003,-0.0072805419921875,0.8938197607421875
-0.2931501171875,-0.065612041015625,0.9110234228515625
-0.30992708984375,-0.06340622802734375,0.9026673583984375
-0.21655958984375,0.026296833496093748,0.8987350927734374
-0.20926525390625,0.05913893798828125,0.96877857421875
-0.26421591796875,0.07850107421875,1.0818312109375
-0.25303126953125,0.13119549560546875,1.1710444873046875
-0.31819400390625,0.14884199951171875,1.0648733154296874
-0.20975154296875,0.07237381591796875,0.988931435546875
-0.30311904296875003,0.05497240234375,1.0329236572265625
-0.3388612890625,0.0976181201171875,1.1435186279296874
-0.255705859375,0.046149150390625,1.1941465478515625
-0.3485870703125,0.059874208984374996,1.0963314404296876
-0.3106565234375,0.033404453125,0.9911433349609375
-0.2649453515625,-0.026397587890625,0.985490703125
-0.2717533984375,0.06257020263671875,0.986965302734375
-0.2775888671875,0.06158984130859375,1.010558896484375
-0.13413359375,0.095167216796875,1.0108046630859375
-0.2532744140625,0.04541387939453125,1.000728232421875
-0.2805066015625,0.0584036669921875,1.1091113037109375
-0.28172232421875,0.049090234375,1.165883388671875
-0.32889236328125,0.00668960693359375,1.2192147412109375
-0.3660934765625,0.08315779052734375,1.17325638671875
-0.30603677734375,-0.07124911865234375,0.996795966796875
-0.32257060546875,-0.0097314453125,0.96681244140625
-0.356853984375,-0.08227818359375,0.8773533984374999
-0.34396732421875,-0.03546593017578125,0.8107506494140625
-0.30311904296875003,-0.075415654296875,0.8731753662109375
-0.2766162890625,0.04590406005859375,0.7746229589843749
-0.2027003515625,-0.01732924560546875,0.5816961767578125
-0.11832919921875,-0.032279755859375,0.4976439990234375
-0.21510072265625,0.0397768017578125,0.5438481201171875
-0.333512109375,0.0985984814453125,0.5644925146484375
-0.3670660546875,0.0652661962890625,0.50083896484375
-0.1453182421875,-0.0092412646484375,0.4769996044921875
-0.1589343359375,0.0843832421875,0.75643623046875
-0.3223274609375,0.02041466552734375,0.926998251953125
-0.30944080078125,0.0731090869140625,1.19390078125
-0.4045103125,0.14688127685546876,1.2541135986328125
-0.329621796875,0.116735166015625,1.2863090234375
-0.3077387890625,0.15668489013671874,1.2698426611328124
-0.30506419921875,0.13732275390625,1.1322133642578125
-0.27880458984375,0.05864875732421875,1.0255506591796875
-0.3417790234375,0.14099910888671874,0.8984893261718749
-0.339347578125,0.00865032958984375,0.8156659814453124
-0.2707808203125,0.083402880859375,0.8262339453125
-0.3524773828125,0.02139502685546875,0.7684787939453125
-0.300444453125,-0.0317895751953125,0.8387680419921875
-0.37995271484375,0.0584036669921875,0.9351085498046875
-0.39259623046875003,-0.0001729223632812504,1.056763017578125
-0.3233000390625,0.12923477294921876,1.0973145068359376
-0.35393625,0.05962911865234375,1.0589749169921876
-0.33570041015625,0.0012976196289062499,0.9749227392578125
-0.2678630859375,0.04100225341796875,0.911269189453125
-0.26470220703125,-0.0151234326171875,0.818860947265625
-0.32062544921875,-0.00581,0.84491220703125
-0.27831830078124997,0.0838930615234375,0.979100771484375
-0.3485870703125,0.0162481298828125,0.9714820068359376
-0.40718490234375,0.03953171142578125,0.8957858935546875
-0.23503857421875,-0.00581,0.7736398925781249
-0.2591098828125,0.033404453125,0.6962234130859375
-0.28755779296875,0.0466393310546875,0.7571735302734375
-0.32548833984375003,0.0633054736328125,0.9601767431640625
-0.3330258203125,0.07825598388671876,1.0857634765625
-0.4215304296875,0.101049384765625,1.2155282421875
-0.32937865234375,0.17286085205078125,1.16244265625
-0.27831830078124997,-0.02517213623046875,1.062661416015625
-0.298499296875,0.02335574951171875,0.9429730810546875
-0.29922873046875,0.08315779052734375,0.8127167822265625
-0.2075632421875,0.05080586669921875,0.8441749072265625
-0.2552195703125,0.11452935302734375,1.1037044384765624
-0.397702265625,0.02531647216796875,1.2349438037109375
-0.3320532421875,0.0476196923828125,1.2054518115234374
-0.37898013671874997,0.0613447509765625,1.17325638671875
-0.3855450390625,0.071638544921875,1.217002841796875
-0.31333111328125,0.01992448486328125,1.028745625
-0.23309341796875,0.030463369140625002,0.8328696435546875
-0.22531279296875,-0.0562986083984375,0.76626689453125
-0.20634751953125,-0.09796396484375,0.8284458447265625
-0.31089966796875,0.06404074462890624,0.8864467626953125
-0.22677166015625,0.0103659619140625,0.9238032861328125
-0.32889236328125,0.06600146728515625,1.04152548828125
-0.30068759765624997,0.053992041015625,1.128526865234375
-0.38676076171875,0.0701680029296875,1.11623853515625
-0.4079143359375,0.1936935302734375,0.993846767578125
-0.30506419921875,0.06624655761718751,0.92552365234375
-0.304334765625,0.04590406005859375,0.879811064453125
-0.3164919921875,-0.01781942626953125,0.927981318359375
-0.33083751953125,0.08707923583984375,0.83901380859375
-0.10471310546875,0.01992448486328125,0.8692431005859375
-0.3388612890625,0.02139502685546875,0.9183964208984375
-0.3116291015625,0.11011772705078125,1.0368559228515626
-0.408400625,0.11354899169921875,1.0503730859375
-0.368524921875,0.0843832421875,1.0437373876953124
-0.33472783203125,0.10031411376953125,0.9127437890625
-0.2338228515625,-0.01046671630859375,0.8751414990234375
-0.300444453125,0.069677822265625,0.9926179345703126
-0.35952857421875,0.00963069091796875,1.0191607275390624
-0.31333111328125,0.0289928271484375,0.9002096923828125
-0.30919765625,-0.04575972412109375,0.738249501953125
-0.26470220703125,-0.05703387939453125,0.7139186083984375
-0.2396583203125,-0.1352176953125,0.6844266162109375
-0.25400384765625,0.1044806494140625,0.8105048828125
-0.35588140625,-0.126394443359375,0.913235322265625
-0.34348103515625,0.0436982470703125,1.0425085546875
-0.28950294921874997,0.114774443359375,0.9670582080078125
-0.2435486328125,0.19491898193359375,1.1641630224609374
-0.3942982421875,0.257907197265625,1.2290454052734374
-0.2104809765625,0.23143744140625,1.2324861376953125
-0.29485212890625,0.1706550390625,1.1801378515625
-0.43636224609375,0.02482629150390625,1.0806023779296874
-0.28998923828125,-0.0053198193359375,0.9247863525390625
-0.31722142578125,-0.012427438964843749,0.82918314453125
-0.4526529296875,-0.06144550537109375,0.8785822314453124
-0.2542469921875,-0.07762146728515625,0.9931094677734374
-0.38141158203125003,-0.0415931884765625,0.8242678125
-0.32013916015625,-0.0798272802734375,0.7286646044921875
-0.1171134765625,0.02972809814453125,0.7144101416015625
-0.32257060546875,-0.04330882080078125,0.7328426367187499
-0.26713365234374997,0.1309504052734375,0.866048134765625
-0.315033125,0.2211436474609375,0.9677955078125
-0.40086314453125,0.085363603515625,0.9994993994140625
-0.37703498046875,0.0495804150390625,1.0117877294921875
-0.34056330078125,0.09590248779296875,0.92552365234375
-0.37144265625,-0.0190448779296875,0.7134270751953125
-0.2639727734375,-0.0210056005859375,0.7117067089843749
