ax,ay,az
-0.32208431640625,-0.1161006494140625,0.6672229541015625
-0.20683380859375,-0.19330410400390624,0.742181767578125
-0.21996361328125,-0.1857063037109375,0.894557060546875
-0.26640421875,-0.16462853515625,0.959439443359375
-0.2630001953125,-0.130315888671875,0.9360916162109375
-0.35223423828125,-0.13203152099609375,1.0427543212890624
-0.4234755859375,-0.14379585693359376,1.1327048974609375
-0.53848294921875,-0.08350363525390625,1.1833328173828126
-0.4127772265625,-0.00777072265625,1.1351625634765625
-0.3476144921875,-0.18546121337890625,1.0653648486328124
-0.34591248046875,-0.11879664306640625,1.0461950537109375
-0.189570546875,-0.21781313720703124,1.02972869140625
-0.1978374609375,-0.13889405029296875,1.1626884228515626
-0.37557611328125,-0.19207865234375,1.2236385400390626
-0.34226531250000003,-0.0023787353515625003,1.0973145068359376
-0.42274615234375,-0.010221625976562499,0.906845390625
-0.45824525390625,-0.09845414550781251,0.8284458447265625
-0.38967849609375,-0.25604722900390625,0.7846993896484376
-0.2143712890625,-0.0994345068359375,0.812962548828125
-0.2678630859375,-0.06389640869140625,0.94518498046875
-0.3578265625,-0.21095060791015624,0.9481341796875
-0.4769673828125,-0.16144236083984376,0.9773804052734375
-0.38043900390625,-0.11977700439453125,1.0267794921875
-0.2824517578125,-0.126394443359375,1.1073909375
-0.115654609375,-0.10360104248046875,1.230765771484375
-0.1978374609375,-0.05801424072265625,1.260257763671875
-0.32281375,-0.18987283935546875,1.043000087890625
-0.3811684375,-0.10997339111328125,0.846386806640625
-0.50249755859375,-0.17320669677734374,0.741690234375
-0.46870046875,-0.146001669921875,0.6583753564453125
-0.4156949609375,-0.12320826904296875,0.6229849658203125
-0.23649744140625,-0.17271651611328126,0.5930014404296875
-0.20440236328125,-0.22075422119140625,0.5679332470703125
-0.28950294921874997,-0.15310928955078124,0.639451328125
-0.45532751953125,-0.15556019287109374,0.798216552734375
-0.48888146484375,-0.07124911865234375,1.0700344140625
-0.506631015625,-0.11781628173828125,1.2142994091796875
-0.339347578125,-0.1053166748046875,1.2039772119140626
-0.2153438671875,-0.1308060693359375,1.166374921875
-0.31673513671875,-0.11242429443359375,1.023338759765625
-0.356853984375,-0.05752406005859375,0.8603955029296875
-0.4434134375,-0.14036459228515624,0.8962774267578125
-0.47818310546875,-0.17247142578125,0.9734481396484375
-0.423961875,-0.2425672607421875,0.83901380859375
-0.317950859375,-0.10556176513671875,0.690079248046875
-0.3378887109375,-0.1180613720703125,0.542619287109375
-0.3437241796875,-0.18202994873046874,0.5074746630859375
-0.32281375,-0.15408965087890625,0.6485446923828125
-0.47234763671875,-0.03546593017578125,0.8065726171875
-0.48304599609375,0.0358553564453125,1.0058893310546875
-0.491069765625,0.0436982470703125,1.0747039794921875
-0.39989056640625,0.02531647216796875,1.0373474560546876
-0.34591248046875,0.053992041015625,1.0294829248046875
-0.4079143359375,-0.02321141357421875,0.87047193359375
-0.38676076171875,-0.014633251953124999,0.687130048828125
-0.25692158203125,-0.0239466845703125,0.6239680322265625
-0.17619759765625,0.0348749951171875,0.7515208984375
-0.32013916015625,0.0319339111328125,0.9115149560546875
-0.42371873046874997,-0.167569619140625,0.95501564453125
-0.44535859375,-0.069533486328125,0.9970417333984375
-0.469673046875,0.0059543359375,0.9110234228515625
-0.38724705078125,-0.098944326171875,0.8254966455078125
-0.5056584375,-0.0690433056640625,0.84491220703125
-0.339347578125,-0.048455717773437504,0.8766160986328125
-0.1667149609375,0.0059543359375,0.957473310546875
-0.2630001953125,0.028257556152343752,1.0629071826171874
-0.26567478515625,0.05031568603515625,1.0324321240234375
-0.20342978515625,0.01159141357421875,0.9498545458984375
-0.18106048828125,0.10913736572265625,1.0506188525390625
-0.22750109375,0.024581201171875,1.2408422021484375
-0.2542469921875,-0.00458454833984375,1.4059973583984375
-0.52000396484375,0.03512008544921875,1.4541676123046874
-0.60753599609375,-0.077376376953125,1.29122435546875
-0.60559083984375,-0.06340622802734375,1.1523662255859375
-0.64108994140625,-0.05556333740234375,1.0186691943359376
-0.5460204296875,0.0221302978515625,0.93338818359375
-0.2425760546875,-0.03448556884765625,0.7085117431640625
-0.08574783203125,-0.05164189208984375,0.6497735253906249
-0.174981875,-0.032279755859375,0.68172318359375
-0.3437241796875,-0.06291604736328126,0.7908435546875
-0.33570041015625,-0.1445311279296875,0.9542783447265625
-0.502740703125,-0.04968116943359375,1.2088925439453124
-0.57179375,0.06281529296875,1.2850801904296876
-0.53216119140625,0.0711483642578125,1.203239912109375
-0.62698755859375,-0.0881603515625,1.1695698876953124
-0.60948115234375,0.0037485229492187503,1.1184504345703126
-0.43149935546875,0.0843832421875,0.9832788037109375
-0.2163164453125,0.04492369873046875,1.03562708984375
-0.30214646484375,0.06796218994140625,1.1405694287109376
-0.35320681640625,0.01012087158203125,1.178663251953125
-0.52438056640625,0.10031411376953125,1.19291771484375
-0.59197474609375,0.0191892138671875,1.048406953125
-0.434660234375,-0.0317895751953125,0.9646005419921875
-0.36390517578125,-0.1121792041015625,0.9557529443359375
-0.27345541015625,-0.05311243408203125,0.9449392138671875
-0.26664736328125,-0.0259074072265625,1.001711298828125
-0.29242068359375,-0.0612004150390625,1.2010280126953126
-0.5401849609375,-0.16193254150390626,1.31678408203125
-0.55744822265625,-0.139139140625,1.2796733251953125
-0.5275414453125,-0.116590830078125,1.0049062646484375
-0.37363095703125,-0.27418391357421873,0.79772501953125
-0.2240970703125,-0.22075422119140625,0.6632906884765625
-0.11930177734375,0.022620478515625,0.6492819921874999
-0.142886796875,0.0750698095703125,0.6460870263671875
-0.30457791015625,-0.0886505322265625,0.6706636865234374
-0.42663646484375,-0.0239466845703125,0.83901380859375
-0.5333769140625,0.02041466552734375,0.9424815478515625
-0.51757251953125,0.026296833496093748,0.9813126708984374
-0.51027818359375,0.10031411376953125,0.99630443359375
-0.39575710937499997,0.1642826904296875,1.021372626953125
-0.268349375,0.19638952392578124,1.1071451708984374
-0.3500459375,-0.034240478515625,1.11034013671875
-0.2989855859375,-0.23840072509765625,1.0540595849609375
-0.296554140625,-0.2768799072265625,1.0697886474609375
-0.19953947265625,-0.1945295556640625,0.8790737646484375
-0.2532744140625,-0.0955130615234375,0.76036849609375
-0.27199654296875,0.010611052246093749,0.778555224609375
-0.24816837890625,-0.013652890625,0.8166490478515624
-0.426879609375,-0.011201987304687501,0.923065986328125
-0.516356796875,0.019679394531249998,0.901438525390625
-0.47672423828125,0.0780108935546875,0.837539208984375
-0.4400094140625,0.0037485229492187503,0.7488174658203125
-0.45168035156249997,0.02041466552734375,0.7203085400390625
-0.3223274609375,0.0603643896484375,0.742181767578125
-0.27734572265625,0.0010525292968750002,0.88620099609375
-0.3038484765625,0.0020328906249999995,1.0658563818359374
-0.4147223828125,-0.038161923828125,1.128526865234375
-0.41934212890625,-0.1278649853515625,1.0189149609375
-0.51708623046875,-0.19379428466796875,0.9026673583984375
-0.51027818359375,-0.20997024658203126,0.684180849609375
-0.32694720703125,-0.2082546142578125,0.49100830078125
-0.20975154296875,-0.08007237060546875,0.505754296875
-0.10957599609375,-0.0327699365234375,0.47036390625
-0.24622322265625,0.05913893798828125,0.661570322265625
-0.46699845703125,0.0417375244140625,0.8879213623046875
-0.55939337890625,-0.057769150390625,0.9326508837890625
-0.641819375,-0.04870080810546875,1.0506188525390625
-0.5907590234375,0.12188206298828125,1.0383305224609374
-0.28658521484375,0.10472573974609375,1.058729150390625
-0.191515703125,-0.1082577587890625,1.0329236572265625
-0.206104375,-0.1023755908203125,0.99827056640625
-0.27053767578125,-0.1386489599609375,0.95108337890625
-0.47648109375000003,-0.00703545166015625,0.944693447265625
-0.5800606640625,-0.055808427734375,0.792318154296875
-0.508576171875,0.0030132519531249997,0.723503505859375
-0.337402421875,0.11305881103515625,0.8102591162109375
-0.20099833984375,0.11796061767578125,0.8576920703124999
-0.32086859375,0.0329142724609375,0.912252255859375
-0.299471875,-0.00262382568359375,0.992863701171875
-0.41836955078125,0.11599989501953126,1.111323203125
-0.51562736328125,-0.042328459472656246,1.167849521484375
-0.40183572265625,0.02335574951171875,1.243545634765625
-0.37703498046875,0.11599989501953126,1.189968515625
-0.3223274609375,0.06624655761718751,1.1277895654296874
-0.45484123046875,-0.0254172265625,1.0447204541015624
-0.483289140625,0.01796376220703125,0.9537868115234375
-0.44608802734374997,-0.0661022216796875,0.8812856640625
-0.3155194140625,-0.14330567626953125,0.8820229638671875
-0.33083751953125,-0.1141399267578125,0.8186151806640625
-0.32402947265625,-0.08252327392578125,0.727435771484375
-0.34032015625,-0.2249207568359375,0.73874103515625
-0.3719289453125,-0.21389169189453125,0.7512751318359375
-0.3578265625,-0.012672529296875,0.804606484375
-0.30117388671875,-0.089140712890625,0.8717007666015625
-0.12124693359375,-0.204823349609375,1.0294829248046875
-0.34007701171875,-0.08007237060546875,1.182595517578125
-0.55015388671875,-0.09183670654296874,1.1651460888671874
-0.51149390625,-0.19918627197265626,1.0034316650390624
-0.52511,0.03217900146484375,0.9773804052734375
-0.48450486328125,0.10864718505859375,0.9095488232421876
-0.30652306640625,0.07482471923828125,0.8815314306640625
-0.28074974609375003,0.08756941650390625,1.0801108447265624
-0.3500459375,0.09149086181640625,1.1985703466796875
-0.53799666015625,0.0069346972656249995,1.2693511279296874
-0.6004848046875,0.0417375244140625,1.1405694287109376
-0.48815203125,0.08805959716796875,0.973202373046875
-0.5003092578125,0.09345158447265625,0.903404658203125
-0.48790888671875,0.01551285888671875,0.900455458984375
-0.23552486328125,0.008405239257812499,1.0240760595703124
-0.33035123046875,0.049090234375,1.1617053564453126
-0.477453671875,-0.04968116943359375,1.105916337890625
-0.39016478515624997,-0.048455717773437504,0.94125271484375
-0.30700935546875,-0.04085791748046875,0.8584293701171875
-0.265431640625,0.04443351806640625,0.995812900390625
-0.33910443359375,-0.01291761962890625,1.0393135888671874
-0.38870591796875,-0.01953505859375,1.1022298388671874
-0.3967296875,0.02727719482421875,1.0801108447265624
-0.34591248046875,-0.0562986083984375,1.016457294921875
-0.5090624609375,-0.19918627197265626,0.94125271484375
-0.31746457031249997,-0.1562954638671875,0.896523193359375
-0.21121041015625,0.15668489013671874,0.9985163330078125
-0.44851947265625003,-0.13595296630859374,1.02088109375
-0.58079009765625,-0.23521455078125,1.043983154296875
-0.31673513671875,-0.0857094482421875,0.89799779296875
-0.18446451171875,0.052031318359375,0.791335087890625
-0.1910294140625,-0.0229663232421875,0.7984623193359375
-0.203186640625,-0.2268814794921875,0.772656826171875
-0.3884627734375,-0.21585241455078125,0.8254966455078125
-0.35952857421875,-0.28619333984375,0.7004014453125
-0.4147223828125,-0.29428132080078123,0.625196865234375
-0.44754689453125,-0.27075264892578127,0.646824326171875
-0.40815748046875,-0.13203152099609375,0.651248125
-0.18859796875,-0.1259042626953125,0.7655295947265625
-0.2649453515625,0.0008074389648437498,1.0014655322265624
-0.48426171875,0.05080586669921875,1.109848603515625
-0.6539766015625,0.0329142724609375,1.16342572265625
-0.58151953125,0.10202974609375,1.0599579833984376
-0.465782734375,0.12727405029296876,0.9007012255859375
-0.29874244140625,0.19222298828125,0.9616513427734374
-0.34591248046875,0.181439013671875,1.1292641650390625
-0.48766574218750003,-0.08938580322265625,1.1435186279296874
-0.51611365234375,-0.18055940673828125,0.8984893261718749
-0.59148845703125,-0.144040947265625,0.7080202099609375
-0.455084375,-0.1474722119140625,0.5925099072265625
-0.24962724609375,-0.11634573974609375,0.5684247802734375
-0.0957167578125,-0.114630107421875,0.6470700927734375
-0.04441326171875,-0.02909358154296875,0.9439561474609375
-0.39259623046875003,-0.1474722119140625,1.103458671875
-0.5372672265625,-0.2709977392578125,1.186527783203125
-0.5820058203125,-0.28153662353515624,1.119679267578125
-0.47283392578125,-0.11242429443359375,0.8318865771484375
-0.27272597656249997,-0.06144550537109375,0.6709094531249999
-0.13534931640625,-0.03399538818359375,0.6760705517578125
-0.1832487890625,-0.18055940673828125,0.6905707812499999
-0.40694175781249997,-0.20065681396484375,0.707774443359375
-0.34202216796875,-0.14330567626953125,0.6863927490234375
-0.34421046875,-0.0592396923828125,0.7797840576171875
-0.37144265625,0.1133039013671875,0.9911433349609375
-0.40329458984375,0.2098694921875,1.209138310546875
-0.39259623046875003,0.26207373291015623,1.44851498046875
-0.49277177734375,0.236339248046875,1.5347790576171876
-0.48110083984375,0.17384121337890626,1.311377216796875
-0.4847480078125,0.1035002880859375,1.000728232421875
-0.40815748046875,0.06551128662109375,0.891116328125
-0.2279873828125,0.0682072802734375,0.8694888671875
-0.2989855859375,0.1471263671875,1.02776255859375
-0.2882872265625,-0.04085791748046875,1.131476064453125
-0.46262185546875,-0.222469853515625,1.209138310546875
-0.46019041015625,-0.10580685546875,1.024321826171875
-0.4837754296875,0.0701680029296875,0.9650920751953125
-0.36366203125,0.0446786083984375,0.8377849755859375
-0.310170234375,-0.05997496337890625,0.8441749072265625
-0.3651208984375,-0.11242429443359375,0.8549886376953125
-0.40062,-0.12467881103515625,0.854251337890625
-0.4672416015625,-0.1553151025390625,0.8623616357421875
-0.2513292578125,-0.049926259765625,0.9110234228515625
-0.4993366796875,-0.12222790771484375,0.9287186181640625
-0.3378887109375,-0.17835359375,0.8579378369140624
-0.29436583984375,-0.25653740966796873,0.863098935546875
-0.39356880859375,-0.187176845703125,0.9523122119140625
-0.24233291015625,-0.14526639892578125,0.9803296044921875
-0.26227076171875,0.09639266845703125,0.9999909326171875
-0.3894353515625,0.06257020263671875,1.0565172509765626
-0.568876015625,-0.1744321484375,1.032186357421875
-0.68193822265625,-0.07173929931640625,0.9717277734375
-0.62406982421875,0.02482629150390625,0.89209939453125
-0.5178156640625,0.11845079833984375,0.7960046533203124
-0.370470078125,0.17040994873046875,0.790352021484375
-0.23552486328125,0.201046240234375,0.86359046875
-0.22750109375,0.17335103271484376,1.0402966552734374
-0.35174794921875,-0.10997339111328125,1.3416065087890625
-0.543588984375,-0.244037802734375,1.522736494140625
-0.590272734375,0.0137972265625,1.4856257373046875
-0.65032943359375,-0.0141430712890625,1.0850261767578124
-0.5401849609375,-0.12909043701171874,0.745130966796875
-0.27102396484375,-0.0455146337890625,0.6650110546875
-0.23795630859375,0.0613447509765625,0.69548611328125
-0.24938410156250002,0.0466393310546875,0.5993913720703125
-0.341292734375,-0.068553125,0.7645465283203124
-0.38505875,-0.12369844970703125,0.7655295947265625
-0.53483578125,-0.00311400634765625,0.9191337207031249
-0.590272734375,0.00816014892578125,0.873912666015625
-0.3631757421875,-0.05311243408203125,0.733825703125
-0.189570546875,0.03953171142578125,0.7790467578125
-0.191515703125,-0.0788469189453125,0.8466325732421875
-0.30409162109375,0.02678701416015625,1.0778989453125
-0.43636224609375,-0.0033590966796874996,1.2310115380859374
-0.5888138671875,0.064776015625,1.2668934619140626
-0.44317029296875,0.18609572998046875,1.1587561572265626
-0.1754681640625,0.17580193603515626,1.1329506640625
-0.24476435546875,0.2691813525390625,1.30400421875
-0.3339983984375,0.289278759765625,1.3101483837890624
-0.4594609765625,0.02482629150390625,1.1427813281249999
-0.41496552734375003,-0.044044091796875,1.0346440234375
-0.64352138671875,-0.1229631787109375,0.952557978515625
-0.60656341796875,-0.14036459228515624,0.875878798828125
-0.47721052734375,-0.07370002197265625,0.8913620947265625
-0.29825615234375,-0.01561361328125,0.864082001953125
-0.1978374609375,0.01306195556640625,0.8427003076171875
-0.40694175781249997,0.0608545703125,0.8576920703124999
-0.5187882421875,-0.02027032958984375,0.6937657470703125
-0.40134943359374997,-0.059729873046875,0.6318325634765625
-0.37800755859375,-0.1033559521484375,0.623722265625
-0.3203823046875,-0.1062970361328125,0.5718655126953125
-0.32889236328125,-0.07124911865234375,0.6497735253906249
-0.41691068359375,-0.03252484619140625,0.712689775390625
-0.5012818359375,-0.00752563232421875,0.7325968701171874
-0.45873154296875,-0.063651318359375,0.7645465283203124
-0.21704587890625,0.06698182861328125,0.9011927587890625
-0.18349193359375,0.16869431640625,1.0712632470703125
-0.2017277734375,0.25888755859375,1.2968769873046875
-0.33521412109375,0.26795590087890625,1.544363955078125
-0.51319591796875,0.17040994873046875,1.4620321435546875
-0.387976484375,0.18830154296875,1.1272980322265624
-0.37022693359375003,0.06011929931640625,1.0034316650390624
-0.41253408203124997,-0.11095375244140625,1.0579918505859376
-0.19127255859375,-0.034240478515625,1.1907058154296875
-0.4127772265625,-0.059729873046875,1.2034856787109376
-0.5304591796875,0.00791505859375,1.063644482421875
-0.5683897265625,0.0397768017578125,0.8871840625
-0.53556521484375,-0.05090662109375,0.7082659765625
-0.436605390625,0.03512008544921875,0.6254426318359375
-0.298499296875,0.0897752294921875,0.5507295849609375
-0.1949197265625,0.10202974609375,0.469872373046875
-0.1920019921875,0.12776423095703124,0.537212421875
-0.27029453125,0.1471263671875,0.6175781005859375
-0.40718490234375,-0.0229663232421875,0.6033236376953125
-0.49714837890625,-0.0955130615234375,0.6991726123046875
-0.537753515625,-0.030073942871093752,0.7328426367187499
-0.28707150390625,-0.0337502978515625,0.804606484375
-0.11346630859375,-0.11732610107421874,1.0267794921875
-0.24330548828125,-0.06585713134765625,1.2246216064453126
-0.52292169921875,-0.00948635498046875,1.352666005859375
-0.662243515625,0.01183650390625,1.131476064453125
-0.48012826171875,0.056933125,0.8726838330078125
-0.40767119140625,0.0495804150390625,0.78789435546875
-0.12027435546875,-0.015368522949218751,0.6657483544921875
-0.004537558593750001,-0.0504164404296875,0.6957318798828125
-0.22336763671875,-0.00581,0.8554801708984375
-0.485234296875,-0.0592396923828125,0.8967689599609375
-0.6145871875,-0.0646316796875,1.1027213720703124
-0.43538966796875,-0.10360104248046875,1.3553694384765624
-0.39867484375,0.11501953369140624,1.4630152099609375
-0.5990259375,0.0633054736328125,1.4435996484375
-0.5538010546875,0.00472888427734375,1.18112091796875
-0.43636224609375,-0.0308092138671875,0.8520394384765625
-0.44025255859375,0.07335417724609375,0.82328474609375
-0.19419029296875,0.0691876416015625,0.7357918359375
-0.234309140625,0.08511851318359374,0.843929140625
-0.50979189453125,-0.036201201171875,0.8854636962890625
-0.55428734375,-0.15016820556640625,0.9306847509765624
-0.54577728515625,0.0750698095703125,0.944693447265625
-0.49277177734375,0.1260485986328125,0.9127437890625
-0.35952857421875,0.00423870361328125,0.9233117529296875
-0.39162365234375,-0.12271808837890624,1.0933822412109375
-0.50444271484375,-0.1700205224609375,1.239613369140625
-0.6481411328125,-0.1259042626953125,1.2705799609375
-0.56182482421875,-0.2562923193359375,0.956490244140625
-0.30846822265625,-0.139139140625,0.744147900390625
-0.1239215234375,0.0544822216796875,0.7080202099609375
-0.04198181640625,0.02972809814453125,0.8122252490234375
-0.0256911328125,-0.00850599365234375,1.09952640625
-0.53896923828125,-0.1111988427734375,1.2757410595703125
-0.72473166015625,-0.1641383544921875,1.2152824755859375
-0.63525447265625,-0.1700205224609375,1.0068723974609375
-0.5051721484375,-0.12811007568359375,0.8948028271484375
-0.2299325390625,-0.1626678125,0.8038691845703125
-0.30117388671875,-0.059729873046875,0.7483259326171875
-0.39551396484375,-0.1102184814453125,0.721537373046875
-0.403537734375,0.04320806640625,0.8952943603515625
-0.3077387890625,-0.04428918212890625,0.8117337158203125
-0.2571647265625,0.1005592041015625,0.9095488232421876
-0.28658521484375,0.040266982421875,0.943710380859375
-0.38676076171875,0.0270321044921875,1.014491162109375
-0.522192265625,-0.0001729223632812504,1.0334151904296875
-0.57179375,-0.0661022216796875,0.9115149560546875
-0.506631015625,-0.08619962890625,0.8667854345703125
-0.43587595703125,-0.136198056640625,0.750046298828125
-0.343237890625,-0.14232531494140624,0.7812586572265625
-0.23260712890625002,-0.13938423095703126,0.76233462890625
-0.249870390625,-0.02125069091796875,0.9186421875
-0.3223274609375,0.00816014892578125,1.004660498046875
-0.547479296875,0.07531489990234375,1.06118681640625
-0.49325806640625003,0.16624341308593749,0.8771076318359375
-0.3388612890625,0.17040994873046875,0.797233486328125
-0.22044990234375,0.2020266015625,0.79575888671875
-0.26275705078125,0.2250650927734375,0.8269712451171874
-0.4468174609375,-0.04477936279296875,0.79182662109375
-0.39745912109375,-0.0072805419921875,0.956490244140625
-0.58151953125,0.075559990234375,1.0555341845703126
-0.5990259375,-0.04698517578125,0.97271083984375
-0.411318359375,-0.06879821533203125,0.8156659814453124
-0.221665625,0.0329142724609375,0.8146829150390625
-0.28707150390625,0.1191860693359375,0.8569547705078124
-0.22336763671875,-0.0327699365234375,0.7790467578125
-0.22093619140625,0.05031568603515625,0.75840236328125
-0.36220316406249997,0.12825441162109374,0.6750874853515625
-0.38287044921875,0.12923477294921876,0.7475886328125
-0.34737134765625,0.05276658935546875,0.93928658203125
-0.39697283203125,-0.05752406005859375,1.07494974609375
-0.47769681640625,-0.10654212646484375,1.1017383056640626
-0.53507892578125,0.10962754638671875,1.1277895654296874
-0.5601228125,-0.0543378857421875,0.9193794873046874
-0.48790888671875,-0.038161923828125,0.8318865771484375
-0.33083751953125,0.11452935302734375,0.6736128857421875
-0.26251390625,0.13707766357421874,0.5662128808593749
-0.27151025390625,0.14001874755859375,0.585874208984375
-0.3485870703125,0.1378129345703125,0.6701721533203124
-0.2649453515625,0.1427147412109375,0.8117337158203125
-0.31478998046875,0.024581201171875,1.04545775390625
-0.524137421875,0.12286242431640625,1.2216724072265626
-0.38141158203125003,0.15619470947265626,1.219952041015625
-0.42760904296875,-0.00654527099609375,1.1368829296875
-0.3388612890625,-0.0925719775390625,1.056763017578125
-0.35588140625,-0.0759058349609375,1.081339677734375
-0.3466419140625,-0.03987755615234375,1.110831669921875
-0.6306347265625,-0.01732924560546875,1.11230626953125
-0.62650126953125,-0.030073942871093752,0.99040603515625
-0.5489381640625,-0.0415931884765625,0.858183603515625
-0.5224354101562501,-0.07909200927734375,0.7493089990234375
-0.2095083984375,0.02433611083984375,0.544585419921875
-0.0743200390625,0.04541387939453125,0.5423735205078125
-0.07067287109375,0.0760501708984375,0.6814774169921874
-0.24087404296875,0.053992041015625,0.9842618701171875
-0.5625542578125,-0.05213207275390625,1.171781787109375
-0.7658230859375,-0.046249904785156254,1.301546552734375
-0.72862197265625,-0.038161923828125,1.2115959765625
-0.53216119140625,-0.0175743359375,1.0597122167968749
-0.36220316406249997,0.0280124658203125,0.956490244140625
-0.31430369140625003,0.07678544189453125,0.8368019091796874
-0.181789921875,-0.01389798095703125,0.908319990234375
-0.1560166015625,-0.181294677734375,1.1218911669921874
-0.2163164453125,-0.236194912109375,1.2983515869140625
-0.42274615234375,-0.2415868994140625,1.3897767626953126
-0.37654869140625,-0.18497103271484375,1.13098453125
-0.3164919921875,-0.104826494140625,0.9587021435546875
-0.44049570312499997,-0.17026561279296876,0.888658662109375
-0.49034033203125,-0.2180582275390625,0.8982435595703124
-0.56814658203125,-0.22957747314453125,0.907336923828125
-0.4468174609375,-0.17516741943359376,0.900455458984375
-0.44900576171875,-0.08105273193359375,0.8653108349609375
-0.40669861328125,0.0221302978515625,0.9080742236328125
-0.54042810546875,-0.09820905517578125,0.8136998486328125
-0.36633662109375,0.02090484619140625,0.841471474609375
-0.26907880859375,0.06453092529296875,0.90193005859375
-0.19467658203125,-0.069533486328125,0.9931094677734374
-0.323786328125,-0.1876670263671875,1.0004824658203124
-0.45192349609375,0.02776737548828125,1.0088385302734375
-0.6491137109375,-0.0308092138671875,0.9041419580078125
-0.63671333984375,-0.024436865234375,0.9193794873046874
-0.5820058203125,0.07384435791015626,0.89799779296875
-0.4278521875,0.182419375,0.87047193359375
-0.26664736328125,0.13903838623046874,1.0230929931640624
-0.21655958984375,0.0074248779296875,1.064136015625
-0.413263515625,0.0015427099609375003,1.2118417431640625
-0.4400094140625,-0.0881603515625,1.17129025390625
-0.44535859375,-0.1053166748046875,1.0240760595703124
-0.502740703125,0.00791505859375,0.859166669921875
-0.29631099609375,-0.0729647509765625,0.7633176953125
-0.20294349609375,-0.08497417724609375,0.7679872607421875
-0.2289599609375,-0.0562986083984375,0.7689703271484375
-0.5110076171875,0.0348749951171875,0.74660556640625
-0.57398205078125,-0.03301502685546875,0.7613515625
-0.57738607421875,0.03119864013671875,0.838522275390625
-0.5324043359375,0.1387932958984375,0.8065726171875
-0.4127772265625,0.2152614794921875,0.8525309716796875
-0.11006228515625,0.1162449853515625,0.909303056640625
-0.1501811328125,0.0838930615234375,0.965829375
-0.30530734375,0.1142842626953125,0.9783634716796875
-0.4993366796875,-0.035711020507812496,0.9975332666015625
-0.50881931640625,-0.09918941650390625,0.95108337890625
-0.4254207421875,-0.09134652587890625,0.81345408203125
-0.31989601562500003,-0.10507158447265624,0.7370206689453125
-0.09595990234375,-0.00703545166015625,0.819844013671875
-0.242089765625,0.0476196923828125,0.918150654296875
-0.39162365234375,0.052031318359375,0.9336339501953125
-0.49228548828125,0.04933532470703125,1.0461950537109375
-0.6145871875,-0.02517213623046875,1.069542880859375
-0.51538421875,0.0294830078125,0.993355234375
-0.34639876953125,0.05472731201171875,0.88030259765625
-0.1248941015625,0.032424091796875,0.82328474609375
-0.08331638671875,-0.059729873046875,0.8151744482421874
-0.37922328125,0.03315936279296875,0.868014267578125
-0.52146283203125,0.11894097900390625,0.8613785693359375
-0.5596365234375,0.06894255126953125,0.8731753662109375
-0.58857072265625,0.104970830078125,0.936828916015625
-0.56668771484375,0.12555841796875,0.95501564453125
-0.37144265625,0.0486000537109375,0.8790737646484375
-0.39600025390625,0.13413657958984376,0.94125271484375
-0.31770771484375,0.05913893798828125,0.895540126953125
-0.40669861328125,-0.07664110595703125,0.9036504248046875
-0.37995271484375,0.104970830078125,1.012525029296875
-0.315033125,0.0887948681640625,1.0737209130859375
-0.34493990234375,-0.15457983154296875,0.9808211376953125
-0.16793068359375,-0.069533486328125,1.0373474560546876
-0.24768208984375,-0.01978014892578125,1.1213996337890624
-0.38700390625000003,-0.11364974609375,1.1425355615234376
-0.60559083984375,-0.02125069091796875,1.11820466796875
-0.6578669140625,0.08707923583984375,1.014491162109375
-0.59343361328125,0.0525214990234375,0.9110234228515625
-0.28318119140625,0.00668960693359375,0.959439443359375
-0.28998923828125,0.1628121484375,1.0437373876953124
-0.2989855859375,0.21207530517578124,1.0865007763671874
-0.51854509765625,-0.04134809814453125,1.008592763671875
-0.51659994140625,-0.04183827880859375,0.828200078125
-0.42590703125,0.08364797119140625,0.7554531640625
-0.52438056640625,0.00791505859375,0.664519521484375
-0.43344451171875,0.008405239257812499,0.623230732421875
-0.30895451171875,-0.04134809814453125,0.604552470703125
-0.26761994140625,-0.073454931640625,0.5391785546875
-0.2007551953125,-0.07271966064453125,0.505262763671875
-0.2931501171875,-0.067572763671875,0.6485446923828125
-0.51927453125,-0.0170841552734375,0.8859552294921875
-0.55453048828125,0.03119864013671875,1.1041959716796874
-0.55258533203125,0.12923477294921876,1.299580419921875
-0.34931650390625,0.07090327392578125,1.3489795068359376
-0.29485212890625,-0.044534272460937496,1.314326416015625
-0.29679728515625,-0.0886505322265625,1.1685868212890624
-0.3709563671875,-0.05360261474609375,0.976151572265625
-0.4900971875,-0.02272123291015625,0.955507177734375
-0.5985396484375,-0.110708662109375,0.9316678173828125
-0.42469130859375,-0.1151202880859375,0.8427003076171875
-0.3631757421875,-0.0464949951171875,0.76823302734375
-0.35320681640625,-0.06634731201171876,0.5728485791015625
-0.21412814453125,-0.15261910888671876,0.5792385107421875
-0.43636224609375,-0.1445311279296875,0.7158847412109375
-0.56984859375,-0.165608896484375,0.8397511083984375
-0.3972159765625,-0.1023755908203125,0.92650671875
-0.2260422265625,0.0069346972656249995,1.0874838427734375
-0.34883021484375,-0.07909200927734375,1.158510390625
-0.4633512890625,-0.10213050048828125,1.1014925390624999
-0.36585033203125,-0.07835673828125,0.915201455078125
-0.321841171875,-0.052867343750000004,0.859658203125
-0.41885583984375,-0.0121823486328125,0.95108337890625
-0.47842625,-0.075415654296875,0.8948028271484375
-0.51076447265625,-0.03644629150390625,0.937811982421875
-0.4545980859375,-0.03693647216796875,0.837539208984375
-0.33813185546875,-0.0876701708984375,0.78986048828125
-0.3320532421875,0.0843832421875,0.83311541015625
-0.46845732421874997,0.09149086181640625,0.9169218212890625
-0.5000661132812501,7.216796875000007e-05,0.9972875
-0.42274615234375,0.067717099609375,1.055779951171875
-0.26056875,0.04124734375,0.9196252539062499
-0.25886673828125,0.0623251123046875,0.8340984765625
-0.4215304296875,-0.01144707763671875,0.8269712451171874
-0.33618669921875,-0.057278969726562504,0.7945300537109374
-0.43782111328125,0.0535018603515625,1.098051806640625
-0.5032269921875,0.06404074462890624,1.2418252685546876
-0.48790888671875,-0.03350520751953125,1.216019775390625
-0.63282302734375,0.06673673828125,1.100017939453125
-0.5499107421875,0.07776580322265625,0.8874298291015625
-0.15869119140625,-0.0567887890625,0.804114951171875
-0.08574783203125,-0.0651218603515625,0.9744312060546875
-0.374360390625,-0.02615249755859375,1.08084814453125
-0.48012826171875,-0.0161037939453125,0.88816712890625
-0.2892598046875,0.05105095703125,0.749063232421875
-0.29144810546875,0.15129290283203126,0.8852179296875
-0.34202216796875,-0.00581,1.090187275390625
-0.37363095703125,-0.036201201171875,1.3337419775390624
-0.4701593359375,0.1172253466796875,1.4305740185546876
-0.47866939453125,0.18511536865234374,1.3275978125
-0.53896923828125,0.23511379638671875,1.17915478515625
-0.65130201171875,0.17923320068359375,1.1508916259765625
-0.539698671875,0.2054578662109375,1.06905134765625
-0.43976626953125,0.0780108935546875,1.178663251953125
-0.3573402734375,0.10399046875,1.065610615234375
-0.3028758984375,-0.01291761962890625,0.7237492724609375
-0.207076953125,-0.0288484912109375,0.7085117431640625
-0.30919765625,-0.242077080078125,0.7040879443359375
-0.20464550781250002,-0.25604722900390625,0.8195982470703125
-0.3164919921875,-0.0386521044921875,1.06020375
-0.62261095703125,-0.10752248779296875,1.143272861328125
-0.62893271484375,-0.03840701416015625,1.0184234277343749
-0.63039158203125,-0.0494360791015625,0.9166760546875
-0.3690112109375,-0.03914228515625,0.8697346337890625
-0.2834243359375,0.07286399658203124,0.744147900390625
-0.36755234375,0.155949619140625,0.66206185546875
-0.28974609375,0.11403917236328125,0.6274087646484375
-0.39405509765625,-0.116590830078125,0.680248583984375
-0.45970412109375003,-0.06487677001953125,0.9166760546875
-0.494960078125,0.080461796875,1.0280083251953125
-0.51903138671875,0.1235976953125,1.058729150390625
-0.58540984375,0.06845237060546874,0.977626171875
-0.631121015625,-0.055808427734375,0.9439561474609375
-0.50249755859375,-0.096983603515625,0.9572275439453125
-0.34104958984375,-0.14673694091796874,0.878827998046875
-0.17960162109375,-0.0567887890625,0.8692431005859375
-0.23892888671875,-0.09673851318359375,0.8608870361328125
-0.2309051171875,-0.10948321044921874,0.7515208984375
-0.3164919921875,-0.14967802490234375,0.819844013671875
-0.4978778125,-0.05899460205078125,0.9002096923828125
-0.57884494140625,-0.0006631030273437505,0.8957858935546875
-0.41302037109375,0.053992041015625,0.8778449316406249
-0.444386015625,0.0672269189453125,0.86064126953125
-0.50881931640625,0.122617333984375,0.78986048828125
-0.37898013671874997,-0.11879664306640625,0.782487490234375
-0.3262177734375,-0.06879821533203125,0.8871840625
-0.428824765625,0.038306259765625,1.0707717138671875
-0.5158705078125,-0.13546278564453124,1.0270252587890625
-0.34737134765625,-0.17026561279296876,0.900455458984375
-0.2182616015625,-0.087179990234375,0.808047216796875
-0.18495080078125,0.00717978759765625,0.859166669921875
-0.4511940625,-0.15507001220703126,0.9965502001953125
-0.4682141796875,-0.15948163818359376,1.076424345703125
-0.39210994140625,-0.1768830517578125,1.022355693359375
-0.33083751953125,-0.0406128271484375,0.925032119140625
-0.5336200585937501,-0.02615249755859375,0.85277673828125
-0.5148979296875,-0.0435539111328125,0.83114927734375
-0.61920693359375,-0.04870080810546875,0.8957858935546875
-0.41399294921875,0.00325834228515625,0.900455458984375
-0.41107521484375,0.08707923583984375,0.9717277734375
-0.432715078125,0.07923634521484375,1.038084755859375
-0.29193439453125003,-0.07419020263671874,1.0024485986328124
-0.28391062499999997,-0.12761989501953125,1.0589749169921876
-0.33521412109375,-0.16046199951171874,0.9719735400390626
-0.413263515625,-0.1210024560546875,0.8677685009765626
-0.312115390625,-0.1200220947265625,0.903404658203125
-0.23309341796875,-0.16781470947265625,0.91765912109375
-0.2523018359375,-0.0327699365234375,1.1228742333984374
-0.48158712890625,-0.11389483642578124,1.114763935546875
-0.3826273046875,-0.083258544921875,0.9965502001953125
-0.26056875,0.04247279541015625,1.0117877294921875
-0.382141015625,0.05497240234375,1.0235845263671874
-0.54723615234375,0.0280124658203125,1.0270252587890625
-0.30214646484375,0.0731090869140625,0.9832788037109375
-0.386031328125,0.1427147412109375,0.9896687353515625
-0.3281629296875,0.07090327392578125,0.8638362353515625
-0.37922328125,0.0765403515625,0.9159387548828125
-0.5858961328125,0.06404074462890624,0.9395323486328125
-0.60510455078125,0.03928662109375,0.9442019140625
-0.5538010546875,-0.0190448779296875,0.93437125
-0.491069765625,-0.05482806640625,1.0034316650390624
-0.54529099609375,-0.052867343750000004,0.8662939013671875
-0.32159802734375,-0.0023787353515625003,0.660587255859375
-0.09352845703125,-0.08546435791015625,0.6588668896484375
-0.1511537109375,0.00717978759765625,0.7817501904296875
-0.42979734375,0.04443351806640625,0.8372934423828124
-0.5615816796875,-0.060710234375,0.7443936669921875
-0.58613927734375,-0.04281864013671875,0.6922911474609375
-0.5275414453125,0.07629526123046874,0.69548611328125
-0.2717533984375,0.09394176513671874,0.6910623144531249
-0.32694720703125,0.16869431640625,0.9262609521484375
-0.60850857421875,0.0838930615234375,0.9999909326171875
-0.64741169921875,0.0054641552734375,1.0417712548828124
-0.403537734375,-0.02762303955078125,1.1543323583984375
-0.18738224609375,-0.11977700439453125,1.1975872802734375
-0.17692703125,-0.1945295556640625,1.169815654296875
-0.2800203125,-0.14477621826171874,0.98057537109375
-0.24914095703125,-0.10262068115234375,0.767741494140625
-0.4195852734375,-0.01585870361328125,0.702367578125
-0.3485870703125,0.00570924560546875,0.73480876953125
-0.22725794921875,-0.0033590966796874996,0.9360916162109375
-0.4633512890625,0.14443037353515625,1.08379734375
-0.48426171875,0.23413343505859374,1.11034013671875
-0.43149935546875,0.2319276220703125,1.10640787109375
-0.56863287109375,0.19491898193359375,1.1671122216796874
-0.522192265625,0.25128975830078126,1.213070576171875
-0.56984859375,0.13658748291015624,1.242562568359375
-0.50103869140625,-0.028113220214843748,1.1857904833984374
-0.55209904296875,0.10276501708984374,1.0776531787109376
-0.43976626953125,-0.05703387939453125,0.78199595703125
-0.41034578125,-0.15948163818359376,0.6947488134765625
-0.2411171875,-0.20849970458984374,0.625196865234375
-0.242089765625,-0.128355166015625,0.8579378369140624
-0.40937320312500003,-0.23129310546875,0.9139726220703125
-0.4711319140625,-0.2455083447265625,0.996795966796875
-0.3855450390625,-0.25506686767578124,0.996795966796875
-0.24427806640625,-0.11242429443359375,0.8245135791015625
-0.39818855468750003,-0.14820748291015626,0.786419755859375
-0.27685943359375,-0.15678564453125,1.0058893310546875
-0.574711484375,-0.0553182470703125,1.0953483740234375
-0.62455611328125,0.02139502685546875,1.15556119140625
-0.4283384765625,-0.040122646484374996,1.1518746923828125
-0.36439146484375,-0.09281706787109376,1.14671359375
-0.4896108984375,0.08242251953125,1.127052265625
-0.42177357421875,-0.0582593310546875,0.9188879541015624
-0.32743349609375,-0.05752406005859375,0.8658023681640625
-0.35320681640625,0.0231106591796875,0.9267524853515625
-0.26129818359375,-0.16585398681640626,0.8962774267578125
-0.33108066406250003,-0.11683592041015625,0.98647376953125
-0.33108066406250003,-0.07222947998046875,0.941744248046875
-0.39818855468750003,0.03855135009765625,0.8481071728515625
-0.32743349609375,0.08953013916015624,0.9380577490234375
-0.5683897265625,0.10276501708984374,1.0732293798828125
-0.4380642578125,0.08242251953125,1.133442197265625
-0.37800755859375,-0.0239466845703125,1.21257904296875
-0.46213556640625,0.07188363525390624,1.2093840771484374
-0.50881931640625,-0.0001729223632812504,0.8972604931640625
-0.5353220703125,-0.04919098876953125,0.745130966796875
-0.5265688671875,0.0074248779296875,0.6146289013671875
-0.483289140625,0.03021827880859375,0.544585419921875
-0.3583128515625,0.07433453857421875,0.4416092138671875
-0.230418828125,-0.0553182470703125,0.472821572265625
-0.25862359375,-0.12075736572265625,0.46520280761718746
-0.28123603515625,-0.1719812451171875,0.5084577294921875
-0.403537734375,-0.092081796875,0.714655908203125
-0.49277177734375,0.03953171142578125,0.9936010009765625
-0.5703348828125,-0.013652890625,1.2015195458984376
-0.532890625,-0.0435539111328125,1.337920009765625
-0.426879609375,-0.0759058349609375,1.33251314453125
-0.3330258203125,0.03855135009765625,1.154578125
-0.2814791796875,-0.1406096826171875,0.8569547705078124
-0.267376796875,-0.1445311279296875,0.7306307373046875
-0.19370400390625,-0.15114856689453124,0.64240052734375
-0.2318776953125,-0.077376376953125,0.714655908203125
-0.36341888671875,0.111833359375,0.8225474462890625
-0.4497351953125,0.15619470947265626,0.94518498046875
-0.5523421875,0.15031254150390624,1.04349162109375
-0.6063202734375,0.14001874755859375,1.022355693359375
-0.4390368359375,0.19786006591796876,0.9442019140625
-0.330594375,0.07433453857421875,1.0575003173828126
-0.38043900390625,0.14908708984375,0.92650671875
-0.4234755859375,0.195164072265625,0.8572005371093749
-0.339347578125,0.1191860693359375,0.8156659814453124
-0.48037140625,0.052031318359375,0.8058353173828126
-0.25084296875,0.02580665283203125,0.9631259423828125
-0.48061455078125,-0.05360261474609375,1.0737209130859375
-0.52292169921875,0.0387964404296875,1.166374921875
-0.57203689453125,0.02360083984375,0.949608779296875
-0.48766574218750003,0.02433611083984375,0.756927763671875
-0.3271903515625,0.03806116943359375,0.805098017578125
-0.2668905078125,-0.00213364501953125,0.7881401220703125
-0.25400384765625,0.01796376220703125,0.8215643798828125
-0.21072412109375,-0.008996174316406251,0.9587021435546875
-0.35515197265625,-0.17369687744140624,1.1091113037109375
-0.5294866015625,0.06845237060546874,1.2784444921875
-0.40475345703125,0.11403917236328125,1.099034873046875
-0.60315939453125,0.120656611328125,1.1297556982421875
-0.5518558984375,0.20325205322265624,1.1002637060546876
-0.58370783203125,0.17384121337890626,1.0191607275390624
-0.53070232421875,0.19687970458984375,0.92650671875
-0.48012826171875,0.099088662109375,0.796741953125
-0.33132380859375,0.12139188232421876,0.7797840576171875
-0.32646091796875,-0.05874951171875,0.699909912109375
-0.23163455078125,-0.15752091552734376,0.8259881787109375
-0.29533841796875,-0.22908729248046875,0.9473968798828125
-0.34737134765625,-0.09820905517578125,1.140323662109375
-0.5401849609375,-0.1111988427734375,1.04349162109375
-0.5255962890625,-0.18350049072265626,1.056271484375
-0.502740703125,-0.03497574951171875,1.040050888671875
-0.4730770703125,0.02923791748046875,0.865065068359375
-0.32086859375,-0.0097314453125,0.7881401220703125
-0.37144265625,-0.14085477294921875,0.79772501953125
-0.3408064453125,-0.06732767333984375,0.8407341748046875
-0.4011062890625,-0.05899460205078125,0.9614055761718749
-0.48037140625,-0.13105115966796876,1.0661021484375
-0.529972890625,-0.17173615478515625,0.9611598095703124
-0.35661083984374997,-0.06634731201171876,0.917167587890625
-0.44219771484375,-0.01683906494140625,0.9252778857421875
-0.61142630859375,-0.010221625976562499,0.9877026025390625
-0.479398828125,-0.01953505859375,0.9321593505859375
-0.42906791015625,-0.038161923828125,0.8982435595703124
-0.37265837890625,-0.06585713134765625,0.9174133544921875
-0.34834392578125,-0.12149263671875,0.9306847509765624
-0.54067125,-0.154824921875,0.865065068359375
-0.41350666015625,-0.022476142578125,0.714655908203125
-0.37533296875,0.02090484619140625,0.7709364599609375
-0.3135742578125,-0.18252012939453124,0.8633447021484375
-0.3651208984375,-0.2121760595703125,1.019406494140625
-0.5586639453125,-0.06487677001953125,1.19488384765625
-0.46456701171875,-0.19403937500000001,1.1528577587890625
-0.43879369140625,-0.10409122314453124,1.260749296875
-0.4779399609375,-0.03742665283203125,1.141306728515625
-0.46651216796875,-0.0881603515625,1.0179318945312499
-0.4302836328125,-0.09624833251953124,0.954524111328125
-0.37654869140625,-0.0945327001953125,0.8540055712890625
-0.32791978515625,-0.1102184814453125,0.8200897802734375
-0.33521412109375,-0.1798241357421875,0.8023945849609375
-0.48888146484375,-0.1631579931640625,0.8028861181640625
-0.38335673828125,-0.1994313623046875,0.7335799365234374
-0.321841171875,-0.20065681396484375,0.7276815380859375
-0.4244481640625,-0.173451787109375,0.827708544921875
-0.411318359375,-0.067572763671875,0.872929599609375
-0.53021603515625,-0.16389326416015626,0.918150654296875
-0.45240978515625,-0.00948635498046875,0.9046334912109375
-0.438550546875,-0.00581,0.87243806640625
-0.3641483203125,-0.11732610107421874,0.8082929833984375
-0.40669861328125,-0.11193411376953125,0.7414444677734375
-0.39308251953125,-0.0881603515625,0.6460870263671875
-0.2542469921875,-0.09134652587890625,0.646824326171875
-0.3189234375,0.00865032958984375,0.7699533935546875
-0.45435494140625,0.0691876416015625,0.860149736328125
-0.62115208984375,0.00276816162109375,1.0334151904296875
-0.56668771484375,0.06698182861328125,1.0491442529296875
-0.4030514453125,0.2113400341796875,1.1248403662109374
-0.32013916015625,0.04345315673828125,1.1076367041015625
-0.4536255078125,0.01257177490234375,1.181612451171875
-0.4915560546875,0.0652661962890625,1.0815854443359374
-0.4857205859375,-0.1043363134765625,0.9528037451171875
-0.42323244140625,-0.05703387939453125,0.88423486328125
-0.3344846875,-0.08497417724609375,0.85081060546875
-0.3184371484375,-0.06487677001953125,0.8183694140625
-0.4351465234375,-0.04379900146484375,0.920116787109375
-0.4779399609375,-0.15948163818359376,0.9749227392578125
-0.4905834765625,-0.16634416748046876,0.9798380712890625
-0.43757796875,-0.17565760009765624,0.9208540869140625
-0.40645546875,-0.0239466845703125,0.9154472216796875
-0.32889236328125,-0.134237333984375,0.9009469921875
-0.38287044921875,-0.0317895751953125,0.94321884765625
-0.48742259765625,-0.0651218603515625,0.9120064892578125
-0.33764556640625,-0.04183827880859375,0.94518498046875
-0.2912049609375,0.03610044677734375,1.0661021484375
-0.60461826171875,0.0535018603515625,1.0712632470703125
-0.44414287109375,0.0868341455078125,0.9901602685546875
-0.48426171875,0.0211499365234375,1.00220283203125
-0.4351465234375,0.07286399658203124,0.9921264013671875
-0.37703498046875,-0.0798272802734375,0.9719735400390626
-0.40086314453125,-0.02321141357421875,1.1351625634765625
-0.42590703125,0.052031318359375,1.065610615234375
-0.3515048046875,-0.00458454833984375,1.0661021484375
-0.49325806640625003,-0.05654369873046875,1.217494375
-0.61628919921875,-0.09134652587890625,1.175714052734375
-0.32694720703125,-0.029338671875,1.0417712548828124
-0.3164919921875,-0.122472998046875,0.9783634716796875
-0.5508833203125,-0.0180645166015625,0.9832788037109375
-0.29363640625,0.016738310546875,0.8348357763671875
-0.53021603515625,-0.0016434643554687498,0.779538291015625
-0.5858961328125,-0.05017135009765625,0.83704767578125
-0.34542619140624997,-0.00777072265625,0.902421591796875
-0.35977171875,-0.023456503906250002,0.973202373046875
-0.33983386718749997,0.09026541015625,1.09952640625
-0.4166675390625,0.04688442138671875,1.087729609375
-0.48985404296875,0.053992041015625,1.0855177099609374
-0.41156150390625,0.080461796875,1.0196522607421874
-0.417153828125,-0.0651218603515625,1.0245675927734375
-0.33618669921875,-0.01095689697265625,1.02579642578125
-0.393811953125,-0.02272123291015625,0.8525309716796875
-0.41642439453125,0.026541923828125,0.7075286767578125
-0.3865176171875,-0.04281864013671875,0.59619640625
-0.21072412109375,0.022620478515625,0.5878403417968749
-0.4156949609375,0.103010107421875,0.707774443359375
-0.5139253515625,0.10472573974609375,0.761843095703125
-0.4604335546875,0.0603643896484375,0.8805483642578125
-0.438550546875,-0.02272123291015625,0.952557978515625
-0.4448723046875,0.03144373046875,0.91372685546875
-0.44608802734374997,0.0780108935546875,0.8537598046875
-0.3719289453125,-0.02125069091796875,0.8242678125
-0.36633662109375,-0.02419177490234375,0.8544971044921875
-0.349073359375,-0.0004180126953125,0.7724110595703125
-0.3544225390625,-0.0001729223632812504,0.6898334814453125
-0.3135742578125,-0.06487677001953125,0.617332333984375
-0.3427516015625,-0.04919098876953125,0.66402798828125
-0.42955419921875,-0.05801424072265625,0.729401904296875
-0.37508982421875,-0.0268877685546875,0.8073099169921875
-0.26810623046875,0.01404231689453125,0.9596852099609375
-0.483289140625,0.03119864013671875,1.0481611865234375
-0.481343984375,0.10913736572265625,1.0599579833984376
-0.3344846875,0.03119864013671875,0.96877857421875
-0.41010263671875,0.10717664306640624,0.9798380712890625
-0.38432931640625,0.10276501708984374,0.9198710205078124
-0.401592578125,-0.008996174316406251,0.799199619140625
-0.34104958984375,0.026296833496093748,0.6913080810546874
-0.3495596484375,0.15570452880859376,0.6573922900390625
-0.21899103515625,0.161831787109375,0.7124440087890624
-0.3544225390625,0.0030132519531249997,0.888658662109375
-0.485234296875,0.0868341455078125,1.0255506591796875
-0.42323244140625,0.23070217041015625,1.1093570703125
-0.5246237109375,0.15276344482421875,1.1722733203125
-0.42566388671875,0.08634396484375,1.166374921875
-0.333512109375,0.08903995849609375,1.2093840771484374
-0.36341888671875,0.1005592041015625,1.2037314453125
-0.41058892578125,0.06060947998046875,1.1489254931640625
-0.438550546875,0.00276816162109375,1.0938737744140625
-0.52097654296875,-0.013652890625,0.9926179345703126
-0.302389609375,-0.0366913818359375,0.936828916015625
-0.42979734375,0.0270321044921875,0.9056165576171875
-0.4954463671875,0.02580665283203125,0.914709921875
-0.42177357421875,-0.0464949951171875,0.8893959619140624
-0.587355,-0.010221625976562499,0.92552365234375
-0.40475345703125,-0.01978014892578125,0.9127437890625
-0.35126166015625,0.1314405859375,0.9011927587890625
-0.38676076171875,0.222614189453125,0.950591845703125
-0.3874901953125,0.22874144775390626,0.9768888720703125
-0.42274615234375,0.04051207275390625,0.9680412744140625
-0.36390517578125,0.17040994873046875,1.05135615234375
-0.362689453125,0.244182138671875,1.1368829296875
-0.4730770703125,0.2221240087890625,1.1990618798828125
-0.47526537109375,0.190262265625,1.2614865966796875
-0.59246103515625,0.21575166015625,1.1427813281249999
-0.51757251953125,0.2378097900390625,1.0781447119140626
-0.57203689453125,0.17237067138671874,0.97271083984375
-0.38700390625000003,0.018699033203125,0.871455
-0.19710802734375,-0.09771887451171875,0.77019916015625
-0.08380267578125,-0.0371815625,0.7655295947265625
-0.1385101953125,-0.014633251953124999,0.8267254785156251
-0.29971501953125,-0.0011532836914062497,0.8692431005859375
-0.43636224609375,-0.00581,0.9842618701171875
-0.51538421875,0.0922261328125,1.16932412109375
-0.63039158203125,0.22432982177734376,1.3160467822265625
-0.63719962890625,0.2642795458984375,1.260749296875
-0.44317029296875,0.253985751953125,1.00023669921875
-0.39016478515624997,0.22629054443359375,0.78199595703125
-0.2561921484375,0.1633023291015625,0.6342902294921875
-0.27929087890625,0.12482314697265626,0.580958876953125
-0.3952708203125,0.12972495361328126,0.557365283203125
-0.35563826171875,0.157910341796875,0.6485446923828125
-0.43174250000000003,0.1603612451171875,0.715638974609375
-0.38724705078125,0.20521277587890624,0.8117337158203125
-0.37411724609375,0.1740863037109375,0.813945615234375
-0.4847480078125,0.0397768017578125,0.797233486328125
-0.5674171484375,0.0270321044921875,0.733825703125
-0.55428734375,0.0172284912109375,0.694503046875
-0.51708623046875,-0.0474753564453125,0.6534600244140625
-0.34348103515625,0.0289928271484375,0.72301197265625
-0.40037685546875,0.15374380615234376,0.80165728515625
-0.45435494140625,0.06624655761718751,0.69745224609375
-0.2736985546875,0.06698182861328125,0.7134270751953125
-0.30992708984375,0.142224560546875,0.74660556640625
-0.4108320703125,0.09100068115234375,0.8576920703124999
-0.3738741015625,0.03168882080078125,0.9591936767578125
-0.4555706640625,-0.04330882080078125,1.0112961962890625
-0.5080898828125,0.015022678222656249,1.016948828125
-0.5226785546875,-0.0308092138671875,0.8972604931640625
-0.37922328125,-0.0288484912109375,0.7908435546875
-0.39210994140625,-0.0582593310546875,0.799199619140625
-0.4575158203125,0.07457962890625,0.8245135791015625
-0.234309140625,0.1299700439453125,0.860149736328125
-0.2542469921875,0.1628121484375,0.8751414990234375
-0.27345541015625,0.134381669921875,0.9196252539062499
-0.31235853515625,0.0995788427734375,0.906353857421875
-0.3865176171875,0.11011772705078125,0.8854636962890625
-0.44560173828125,0.06502110595703126,0.8594124365234375
-0.5683897265625,0.06257020263671875,0.82328474609375
-0.5703348828125,-0.0033590966796874996,0.737266435546875
-0.3855450390625,0.0319339111328125,0.703842177734375
-0.29363640625,0.085363603515625,0.7483259326171875
-0.25205869140625,0.03659062744140625,0.8269712451171874
-0.31527626953125,0.14933218017578126,0.9582106103515625
-0.36828177734375,0.1025199267578125,1.1041959716796874
-0.268349375,0.0740894482421875,1.1985703466796875
-0.3203823046875,0.0985984814453125,1.2069264111328124
-0.28220861328125,0.11011772705078125,1.24600330078125
-0.3515048046875,0.11992134033203125,1.3352165771484374
-0.5207333984375,0.13952856689453125,1.3922344287109376
-0.613614609375,0.02923791748046875,1.2860632568359376
-0.57057802734375,-0.063651318359375,1.163917255859375
-0.37703498046875,-0.0043394580078125,1.0339067236328126
-0.34980279296875,-0.01781942626953125,1.062661416015625
-0.31284482421875,0.0417375244140625,1.1880023828125
-0.43004048828125,0.028502646484374998,1.20864677734375
-0.44657431640625,0.1162449853515625,1.223884306640625
-0.56571513671875,0.181439013671875,1.133442197265625
-0.51027818359375,0.11943115966796874,1.001219765625
-0.475508515625,0.18560554931640624,1.024321826171875
-0.5112507617187501,0.05815857666015625,0.8365561425781249
-0.5771429296875,0.01796376220703125,0.7660211279296875
-0.5051721484375,0.04688442138671875,0.6952403466796875
-0.42760904296875,0.04639424072265625,0.6465785595703125
-0.2153438671875,0.04688442138671875,0.7736398925781249
-0.29509527343749997,0.13462676025390624,0.996795966796875
-0.42371873046874997,0.07531489990234375,1.2152824755859375
-0.57155060546875,-0.092081796875,1.331530078125
-0.5071173046875,0.0020328906249999995,1.2973685205078125
-0.41812640624999997,0.080461796875,1.137374462890625
-0.48499115234375,0.089285048828125,0.991880634765625
-0.40280830078125,0.12188206298828125,0.92945591796875
-0.33326896484375,0.00791505859375,0.8677685009765626
-0.57009173828125,0.015022678222656249,0.8176321142578125
-0.54820873046875,0.0358553564453125,0.6731213525390625
-0.35612455078125,0.05080586669921875,0.5610517822265625
-0.296554140625,0.05227640869140625,0.560314482421875
-0.338375,0.04982550537109375,0.58341654296875
-0.3213548828125,-0.02076051025390625,0.589806474609375
-0.42566388671875,0.0270321044921875,0.677299384765625
-0.40767119140625,0.06624655761718751,0.65812958984375
-0.35661083984374997,-0.045024453125,0.682214716796875
-0.32743349609375,0.085363603515625,0.761843095703125
-0.39697283203125,0.0137972265625,0.7104778759765625
-0.35223423828125,0.08168724853515624,0.8254966455078125
-0.32597462890625,0.1544790771484375,0.84294607421875
-0.35588140625,0.12433296630859375,0.8805483642578125
-0.3578265625,0.15913579345703124,0.9724650732421874
-0.384086171875,0.1838899169921875,0.8778449316406249
-0.38967849609375,0.07433453857421875,0.7837163232421875
-0.28269490234375,0.127519140625,0.83114927734375
-0.2912049609375,0.03757098876953125,0.8648193017578125
-0.26640421875,0.0436982470703125,0.9621428759765625
-0.46699845703125,0.0255615625,1.0108046630859375
-0.52316484375,-0.01879978759765625,0.929947451171875
-0.41447923828125,-0.0259074072265625,0.7556989306640625
-0.298499296875,0.05913893798828125,0.7124440087890624
-0.38384302734375,0.0020328906249999995,0.6374851953125
-0.34348103515625,0.07065818359375,0.6465785595703125
-0.38432931640625,0.1044806494140625,0.6126627685546875
-0.321841171875,0.09051050048828126,0.63256986328125
-0.2357680078125,-0.0288484912109375,0.7188339404296875
-0.3072525,-0.08227818359375,0.8987350927734374
-0.522192265625,-0.060710234375,0.999745166015625
-0.4122909375,-0.03742665283203125,0.9874568359375
-0.5056584375,0.06355056396484375,0.886692529296875
-0.44146828125,0.06257020263671875,0.802148818359375
-0.33764556640625,-0.0055649096679687505,0.829674677734375
-0.4691867578125,0.10619628173828125,0.9604225097656249
-0.5207333984375,0.063795654296875,0.846386806640625
-0.2921775390625,-0.00507472900390625,0.720554306640625
-0.2970404296875,0.0037485229492187503,0.7537327978515624
-0.370470078125,-0.0425735498046875,0.8579378369140624
-0.4759948046875,-0.0004180126953125,1.055779951171875
-0.55258533203125,-0.0009081933593750001,1.1093570703125
-0.4944737890625,0.0436982470703125,1.0653648486328124
-0.38141158203125003,0.0329142724609375,0.916184521484375
-0.4477900390625,-0.01879978759765625,0.7670041943359375
-0.4745359375,-0.0229663232421875,0.7188339404296875
-0.43684853515625,0.07531489990234375,0.7741314257812499
-0.553314765625,-0.047965537109375,0.7896147216796875
-0.43247193359375,0.01551285888671875,0.775606025390625
-0.26567478515625,0.028257556152343752,0.840488408203125
-0.4273658984375,0.01649322021484375,0.9454307470703125
-0.48061455078125,0.0069346972656249995,0.9803296044921875
-0.39794541015625,0.07457962890625,1.0678225146484375
-0.39502767578125,-0.0092412646484375,1.075441279296875
-0.436605390625,0.04198261474609375,1.115747001953125
-0.5547736328125,-0.008751083984375,1.0226014599609374
-0.467727890625,0.01306195556640625,0.9567360107421875
-0.485234296875,0.04737460205078125,0.8603955029296875
-0.38700390625000003,-0.0016434643554687498,0.8795652978515625
-0.3729015234375,-0.0494360791015625,0.9518206787109375
-0.30214646484375,0.062080021972656246,1.024321826171875
-0.2882872265625,-0.05090662109375,1.0530765185546875
-0.329621796875,-0.1665892578125,1.0759328125
-0.46602587890625,-0.06585713134765625,1.0860092431640624
-0.5158705078125,0.01649322021484375,0.93928658203125
-0.3855450390625,-0.071494208984375,0.9783634716796875
-0.4147223828125,-0.068553125,1.1218911669921874
-0.386031328125,0.048109873046875,1.1430270947265626
-0.352963671875,-0.05409279541015625,0.9820499707031249
-0.4847480078125,-0.10899302978515625,0.918150654296875
-0.415208671875,-0.13595296630859374,0.86064126953125
-0.230418828125,-0.02272123291015625,0.9331424169921875
-0.378250703125,-0.15212892822265625,1.0373474560546876
-0.32791978515625,-0.04281864013671875,1.1014925390624999
-0.27029453125,0.03708080810546875,1.0717547802734375
-0.56133853515625,-0.0268877685546875,1.0294829248046875
-0.58419412109375,-0.0724745703125,0.9636174755859375
-0.485234296875,-0.0006631030273437505,0.8235305126953125
-0.33959072265625,0.07825598388671876,0.7458682666015625
-0.294608984375,-0.016593974609375,0.7340714697265625
-0.3884627734375,-0.12761989501953125,0.7846993896484376
-0.32986494140625,-0.17761832275390624,0.7684787939453125
-0.31308796875,-0.1337471533203125,0.8181236474609375
-0.5362946484375,0.0231106591796875,0.94321884765625
-0.47818310546875,-0.0719843896484375,0.9380577490234375
-0.33472783203125,0.04124734375,0.9788550048828125
-0.44608802734374997,0.0887948681640625,0.985490703125
-0.38821962890625,-0.015368522949218751,0.9149556884765625
-0.299471875,0.013552136230468751,0.7458682666015625
-0.20294349609375,-0.01781942626953125,0.6151204345703125
-0.1842213671875,-0.0411030078125,0.5433565869140625
-0.25692158203125,0.05129604736328125,0.6352732958984375
-0.49593265625,0.0417375244140625,0.6839350830078125
-0.53653779296875,0.0446786083984375,0.757419296875
-0.545534140625,0.11992134033203125,0.8245135791015625
-0.57495462890625,0.0917359521484375,1.0093300634765625
-0.39697283203125,0.12874459228515625,1.0009739990234374
-0.37460353515625,0.19884042724609374,0.91176072265625
-0.32864921874999997,0.16452778076171876,0.871946533203125
-0.40694175781249997,-0.06144550537109375,0.8712092333984375
-0.4497351953125,-0.1494329345703125,0.7660211279296875
-0.37800755859375,0.04712951171875,0.68368931640625
-0.41253408203124997,-0.01095689697265625,0.590789541015625
-0.41788326171875,-0.112669384765625,0.56473828125
-0.36463460937500003,-0.1327667919921875,0.645841259765625
-0.4200715625,-0.191098291015625,0.676316318359375
-0.51076447265625,-0.140119501953125,0.7286646044921875
-0.48061455078125,-0.171491064453125,0.788877421875
-0.55064017578125,-0.173451787109375,0.8984893261718749
-0.55161275390625,-0.17712814208984376,0.9095488232421876
-0.4001337109375,-0.0504164404296875,0.977134638671875
-0.3466419140625,-0.1013952294921875,0.9795923046875
-0.24233291015625,-0.14869766357421876,1.0545511181640626
-0.2289599609375,-0.232273466796875,1.0604495166015624
-0.39551396484375,-0.1210024560546875,1.0565172509765626
-0.45824525390625,-0.13497260498046876,0.888658662109375
-0.5071173046875,-0.20751934326171875,0.8589209033203125
-0.47672423828125,-0.1013952294921875,0.9567360107421875
-0.4434134375,-0.0960032421875,1.0171945947265626
-0.43830740234375,-0.024436865234375,1.0702801806640625
-0.360744296875,-0.1161006494140625,1.0127707958984375
-0.3578265625,-0.026397587890625,0.953541044921875
-0.35028908203125,-0.0886505322265625,0.91372685546875
-0.18154677734375,-0.116590830078125,1.1199250341796876
-0.25935302734375,-0.06536695068359374,1.331530078125
-0.4254207421875,-0.069533486328125,1.51143123046875
-0.49131291015625,-0.11561046875,1.303512685546875
-0.5119801953125,-0.0710040283203125,1.1150097021484375
-0.5679034375,-0.1121792041015625,0.9567360107421875
-0.44365658203125,-0.1788437744140625,1.027271025390625
-0.45921783203125,-0.035711020507812496,1.095594140625
-0.41399294921875,-0.05703387939453125,1.044966220703125
-0.13510617187500001,-0.126394443359375,0.8785822314453124
-0.41399294921875,-0.18497103271484375,0.812471015625
-0.36755234375,-0.2229600341796875,0.8589209033203125
-0.35806970703125,-0.07615092529296875,1.064136015625
-0.49982296875,-0.0016434643554687498,1.25190169921875
-0.52729830078125,-0.02762303955078125,1.3204705810546875
-0.43490337890624997,-0.1317864306640625,1.3924801953125
-0.42517759765625,-0.04134809814453125,1.2197062744140625
-0.52292169921875,-0.0347306591796875,0.9513291455078126
-0.45386865234375,0.036345537109375,0.8535140380859375
-0.62601498046875,-0.04036773681640625,0.8766160986328125
-0.52097654296875,0.02482629150390625,0.899472392578125
-0.3111428125,0.06404074462890624,0.9572275439453125
-0.34639876953125,0.06306038330078124,0.8530225048828125
-0.36390517578125,0.116735166015625,0.8505648388671875
-0.31965287109375,-0.09404251953125001,0.8485987060546875
-0.44511544921875,-0.00654527099609375,0.972219306640625
-0.6850991015625,-0.05360261474609375,0.961897109375
-0.61726177734375,-0.08350363525390625,0.8854636962890625
-0.46019041015625,-0.12663953369140624,0.867522734375
-0.3505322265625,-0.13154134033203124,0.7463597998046875
-0.27272597656249997,-0.14330567626953125,0.7593854296875
-0.3476144921875,-0.2317832861328125,0.8144371484375
-0.1866528125,-0.0249270458984375,0.95698177734375
-0.33667298828125003,-0.03350520751953125,1.07691587890625
-0.43587595703125,-0.14085477294921875,1.2194605078125
-0.500795546875,-0.004829638671875,1.345784541015625
-0.5178156640625,0.1407540185546875,1.08084814453125
-0.51538421875,0.1495772705078125,0.8667854345703125
-0.45824525390625,0.0417375244140625,0.64338359375
-0.27345541015625,-0.02713285888671875,0.5689163134765625
-0.2007551953125,-0.04772044677734375,0.5743231787109375
-0.35709712890625,0.04884514404296875,0.6903250146484375
-0.4623787109375,-0.04575972412109375,0.7994453857421875
-0.4823165625,-0.1455114892578125,0.88816712890625
-0.493014921875,-0.0121823486328125,1.0184234277343749
-0.5246237109375,0.08462833251953125,0.9503460791015625
-0.35588140625,0.0652661962890625,0.97271083984375
-0.34834392578125,0.01306195556640625,1.1017383056640626
-0.3417790234375,-0.18350049072265626,1.0584833837890626
-0.43004048828125,-0.2082546142578125,0.904387724609375
-0.43879369140625,-0.161687451171875,0.6780366845703125
-0.329621796875,-0.234234189453125,0.483635302734375
-0.267376796875,-0.23889090576171876,0.457092509765625
-0.19127255859375,-0.14281549560546875,0.49616939941406246
-0.18689595703125,0.04835496337890625,0.777080625
-0.34348103515625,0.09418685546875,1.2152824755859375
-0.673914453125,-0.081297822265625,1.4472861474609375
-0.85651599609375,-0.1249239013671875,1.4846426708984375
-0.64643912109375,-0.16634416748046876,1.033169423828125
-0.26154132812499997,-0.19918627197265626,0.6814774169921874
-0.27491427734375,-0.1102184814453125,0.55785681640625
-0.2202067578125,-0.09722869384765626,0.4902710009765625
-0.12951384765625001,-0.12418863037109375,0.4715927392578125
-0.086477265625,-0.1651187158203125,0.6962234130859375
-0.2260422265625,-0.2925656884765625,0.9557529443359375
-0.57446833984375,-0.1406096826171875,1.0383305224609374
-0.6345250390625,-0.0141430712890625,1.078390478515625
-0.61483033203125,-0.02125069091796875,0.921099853515625
-0.56133853515625,0.07972652587890625,0.843437607421875
-0.32646091796875,0.14443037353515625,0.8574463037109374
-0.32062544921875,0.1319307666015625,0.9203625537109374
-0.4978778125,0.05962911865234375,0.920116787109375
-0.3952708203125,-0.05311243408203125,0.9247863525390625
-0.32646091796875,-0.12541408203125,1.08478041015625
-0.35952857421875,-0.08791526123046875,1.2187232080078125
-0.4594609765625,-0.028358310546875,1.205697578125
-0.4380642578125,0.09026541015625,1.0481611865234375
-0.4283384765625,0.01845394287109375,0.92748978515625
-0.42128728515625,-0.108747939453125,1.0781447119140626
-0.5518558984375,-0.12149263671875,1.1661291552734374
-0.605833984375,-0.07958218994140626,1.097068740234375
-0.4225030078125,-0.1278649853515625,0.84491220703125
-0.35806970703125,0.011346323242187501,0.6657483544921875
-0.228473671875,-0.0055649096679687505,0.5718655126953125
-0.13534931640625,0.008405239257812499,0.6886046484375
-0.39867484375,-0.08056255126953125,0.9704989404296875
-0.4526529296875,-0.04723026611328125,1.302529619140625
-0.543588984375,0.0299731884765625,1.5524742529296875
-0.39697283203125,-0.057278969726562504,1.420497587890625
-0.477453671875,-0.069533486328125,1.28139369140625
-0.6345250390625,-0.15605037353515624,0.926015185546875
-0.46991619140625,-0.128355166015625,0.7709364599609375
-0.14896541015625,-0.07468038330078125,0.8105048828125
-0.2143712890625,0.06011929931640625,1.004660498046875
-0.47648109375000003,0.11109808837890625,1.111814736328125
-0.53896923828125,-0.08963089355468751,1.00023669921875
-0.50881931640625,0.124578056640625,0.9763973388671875
-0.5080898828125,-0.02272123291015625,0.94321884765625
-0.4939875,-0.10801266845703125,0.9080742236328125
-0.528027734375,-0.00458454833984375,0.7947758203124999
-0.28391062499999997,-0.050661530761718754,0.7011387451171875
-0.3485870703125,-0.16193254150390626,0.7498005322265625
-0.3889490625,-0.20163717529296876,0.915201455078125
-0.368524921875,-0.16144236083984376,1.0452119873046875
-0.6199363671875,-0.11046357177734376,1.1410609619140626
-0.6053476953125,-0.10213050048828125,1.0565172509765626
-0.42420501953125,-0.1366882373046875,1.003677431640625
-0.38141158203125003,-0.0366913818359375,0.922082919921875
-0.29169125,-0.026397587890625,0.8004284521484375
-0.28318119140625,0.053992041015625,0.7099863427734375
-0.45970412109375003,-0.013652890625,0.8412257080078125
-0.5674171484375,-0.015368522949218751,0.894557060546875
-0.5411575390625,-0.00581,0.9886856689453125
-0.5912453125,0.0005623486328125002,1.205697578125
-0.4380642578125,0.03806116943359375,1.2236385400390626
-0.3223274609375,-0.013407800292968751,1.1007552392578126
-0.298499296875,-0.12271808837890624,0.9614055761718749
-0.2153438671875,-0.228352021484375,0.879811064453125
-0.17571130859375,-0.2180582275390625,1.0314490576171875
-0.39016478515624997,-0.2288422021484375,1.260257763671875
-0.53313376953125,-0.12712971435546874,1.1572815576171875
-0.5129527734375,-0.06536695068359374,0.911269189453125
-0.37995271484375,-0.0455146337890625,0.7886316552734375
-0.2644590625,-0.18889247802734374,0.6967149462890625
-0.4390368359375,-0.12933552734375,0.8451579736328125
-0.532890625,-0.0180645166015625,0.8171405810546875
-0.55039703125,-0.0661022216796875,0.7050710107421875
-0.4341739453125,0.04835496337890625,0.634044462890625
-0.28974609375,0.06453092529296875,0.7357918359375
-0.18446451171875,0.02139502685546875,0.90193005859375
-0.39843169921875,-0.14502130859375,1.04742388671875
-0.57398205078125,-0.03497574951171875,1.144255927734375
-0.3855450390625,-0.0259074072265625,0.922574453125
-0.40086314453125,0.01551285888671875,0.85081060546875
-0.43976626953125,-0.1278649853515625,0.823776279296875
-0.3787369921875,-0.17124597412109374,0.7085117431640625
-0.39600025390625,0.06624655761718751,0.7891231884765625
-0.38287044921875,0.16354741943359374,0.83508154296875
-0.42760904296875,0.165753232421875,0.7625803955078125
-0.47429279296875,0.10766682373046875,0.7886316552734375
-0.42712275390625,-0.03546593017578125,0.750046298828125
-0.28585578125,-0.05213207275390625,0.82918314453125
-0.21753216796875,0.19614443359375,1.0673309814453125
-0.555259921875,-0.02149578125,1.145238994140625
-0.69944462890625,-0.22075422119140625,1.1282810986328125
-0.54334583984375,-0.046740085449218746,0.9520664453125
-0.28415376953125,0.06943273193359376,0.884726396484375
-0.12659611328125,0.1299700439453125,0.956490244140625
-0.21169669921875,-0.10458140380859375,0.9051250244140625
-0.23892888671875,-0.19526482666015624,0.8358188427734374
-0.39065107421875,-0.24109671875,0.807064150390625
-0.35077537109375,-0.083258544921875,0.788385888671875
-0.2785614453125,0.0010525292968750002,0.7869112890625
-0.4278521875,-0.09232688720703125,0.8849721630859375
-0.354908828125,-0.08963089355468751,0.980083837890625
-0.44292714843750003,-0.03840701416015625,0.87931953125
-0.44657431640625,0.183399736328125,0.8984893261718749
-0.428824765625,0.19982078857421876,0.906845390625
-0.36001486328125,0.197124794921875,0.9773804052734375
-0.53872609375,0.09810830078125,1.2280623388671874
-0.4477900390625,0.00423870361328125,1.2428083349609376
-0.1676875390625,-0.073454931640625,1.1565442578125
-0.2756437109375,0.03536517578125,1.2339607373046875
-0.59100216796875,-0.07124911865234375,1.1199250341796876
-0.5783586523437501,-0.1357078759765625,0.8775991650390624
-0.5771429296875,-0.06781785400390625,0.850319072265625
-0.4662690234375,-0.03301502685546875,0.8181236474609375
-0.43976626953125,-0.08619962890625,0.79575888671875
-0.38530189453125,-0.107767578125,0.638959794921875
-0.28318119140625,-0.096983603515625,0.6347817626953125
-0.37508982421875,-0.10458140380859375,0.6962234130859375
-0.3057936328125,-0.0308092138671875,0.8294289111328125
-0.36220316406249997,-0.0955130615234375,0.9410069482421874
-0.494960078125,0.05962911865234375,1.0751955126953125
-0.501768125,0.08364797119140625,1.0108046630859375
-0.5367809375,-0.010711806640625,0.9223286865234375
-0.4497351953125,0.0103659619140625,0.884726396484375
-0.30555048828125,0.04933532470703125,0.7773263916015625
-0.36925435546875,0.12139188232421876,0.9124980224609375
-0.4322287890625,0.18070374267578124,0.942727314453125
-0.4575158203125,0.10619628173828125,0.9719735400390626
-0.4623787109375,0.2103596728515625,0.9562444775390625
-0.38773333984375,0.2221240087890625,0.9614055761718749
-0.337402421875,0.2387901513671875,0.996795966796875
-0.22701480468750002,0.13462676025390624,1.0078554638671875
-0.32791978515625,0.024581201171875,1.0009739990234374
-0.510521328125,-0.1131595654296875,0.9331424169921875
-0.3972159765625,-0.186196484375,0.996795966796875
-0.424934453125,-0.049926259765625,1.16932412109375
-0.54723615234375,-0.16242272216796874,1.191443115234375
-0.2571647265625,-0.057769150390625,1.04742388671875
-0.32305689453124997,-0.0038492773437499997,0.9414984814453125
-0.20804953125,-0.15850127685546875,0.8535140380859375
-0.321841171875,-0.29428132080078123,0.805098017578125
-0.4545980859375,-0.1964902783203125,0.825742412109375
-0.48158712890625,-0.18521612304687501,0.798216552734375
-0.49179919921875,-0.044534272460937496,0.7119524755859374
-0.32402947265625,0.04712951171875,0.64633279296875
-0.2416034765625,-0.00507472900390625,0.5448311865234375
-0.282938046875,-0.0013983740234375002,0.5546618505859375
-0.34688505859375,-0.0646316796875,0.6932742138671875
-0.330594375,0.013552136230468751,0.996795966796875
-0.51854509765625,0.057668395996093746,1.259274697265625
-0.516356796875,0.0843832421875,1.3799460986328125
-0.579574375,0.07090327392578125,1.3765053662109374
-0.4915560546875,0.1368325732421875,1.1907058154296875
-0.49520322265625,-0.05311243408203125,0.876861865234375
-0.4312562109375,-0.052867343750000004,0.7670041943359375
-0.2892598046875,0.04639424072265625,0.63650212890625
-0.25594900390624997,0.05815857666015625,0.5153391943359376
-0.1414279296875,-0.010221625976562499,0.5477803857421875
-0.05900193359375,0.02727719482421875,0.80067421875
-0.52729830078125,-0.14526639892578125,1.150154326171875
-0.75147755859375,-0.202862626953125,1.2629611962890626
-0.6053476953125,-0.11732610107421874,1.097068740234375
-0.46164927734375,-0.0327699365234375,0.8309035107421875
-0.1365650390625,0.00325834228515625,0.733334169921875
-0.10811712890625,-0.09183670654296874,0.8417172412109375
-0.44511544921875,-0.00360418701171875,0.887675595703125
-0.51659994140625,0.07482471923828125,0.832623876953125
-0.50201126953125,0.05374695068359375,0.77609755859375
-0.34785763671875003,-0.10213050048828125,0.76823302734375
-0.14847912109375,0.0064445166015625,0.89996392578125
-0.2644590625,0.15570452880859376,1.019406494140625
-0.56133853515625,0.08609887451171874,1.1290183984375
-0.70236236328125,-0.02272123291015625,1.1919346484375
-0.61483033203125,0.01110123291015625,1.033169423828125
-0.633066171875,-0.02223105224609375,0.925032119140625
-0.30895451171875,0.1584005224609375,0.8682600341796876
-0.04781728515625,-0.014633251953124999,0.988931435546875
-0.1550440234375,0.03953171142578125,1.3435726416015625
-0.47088876953125003,-0.21634259521484375,1.543380888671875
-0.53167490234375,-0.2327636474609375,1.3892852294921876
-0.39843169921875,-0.186196484375,1.0525849853515625
-0.4020788671875,-0.079337099609375,0.867522734375
-0.43101306640625,-0.149923115234375,0.7060540771484375
-0.4507077734375,-0.09771887451171875,0.7365291357421875
-0.37022693359375003,-0.1455114892578125,0.746114033203125
-0.5693623046875,-0.09036616455078125,0.951574912109375
-0.5790880859375,0.02335574951171875,0.9257694189453125
-0.502740703125,0.0280124658203125,0.8294289111328125
-0.5032269921875,0.00472888427734375,0.7620888623046875
-0.2873146484375,-0.0249270458984375,0.7456225
-0.09158330078125,-0.0161037939453125,0.950591845703125
-0.35952857421875,0.0030132519531249997,1.234698037109375
-0.640846796875,-0.0141430712890625,1.381174931640625
-0.5224354101562501,-0.07320984130859375,1.132459130859375
-0.61239888671875,0.01183650390625,0.9992536328125
-0.5236511328125,-0.038161923828125,0.8498275390625
-0.3777644140625,0.02139502685546875,0.8638362353515625
-0.3889490625,0.095167216796875,0.743164833984375
-0.52535314453125,-0.01879978759765625,0.5925099072265625
-0.2688356640625,-0.047965537109375,0.560314482421875
-0.160393203125,-0.04134809814453125,0.7534870312499999
-0.13632189453125,0.04345315673828125,1.1253318994140624
-0.47429279296875,-0.028113220214843748,1.4168110888671874
-0.66516125,-0.08963089355468751,1.56255068359375
-0.479398828125,0.00963069091796875,1.3298097119140624
-0.5032269921875,-0.08742508056640624,1.00023669921875
-0.321841171875,-0.18644157470703124,0.7134270751953125
-0.20586123046875,-0.051886982421875,0.5785012109375
-0.199296328125,-0.07958218994140626,0.588823408203125
-0.10811712890625,-0.1043363134765625,0.6863927490234375
-0.46797103515625,-0.09796396484375,0.8908705615234375
-0.607779140625,-0.10850284912109374,0.9198710205078124
-0.47332021484375,-0.13399224365234375,0.7232577392578124
-0.3884627734375,0.0652661962890625,0.6613245556640625
-0.1900568359375,0.05668803466796875,0.58538267578125
-0.13802390625,0.08119706787109375,0.6288833642578124
-0.17619759765625,0.18217428466796876,0.9326508837890625
-0.39210994140625,0.126538779296875,1.2676307617187499
-0.60753599609375,0.08634396484375,1.5156092626953126
-0.70090349609375,0.17237067138671874,1.5426435888671874
-0.47672423828125,0.1721255810546875,1.1459762939453124
-0.33472783203125,-0.020515419921875,0.9056165576171875
-0.5112507617187501,0.02286556884765625,0.9218371533203125
-0.4555706640625,0.08634396484375,0.9621428759765625
-0.38384302734375,-0.0641414990234375,0.8825144970703125
-0.358799140625,-0.06267095703125,0.834590009765625
-0.28755779296875,-0.075415654296875,0.6819689501953125
-0.40694175781249997,-0.0881603515625,0.5959506396484375
-0.3855450390625,-0.06340622802734375,0.502313564453125
-0.31478998046875,-0.07271966064453125,0.451194111328125
-0.14969484375,-0.073454931640625,0.562280615234375
-0.21947732421875,-0.09845414550781251,0.896523193359375
-0.34591248046875,-0.0411030078125,1.1189419677734376
-0.64741169921875,0.0652661962890625,1.209138310546875
-0.5518558984375,0.1260485986328125,1.1985703466796875
-0.486206875,-0.02664267822265625,1.0329236572265625
-0.30020130859375,0.1471263671875,0.9773804052734375
-0.11152115234375,0.1329111279296875,0.9414984814453125
-0.22701480468750002,-0.07835673828125,1.1739936865234375
-0.37363095703125,-0.1347275146484375,1.2629611962890626
-0.39162365234375,-0.2920755078125,1.0053977978515625
-0.4789125390625,-0.21438187255859376,0.8466325732421875
-0.4108320703125,-0.0915916162109375,0.7409529345703125
-0.25886673828125,-0.06095532470703125,0.7630719287109375
-0.2143712890625,-0.06928839599609375,0.93142205078125
-0.4900971875,-0.00850599365234375,1.062661416015625
-0.504685859375,0.0064445166015625,0.95304951171875
-0.6209089453125,-0.0994345068359375,0.835573076171875
-0.51173705078125,-0.08889562255859375,0.68172318359375
-0.31527626953125,-0.1513936572265625,0.5364751220703124
-0.07942607421875,-0.0582593310546875,0.525907158203125
-0.056084199218750005,0.06355056396484375,0.698926845703125
-0.09255587890625,0.083402880859375,0.922574453125
-0.50881931640625,-0.03129939453125,1.104933271484375
-0.7055232421875,-0.0332601171875,1.2548508984375
-0.7162216015625,0.077520712890625,1.108865537109375
-0.63209359375,0.064776015625,1.0171945947265626
-0.2902323828125,0.14688127685546876,1.0334151904296875
-0.03663263671875,0.05472731201171875,1.1130435693359375
-0.30846822265625,-0.15286419921875,1.24403716796875
-0.55161275390625,-0.13350206298828124,1.3300554785156251
-0.45240978515625,-0.1474722119140625,1.168832587890625
-0.2746711328125,-0.046740085449218746,0.950591845703125
-0.37995271484375,0.12188206298828125,0.9601767431640625
-0.386031328125,0.17384121337890626,0.964354775390625
-0.49860724609375,-0.0435539111328125,0.8874298291015625
-0.60559083984375,-0.0406128271484375,0.8633447021484375
-0.6267444140625,-0.046740085449218746,0.7987080859375
-0.6228541015625,-0.04183827880859375,0.735300302734375
-0.316005703125,0.08021670654296875,0.9238032861328125
-0.26713365234374997,-0.00801581298828125,1.3612678369140625
-0.6714830078125,-0.01634888427734375,1.605314072265625
-0.56474255859375,0.04688442138671875,1.6733914208984375
-0.56620142578125,-0.044534272460937496,1.3396403759765625
-0.48547744140625,-0.09526797119140624,1.0339067236328126
-0.3427516015625,-0.1504132958984375,0.9434646142578125
-0.41593810546875,-0.1435507666015625,1.0457035205078125
-0.2610550390625,-0.217568046875,0.93928658203125
-0.4964189453125,-0.15286419921875,0.91176072265625
-0.60899486328125,-0.14036459228515624,0.8117337158203125
-0.5820058203125,-0.154824921875,0.7974792529296875
-0.3612305859375,-0.0621807763671875,0.7910893212890625
-0.39065107421875,-0.06977857666015624,0.8304119775390625
-0.48742259765625,-0.149923115234375,0.911269189453125
-0.4020788671875,0.0280124658203125,0.87243806640625
-0.25059982421875,-0.0337502978515625,0.9085657568359375
-0.3262177734375,-0.13105115966796876,1.0700344140625
-0.4283384765625,-0.07664110595703125,1.1543323583984375
-0.2347954296875,0.06649164794921875,1.0815854443359374
-0.31333111328125,0.1133039013671875,1.074458212890625
-0.3767918359375,-0.0435539111328125,1.0638902490234374
-0.5197608203125,0.00227798095703125,1.1447474609375
-0.63719962890625,0.0642858349609375,1.073475146484375
-0.6612709375,0.1152646240234375,0.916184521484375
-0.426879609375,0.130460224609375,0.7456225
-0.29752671875000003,-0.042328459472656246,0.6534600244140625
-0.2513292578125,-0.15703073486328126,0.5509753515625
-0.14507509765624998,-0.12614935302734376,0.545076953125
-0.1511537109375,-0.1768830517578125,0.6043067041015625
-0.41496552734375003,-0.108747939453125,0.7456225
-0.60996744140625,-0.0906112548828125,0.8623616357421875
-0.52097654296875,-0.21095060791015624,0.8576920703124999
-0.37898013671874997,0.0044837939453125,0.991880634765625
-0.22628537109375,0.18070374267578124,1.1105859033203125
-0.33253953125,0.269671533203125,1.2310115380859374
-0.531918046875,0.02727719482421875,1.2275708056640624
-0.68242451171875,-0.0724745703125,0.968287041015625
-0.56133853515625,-0.0881603515625,0.5802215771484375
-0.37557611328125,-0.16928525146484374,0.4573382763671875
-0.13389044921874999,-0.1347275146484375,0.3772183642578125
-0.07213173828125,-0.11340465576171875,0.48609296874999997
-0.16841697265625,-0.2582530419921875,0.710723642578125
-0.5224354101562501,-0.18521612304687501,0.88030259765625
-0.68534224609375,-0.04821062744140625,1.0149826953125
-0.61628919921875,0.0623251123046875,0.89209939453125
-0.32159802734375,0.07139345458984375,0.8181236474609375
-0.12124693359375,0.0250713818359375,0.9095488232421876
-0.26421591796875,0.13732275390625,0.9203625537109374
-0.5255962890625,0.1427147412109375,0.8746499658203125
-0.543588984375,0.07972652587890625,0.9356000830078125
-0.66054150390625,0.00619942626953125,1.0299744580078125
-0.5878412890625,0.028257556152343752,0.8299204443359375
-0.349073359375,0.07261890625,0.6834435498046875
-0.29679728515625,-0.040122646484374996,0.6475616259765625
-0.53070232421875,-0.085219267578125,0.52639869140625
-0.34810078125,-0.14698203125,0.492482900390625
-0.15577345703125,-0.0121823486328125,0.6043067041015625
-0.11857234375,0.081442158203125,0.8294289111328125
-0.30603677734375,-0.0396324658203125,1.049881552734375
-0.45143720703125,0.00423870361328125,1.1676037548828124
-0.39478453125,-0.0464949951171875,1.3492252734375
-0.55793451171875,-0.008996174316406251,1.3779799658203125
-0.4468174609375,-0.163648173828125,1.2673849951171876
-0.38432931640625,-0.18742193603515625,1.15556119140625
-0.34007701171875,-0.12418863037109375,0.99237216796875
-0.2425760546875,-0.15310928955078124,0.723503505859375
-0.24184662109375,-0.149923115234375,0.68172318359375
-0.38530189453125,-0.22026404052734375,0.848352939453125
-0.3476144921875,-0.24771415771484376,1.159984990234375
-0.5051721484375,-0.2450181640625,1.4497438134765626
-0.48985404296875,-0.13644314697265625,1.4173026220703124
-0.4857205859375,0.0191892138671875,1.124594599609375
-0.46456701171875,-0.05017135009765625,0.910286123046875
-0.51708623046875,0.05668803466796875,0.9245405859375
-0.613614609375,0.0593840283203125,1.0447204541015624
-0.5562325,0.09051050048828126,1.027271025390625
-0.37752126953125,-0.13840386962890625,1.0368559228515626
-0.18008791015625,-0.03546593017578125,0.95501564453125
-0.337402421875,-0.11536537841796875,1.007609697265625
-0.4925286328125,-0.16683434814453124,1.029237158203125
-0.46845732421874997,-0.2523708740234375,0.9085657568359375
-0.504685859375,-0.0006631030273437505,0.9601767431640625
-0.52511,0.0255615625,1.0786362451171876
-0.5440752734375,-0.171491064453125,1.1268064990234374
-0.5168430859375,-0.03105430419921875,1.0383305224609374
-0.43636224609375,-0.0994345068359375,0.8638362353515625
-0.391866796875,-0.09428760986328125,0.7942842871093749
-0.34202216796875,-0.08546435791015625,0.725961171875
-0.16720125,-0.1445311279296875,0.760860029296875
-0.41593810546875,-0.1857063037109375,0.87440419921875
-0.40937320312500003,0.08242251953125,0.93732044921875
-0.47404964843749997,0.16991976806640624,0.9609140429687499
-0.6530040234375,0.0770305322265625,1.0284998583984375
