ax,ay,az
-0.26129818359375,-0.0180645166015625,0.958456376953125
-0.2736985546875,-0.006790361328125,0.7910893212890625
-0.3242726171875,0.06158984130859375,0.8655566015625
-0.35393625,-0.011201987304687501,0.8569547705078124
-0.314060546875,0.01306195556640625,0.867031201171875
-0.2892598046875,0.03953171142578125,0.8078014501953125
-0.206104375,0.1044806494140625,0.9188879541015624
-0.45824525390625,0.050070595703125,0.9950756005859375
-0.28804408203125,0.07923634521484375,1.0525849853515625
-0.31673513671875,0.03364954345703125,1.0348897900390626
-0.2347954296875,0.02335574951171875,1.11623853515625
-0.27807515625,0.174576484375,1.1209081005859376
-0.37314466796875,0.11771552734375,1.0919076416015625
-0.30603677734375,0.05276658935546875,1.1656376220703124
-0.251815546875,0.030463369140625002,1.22044357421875
-0.3505322265625,-0.024436865234375,1.094119541015625
-0.34542619140624997,-0.063651318359375,0.7660211279296875
-0.26154132812499997,-0.05409279541015625,0.690079248046875
-0.22579908203125,0.019679394531249998,0.7448852001953125
-0.26154132812499997,0.00791505859375,0.8422087744140625
-0.32402947265625,0.03757098876953125,1.0781447119140626
-0.38287044921875,0.07678544189453125,1.3317758447265624
-0.3991611328125,-0.03840701416015625,1.1135351025390625
-0.2921775390625,0.04124734375,0.988931435546875
-0.34153587890625,0.093206494140625,0.911269189453125
-0.27637314453125,-0.08546435791015625,0.907336923828125
-0.29436583984375,0.12555841796875,0.8810398974609375
-0.24962724609375,-0.07051384765625,0.7812586572265625
-0.0072121484375,-0.06340622802734375,0.8569547705078124
-0.316005703125,0.0838930615234375,1.08871267578125
-0.2678630859375,0.1392834765625,1.2895039892578124
-0.21655958984375,0.15619470947265626,1.49570216796875
-0.5671740039062501,0.3417280908203125,1.6768321533203125
-0.6160460546875,0.31770923828125,1.4276248193359375
-0.249870390625,0.032424091796875,1.4200060546875
-0.531918046875,0.1505576318359375,1.5411689892578124
-0.46797103515625,-0.02517213623046875,1.135408330078125
-0.2036729296875,-0.04968116943359375,0.8500733056640625
-0.10301109375,-0.1170810107421875,0.621264599609375
-0.13826705078125,-0.16438344482421874,0.7399698681640625
-0.343237890625,-0.032279755859375,0.8938197607421875
-0.44803318359375,-0.06781785400390625,0.9503460791015625
-0.401592578125,-0.089140712890625,0.9518206787109375
-0.42955419921875,-0.10213050048828125,0.8616243359375
-0.17571130859375,-0.0553182470703125,0.831640810546875
-0.31770771484375,0.055462583007812497,1.0437373876953124
-0.32500205078125,0.0270321044921875,1.2777071923828125
-0.27005138671875,0.1829095556640625,1.319241748046875
-0.408400625,-0.0249270458984375,1.232731904296875
-0.28901666015625,-0.08619962890625,1.1329506640625
-0.31819400390625,-0.040122646484374996,0.8471241064453126
-0.240144609375,-0.13889405029296875,0.713672841796875
-0.21972046875,-0.18301031005859375,0.6406801611328125
-0.27442798828125,-0.0543378857421875,0.7409529345703125
-0.42809533203125,0.04198261474609375,0.822793212890625
-0.2289599609375,-0.09967959716796874,0.885709462890625
-0.16452666015625,0.04688442138671875,1.246494833984375
-0.6131283203125,0.22947671875,1.3824037646484375
-0.38141158203125003,-0.112669384765625,0.98057537109375
-0.10082279296875,-0.09232688720703125,0.654688857421875
-0.28220861328125,-0.0999246875,0.61094240234375
-0.1307295703125,-0.175412509765625,0.64633279296875
-0.18543708984375,-0.114630107421875,0.8427003076171875
-0.333512109375,-0.08423890625,0.9198710205078124
-0.3126016796875,-0.01732924560546875,0.9410069482421874
-0.25157240234375,-0.01046671630859375,1.0346440234375
-0.323786328125,0.09933375244140626,1.2113502099609375
-0.251815546875,0.16256705810546876,1.2705799609375
-0.25838044921875,0.30202345703125,1.284342890625
-0.335457265625,0.0250713818359375,1.161951123046875
-0.20440236328125,-0.03889719482421875,0.973202373046875
-0.23455228515625,0.02041466552734375,0.7792925244140625
-0.25983931640625,0.12482314697265626,0.755944697265625
-0.31235853515625,0.065756376953125,0.88816712890625
-0.4302836328125,0.0652661962890625,0.883743330078125
-0.21461443359375,0.05913893798828125,0.7704449267578125
-0.14993798828125,-0.118551552734375,0.781504423828125
-0.26421591796875,-0.00581,1.0058893310546875
-0.221665625,0.1309504052734375,1.03562708984375
-0.38092529296875,0.07874616455078125,1.17325638671875
-0.43927998046875,0.25104466796875,1.3091653173828126
-0.3962433984375,0.06747200927734374,1.0294829248046875
-0.16938955078125,0.16869431640625,0.890624794921875
-0.27637314453125,0.19589934326171876,0.8557259375
-0.28585578125,0.0436982470703125,0.8466325732421875
-0.1997826171875,0.2231043701171875,1.026287958984375
-0.39089421875,0.126538779296875,1.03366095703125
-0.36828177734375,-0.01291761962890625,1.1572815576171875
-0.30141703125,-0.050661530761718754,1.1454847607421874
-0.15066742187499998,-0.04183827880859375,1.1390948291015626
-0.31722142578125,0.0162481298828125,1.154578125
-0.32013916015625,0.14688127685546876,0.925032119140625
-0.13291787109375,0.00816014892578125,0.841471474609375
-0.4079143359375,-0.02223105224609375,0.8987350927734374
-0.44754689453125,-0.0651218603515625,0.8004284521484375
-0.19564916015625,0.00521906494140625,0.6785282177734375
-0.17717017578125,0.07139345458984375,0.7232577392578124
-0.1832487890625,0.11845079833984375,0.9311762841796875
-0.35272052734375,0.1240878759765625,1.0938737744140625
-0.2620276171875,0.09590248779296875,1.0442289208984374
-0.263486484375,0.18511536865234374,1.028254091796875
-0.22142248046875002,-0.02174087158203125,0.9724650732421874
-0.2484115234375,0.12874459228515625,0.9537868115234375
-0.3271903515625,0.008895419921875,0.79182662109375
-0.1073876953125,-0.08301345458984374,0.849336005859375
-0.299471875,-0.0670825830078125,0.8301662109375
-0.22944625,-0.1200220947265625,0.8510563720703125
-0.34542619140624997,-0.0729647509765625,0.9434646142578125
-0.2722396875,-0.03840701416015625,0.853268271484375
-0.15771861328125,-0.06659240234375,0.858183603515625
-0.24865466796875,-0.0180645166015625,1.1204165673828126
-0.22482650390625,-0.09428760986328125,1.1604765234375
-0.2931501171875,0.020659755859375,0.980083837890625
-0.20926525390625,0.00570924560546875,1.0432458544921874
-0.28391062499999997,-0.083258544921875,0.9051250244140625
-0.300444453125,0.0172284912109375,0.915201455078125
-0.2756437109375,0.0711483642578125,0.9513291455078126
-0.33278267578125,-0.09232688720703125,0.8102591162109375
-0.19346085937500002,-0.07468038330078125,0.7443936669921875
-0.13291787109375,-0.0063001806640625,0.686638515625
-0.1424005078125,0.00276816162109375,0.6829520166015625
-0.2377131640625,0.0976181201171875,1.0034316650390624
-0.28269490234375,0.16624341308593749,1.2270792724609374
-0.28561263671875,0.118695888671875,1.1803836181640626
-0.2620276171875,0.07065818359375,1.0422627880859374
-0.25449013671875,0.10374537841796876,0.871946533203125
-0.2853694921875,0.02580665283203125,0.82525087890625
-0.30117388671875,0.0686974609375,0.9795923046875
-0.42080099609375,0.020659755859375,0.8731753662109375
-0.25886673828125,-0.004829638671875,0.7436563671875001
-0.15869119140625,-0.12026718505859375,0.7099863427734375
-0.1005796484375,-0.0945327001953125,0.6650110546875
-0.21364185546875,-0.05409279541015625,0.5920183740234375
-0.22920310546875,-0.034240478515625,0.7321053369140624
-0.21655958984375,0.1201664306640625,0.8549886376953125
-0.33667298828125003,-0.0371815625,0.9488714794921875
-0.21558701171875,0.09026541015625,1.0865007763671874
-0.2124261328125,0.053992041015625,1.0437373876953124
-0.23917203125,0.06796218994140625,1.0830600439453124
-0.31576255859375,0.04443351806640625,1.080356611328125
-0.407428046875,0.05031568603515625,0.9906518017578125
-0.2464663671875,0.02531647216796875,0.878827998046875
-0.23114826171875,0.009140510253906251,0.9867195361328125
-0.2912049609375,0.09492212646484376,0.914709921875
-0.12951384765625001,-0.03693647216796875,0.8540055712890625
-0.25740787109375,0.01894412353515625,0.9097945898437501
-0.4380642578125,0.09541230712890625,0.9990078662109375
-0.31333111328125,0.067717099609375,1.0759328125
-0.17303671874999998,0.148106728515625,1.0560257177734376
-0.32013916015625,0.142224560546875,1.0776531787109376
-0.28172232421875,0.05325677001953125,1.195375380859375
-0.27394169921875,0.0025230712890624996,1.2885209228515624
-0.32646091796875,-0.044534272460937496,1.1290183984375
-0.2600824609375,-0.098944326171875,0.967303974609375
-0.244034921875,-0.052867343750000004,0.837539208984375
-0.21996361328125,-0.00360418701171875,0.8348357763671875
-0.31989601562500003,-0.077376376953125,0.8962774267578125
-0.30603677734375,0.021640117187500002,1.0255506591796875
-0.302389609375,-0.0161037939453125,0.9444476806640625
-0.20877896484375,-0.02321141357421875,0.885709462890625
-0.13972591796875,-0.03154448486328125,0.8476156396484374
-0.1399690625,0.0843832421875,0.77216529296875
-0.288773515625,0.05276658935546875,0.7979707861328125
-0.22142248046875002,0.0427178857421875,0.9508376123046876
-0.3033621875,0.10570610107421875,1.0184234277343749
-0.30068759765624997,0.07482471923828125,1.2192147412109375
-0.349073359375,0.07286399658203124,1.3814206982421875
-0.33521412109375,0.0329142724609375,1.228799638671875
-0.31333111328125,0.15521434814453125,1.013508095703125
-0.23017568359375,-0.0190448779296875,0.9120064892578125
-0.22190876953125,0.00570924560546875,1.014491162109375
-0.310170234375,-0.03399538818359375,1.1592476904296876
-0.25157240234375,-0.16340308349609375,1.190460048828125
-0.2454937890625,-0.13056097900390626,1.1213996337890624
-0.24938410156250002,0.019679394531249998,1.0506188525390625
-0.2688356640625,-0.1273748046875,0.8087845166015625
-0.09085386718749999,0.01110123291015625,0.9552614111328125
-0.34007701171875,0.07433453857421875,1.1823497509765626
-0.43927998046875,-0.0043394580078125,1.1690783544921874
-0.2620276171875,-0.030319033203124998,0.9835245703125
-0.15771861328125,-0.128355166015625,0.8972604931640625
-0.32208431640625,-0.05164189208984375,0.9857364697265625
-0.20732009765625,0.01698340087890625,1.01399962890625
-0.31673513671875,-0.0631611376953125,0.882760263671875
-0.21899103515625,-0.01561361328125,0.769707626953125
-0.18981369140625,0.015022678222656249,0.5851369091796875
-0.20026890625,-0.0013983740234375002,0.578992744140625
-0.16015005859375,-0.028113220214843748,0.781012890625
-0.22823052734375,0.06894255126953125,0.983033037109375
-0.28512634765625,0.124578056640625,1.062661416015625
-0.3155194140625,0.19344843994140626,1.234698037109375
-0.39065107421875,0.21550656982421876,1.282868291015625
-0.31722142578125,-0.073454931640625,1.2138078759765625
-0.19273142578125,0.08462833251953125,1.1975872802734375
-0.327676640625,-0.15114856689453124,1.17129025390625
-0.29096181640625,-0.19771572998046874,0.9469053466796875
-0.1764407421875,-0.20310771728515625,0.716622041015625
-0.29922873046875,-0.1915884716796875,0.611433935546875
-0.20440236328125,-0.16193254150390626,0.5644925146484375
-0.09912078125,-0.0219859619140625,0.656654990234375
-0.17814275390625,0.04247279541015625,0.8461410400390625
-0.15188314453125001,-0.01683906494140625,1.173747919921875
-0.35904228515625003,0.2260454541015625,1.355615205078125
-0.42809533203125,0.2020266015625,1.2246216064453126
-0.296554140625,0.17972338134765625,1.1027213720703124
-0.28707150390625,0.09639266845703125,0.9306847509765624
-0.30068759765624997,0.065756376953125,0.9520664453125
-0.35077537109375,-0.04036773681640625,1.0270252587890625
-0.2785614453125,0.03536517578125,1.0184234277343749
-0.27734572265625,0.03168882080078125,0.8245135791015625
-0.2143712890625,-0.1013952294921875,0.72497810546875
-0.15358515625,-0.0371815625,0.8156659814453124
-0.29047552734375,0.052031318359375,0.9587021435546875
-0.16185207031249998,0.00472888427734375,1.031203291015625
-0.26372962890625,0.0182088525390625,1.07101748046875
-0.368524921875,-0.03742665283203125,0.9520664453125
-0.2056180859375,-0.01683906494140625,0.8537598046875
-0.1404553515625,-0.08619962890625,0.8871840625
-0.2065906640625,-0.0033590966796874996,1.2103671435546874
-0.5139253515625,0.08119706787109375,1.374785
-0.55842080078125,0.0907555908203125,1.016457294921875
-0.284883203125,-0.1013952294921875,0.7593854296875
-0.25011353515625,-0.1660990771484375,0.66206185546875
-0.14945169921875,-0.04723026611328125,0.550483818359375
-0.02058509765625,-0.03203466552734375,0.5866115087890625
0.00956482421875,-0.057769150390625,0.7237492724609375
-0.17303671874999998,0.14345001220703124,1.0228472265625
-0.374360390625,0.2074185888671875,1.1459762939453124
-0.25692158203125,0.0642858349609375,1.4015735595703125
-0.32257060546875,0.09394176513671874,1.614653203125
-0.517329375,0.07188363525390624,1.470633974609375
-0.24768208984375,-0.10311086181640625,1.19684998046875
-0.18981369140625,0.03659062744140625,0.9901602685546875
-0.28196546875,0.15815543212890626,0.9351085498046875
-0.20148462890625,0.026051743164062502,1.0307117578125
-0.12465095703125,0.00987578125,1.1700614208984375
-0.314060546875,0.0476196923828125,1.110831669921875
-0.1929745703125,0.07433453857421875,1.0385762890625
-0.16744439453124998,-0.11193411376953125,0.90389619140625
-0.23114826171875,-0.073454931640625,0.8795652978515625
-0.22385392578125,-0.04330882080078125,0.6996641455078125
-0.14750654296875,-0.183255400390625,0.604552470703125
-0.107873984375,-0.196980458984375,0.7861739892578125
-0.0568136328125,0.0289928271484375,1.14179826171875
-0.43247193359375,0.02237538818359375,1.5544403857421876
-0.68631482421875,0.13021513427734374,1.4556422119140624
-0.3670660546875,0.10913736572265625,0.94125271484375
-0.22628537109375,0.08242251953125,0.7591396630859375
-0.221665625,-0.07026875732421875,0.6844266162109375
-0.09839134765625,-0.14918784423828124,0.6770536181640625
-0.046358417968749996,-0.02664267822265625,0.6092220361328125
-0.063135390625,-0.0249270458984375,0.6932742138671875
-0.13923962890625,0.01453249755859375,0.7822417236328125
-0.23139140625,0.11747043701171875,0.99827056640625
-0.35272052734375,0.25496611328125,1.276969892578125
-0.47332021484375,0.20178151123046875,1.2934362548828124
-0.2022140625,0.063795654296875,1.16244265625
-0.2707808203125,0.0093856005859375,1.1027213720703124
-0.31576255859375,-0.0562986083984375,1.121645400390625
-0.19662173828125,0.01306195556640625,1.1037044384765624
-0.1321884375,0.07139345458984375,0.94518498046875
-0.30627992187499997,-0.1062970361328125,0.8859552294921875
-0.2561921484375,-0.1386489599609375,0.9124980224609375
-0.2056180859375,-0.1268846240234375,0.989914501953125
-0.3194097265625,-0.0249270458984375,1.00810123046875
-0.12756869140625,0.0338946337890625,0.8982435595703124
-0.07845349609375,-0.04134809814453125,0.8301662109375
-0.066053125,0.07335417724609375,0.995812900390625
-0.17619759765625,0.1329111279296875,1.260257763671875
-0.34810078125,0.14933218017578126,1.4711255078125
-0.4186126953125,0.08168724853515624,1.415582255859375
-0.22531279296875,0.104970830078125,1.10837400390625
-0.2357680078125,0.10570610107421875,1.0098215966796875
-0.2464663671875,-0.0327699365234375,0.9874568359375
-0.10301109375,-0.03399538818359375,0.8662939013671875
-0.11930177734375,-0.03644629150390625,0.7773263916015625
-0.12221951171875,-0.11095375244140625,0.7399698681640625
-0.11152115234375,-0.05752406005859375,0.71514744140625
-0.03322861328125,-0.0141430712890625,0.835573076171875
-0.19078626953125,0.17727247802734375,1.1268064990234374
-0.32840607421875,0.1633023291015625,1.1533492919921875
-0.1229489453125,-0.0249270458984375,1.1066536376953124
-0.39356880859375,0.019434304199218752,1.0506188525390625
-0.3515048046875,-0.06389640869140625,0.9183964208984375
-0.18227621093750002,-0.03742665283203125,0.8058353173828126
-0.30555048828125,-0.0651218603515625,0.875387265625
-0.22871681640625,-0.1425704052734375,0.9380577490234375
-0.08988128906250001,-0.030073942871093752,1.032677890625
-0.191515703125,0.04786478271484375,0.990897568359375
-0.3660934765625,0.12163697265625,1.056271484375
-0.22774423828125,0.06158984130859375,1.08084814453125
-0.22482650390625,0.0917359521484375,1.0582376171875
-0.18981369140625,0.03315936279296875,1.0457035205078125
-0.23819945312500002,0.04737460205078125,0.977134638671875
-0.23455228515625,0.00865032958984375,0.7950215869140624
-0.1949197265625,0.0172284912109375,0.7974792529296875
-0.3106565234375,-0.10262068115234375,0.9007012255859375
-0.16136578125,0.06943273193359376,1.2550966650390625
-0.3612305859375,0.0564429443359375,1.49570216796875
-0.41885583984375,0.101049384765625,1.5158550292968749
-0.3456693359375,0.01698340087890625,1.0570087841796876
-0.22750109375,0.11158826904296874,0.7790467578125
-0.1521262890625,0.0008074389648437498,0.614383134765625
-0.043683828125000004,0.019434304199218752,0.7153932080078125
-0.06970029296875,0.07972652587890625,0.99433830078125
-0.20415921875,0.05668803466796875,1.213562109375
-0.329621796875,-0.0013983740234375002,1.1862820166015624
-0.31770771484375,0.0020328906249999995,0.8898874951171875
-0.20342978515625,-0.05801424072265625,0.738249501953125
-0.2450075,0.0633054736328125,0.82918314453125
-0.3495596484375,0.0995788427734375,1.04545775390625
-0.29728357421875,0.0069346972656249995,1.025304892578125
-0.26859251953125,0.05374695068359375,1.098051806640625
-0.23455228515625,-0.051886982421875,1.1002637060546876
-0.1399690625,0.07482471923828125,1.1110774365234375
-0.2333365625,-0.0749254736328125,1.031203291015625
-0.1890842578125,-0.04085791748046875,0.9191337207031249
-0.33910443359375,-0.0661022216796875,0.7593854296875
-0.170118984375,-0.028113220214843748,0.600620205078125
-0.08234380859375,0.1172253466796875,0.585874208984375
-0.04465640625,-0.04306373046875,0.7232577392578124
-0.14702025390625,0.07090327392578125,1.038084755859375
-0.2873146484375,0.0829127001953125,1.354632138671875
-0.3038484765625,0.2015364208984375,1.3710985009765624
-0.292663828125,0.19491898193359375,1.1238572998046874
-0.16549923828125,0.00865032958984375,0.9857364697265625
-0.18154677734375,0.0064445166015625,0.9397781152343749
-0.19516287109375,0.0466393310546875,1.08084814453125
-0.3145468359375,-0.07517056396484376,1.14671359375
-0.26056875,-0.06487677001953125,1.181612451171875
-0.304334765625,0.0672269189453125,1.0425085546875
-0.18543708984375,0.0897752294921875,0.8210728466796875
-0.18154677734375,0.0515411376953125,0.8476156396484374
-0.1589343359375,-0.0641414990234375,0.7070371435546875
-0.14167107421875,0.009140510253906251,0.9990078662109375
-0.20415921875,0.00399361328125,1.325140146484375
-0.461892421875,0.00717978759765625,1.2678765283203126
-0.20440236328125,0.14295983154296876,1.1685868212890624
-0.22701480468750002,0.00619942626953125,1.0260421923828125
-0.29582470703125,-0.122472998046875,1.053813818359375
-0.32159802734375,0.306925263671875,1.0896957421875
-0.317950859375,-0.1406096826171875,0.9729566064453125
-0.35101851562499997,0.04247279541015625,1.0491442529296875
-0.450221484375,-0.06683749267578125,0.77019916015625
-0.0918264453125,-0.16291290283203125,0.596687939453125
-0.12319208984375,0.00521906494140625,0.71907970703125
-0.1958923046875,0.210849853515625,1.00810123046875
-0.18859796875,0.2554562939453125,1.2138078759765625
-0.228473671875,0.036345537109375,1.1916888818359375
-0.25449013671875,0.140263837890625,0.94518498046875
-0.21996361328125,-0.03546593017578125,0.977626171875
-0.25351755859375,-0.2082546142578125,0.9336339501953125
-0.19953947265625,0.02139502685546875,1.0835515771484374
-0.269321953125,0.118695888671875,1.0648733154296874
-0.32743349609375,0.0172284912109375,1.1528577587890625
-0.39989056640625,0.14933218017578126,1.348733740234375
-0.3894353515625,-0.016593974609375,1.136391396484375
-0.055354765624999996,0.14737145751953126,1.0756870458984376
-0.17084841796875,0.2172222021484375,1.0122792626953125
-0.159420625,-0.122472998046875,0.8564632373046875
-0.0558410546875,0.101049384765625,0.89209939453125
-0.288773515625,-0.12369844970703125,1.1317218310546875
-0.4215304296875,-0.13742350830078126,1.24010490234375
-0.2571647265625,-0.06046514404296875,0.980083837890625
-0.28269490234375,-0.0190448779296875,0.6976980126953125
-0.1667149609375,-0.0729647509765625,0.5625263818359375
-0.11589775390625,-0.10899302978515625,0.5502380517578125
-0.09425789062500001,-0.1513936572265625,0.672384052734375
-0.17911533203125,-0.0837487255859375,0.780521357421875
-0.22044990234375,0.06281529296875,0.9552614111328125
-0.3573402734375,-0.13497260498046876,1.0575003173828126
-0.20391607421875,0.02531647216796875,1.1720275537109375
-0.2795340234375,0.3101114379882812,1.2757410595703125
-0.1783858984375,0.20815385986328125,1.2496897998046874
-0.23601115234375,0.26280900390625,1.327106279296875
-0.4691867578125,0.030708459472656248,1.1789090185546875
-0.1628246484375,-0.11830646240234374,0.9402696484374999
-0.16452666015625,-0.0749254736328125,0.6623076220703125
-0.11346630859375,-0.0553182470703125,0.5173053271484375
-0.16112263671875,-0.055808427734375,0.6669771875
-0.31478998046875,0.10521592041015625,0.901438525390625
-0.3894353515625,0.0012976196289062499,0.8943112939453125
-0.28464005859375,-0.1425704052734375,0.9341254833984375
-0.2639727734375,-0.00311400634765625,0.7947758203124999
-0.14993798828125,-0.0906112548828125,0.636993662109375
-0.0723748828125,-0.06928839599609375,0.600128671875
-0.08283009765625,0.015022678222656249,0.9311762841796875
-0.3096839453125,0.08756941650390625,1.140323662109375
-0.46310814453125,0.08756941650390625,1.1543323583984375
-0.2435486328125,0.08707923583984375,0.9675497412109375
-0.12027435546875,0.18756627197265624,0.78986048828125
-0.21850474609375,0.25276030029296875,0.978117705078125
-0.27929087890625,0.14737145751953126,1.092153408203125
-0.30166017578125,-0.057769150390625,1.0412797216796874
-0.2007551953125,0.0417375244140625,0.9016842919921875
-0.201241484375,0.00570924560546875,0.80067421875
0.0234240625,-0.03889719482421875,0.91176072265625
-0.18008791015625,0.016738310546875,1.0147369287109376
-0.19516287109375,0.02335574951171875,1.24403716796875
-0.33642984375,0.03512008544921875,1.307444951171875
-0.137051328125,-0.0866898095703125,1.2521474658203124
-0.17717017578125,-0.0464949951171875,0.9857364697265625
-0.2620276171875,0.11011772705078125,0.8967689599609375
-0.35806970703125,0.01551285888671875,1.027271025390625
-0.3096839453125,-0.079337099609375,1.06020375
-0.29144810546875,0.0152677685546875,1.040050888671875
-0.31673513671875,0.032424091796875,0.9405154150390624
-0.148722265625,-0.01634888427734375,0.9149556884765625
-0.221665625,-0.0406128271484375,0.7384952685546875
-0.1866528125,0.00865032958984375,0.6519854248046875
-0.10714455078125,0.07065818359375,0.636010595703125
-0.1978374609375,0.10962754638671875,0.8962774267578125
-0.35612455078125,0.16011615478515626,1.203239912109375
-0.36779548828124997,0.1760470263671875,1.15949345703125
-0.16744439453124998,0.06453092529296875,1.1489254931640625
-0.21364185546875,0.21109494384765626,1.0771616455078126
-0.417153828125,0.1378129345703125,1.1091113037109375
-0.40645546875,-0.01193725830078125,0.9591936767578125
-0.2678630859375,0.00791505859375,0.86359046875
-0.25059982421875,-0.13644314697265625,0.678773984375
-0.2065906640625,-0.10556176513671875,0.6967149462890625
-0.10495625,-0.00777072265625,0.7915808544921875
-0.06483740234375,0.055462583007812497,0.8498275390625
-0.205131796875,-0.10801266845703125,1.081339677734375
-0.3690112109375,0.0608545703125,1.359547470703125
-0.42858162109375,0.2787398754882813,1.4121415234375
-0.4701593359375,-0.006790361328125,1.292698955078125
-0.2065906640625,0.18805645263671875,1.0167030615234376
-0.022287109375,0.111833359375,1.1435186279296874
-0.20099833984375,-0.03644629150390625,1.445074248046875
-0.2834243359375,0.21158512451171874,1.654467392578125
-0.4614061328125,0.2182025634765625,1.332021611328125
-0.19467658203125,0.01012087158203125,1.1447474609375
-0.370470078125,0.236339248046875,1.056763017578125
-0.3889490625,-0.02272123291015625,0.7724110595703125
-0.05365275390625,-0.1170810107421875,0.673367119140625
-0.08355953125,-0.1847259423828125,0.5640009814453125
-0.05462533203125,0.0270321044921875,0.6151204345703125
-0.09912078125,0.096147578125,0.5600687158203125
-0.057056777343750004,0.05864875732421875,0.71907970703125
-0.0509781640625,-0.0337502978515625,1.266156162109375
-0.448276328125,0.1819291943359375,1.6716710546875
-0.53216119140625,0.0868341455078125,1.4718628076171876
-0.39113736328125,0.04688442138671875,1.0806023779296874
-0.21169669921875,0.1348718505859375,0.678282451171875
-0.002835546875000001,-0.106787216796875,0.556382216796875
-0.051950742187499996,-0.1901179296875,0.70335064453125
-0.2056180859375,0.09933375244140626,0.8889044287109376
-0.31868029296875,-0.02125069091796875,0.884726396484375
-0.2445212109375,-0.25016506103515623,0.8262339453125
-0.08672041015625,-0.040122646484374996,0.580958876953125
0.023667207031249998,0.03315936279296875,0.4986270654296875
-0.13243158203125,-0.1210024560546875,0.8200897802734375
0.008592246093749999,0.050070595703125,1.203239912109375
-0.36439146484375,0.12629368896484375,1.4821850048828125
-0.66200037109375,0.146146005859375,1.4295909521484376
-0.4905834765625,0.20913422119140626,1.065610615234375
-0.21850474609375,0.15962597412109375,0.908319990234375
-0.1827625,0.24491740966796874,0.8884128955078126
-0.12659611328125,0.01649322021484375,0.979100771484375
-0.24695265625,0.01698340087890625,0.9513291455078126
-0.2163164453125,0.14124419921875,0.72891037109375
-0.25497642578125,0.024581201171875,0.50870349609375
-0.0587587890625,-0.13717841796875,0.39663392578125
-0.035903203125000005,0.013552136230468751,0.427600517578125
-0.0850183984375,0.0770305322265625,0.366650400390625
-0.19856689453125,-0.04870080810546875,0.55982294921875
-0.25740787109375,-0.03301502685546875,0.7173593408203125
-0.1851939453125,0.0059543359375,1.0014655322265624
-0.30652306640625,0.0427178857421875,1.4123872900390624
-0.35855599609375,0.16477287109375,1.7869355908203124
-0.34396732421875,0.0319339111328125,1.8208513818359375
-0.2503566796875,0.1652630517578125,1.3342335107421874
-0.21121041015625,0.11992134033203125,1.0958399072265625
-0.401592578125,0.20570295654296875,1.108865537109375
-0.33983386718749997,0.0770305322265625,1.021372626953125
-0.107873984375,0.0309535498046875,0.805098017578125
-0.20415921875,0.02531647216796875,0.62667146484375
-0.09134015625,-0.1062970361328125,0.47626230468749997
-0.05851564453125,-0.122472998046875,0.342073740234375
-0.07577890625,-0.1386489599609375,0.2897254541015625
-0.10033650390625,-0.147962392578125,0.41408335449218747
-0.11322316406249999,-0.11879664306640625,0.6372394287109375
-0.237226875,0.00791505859375,0.9719735400390626
-0.49228548828125,0.14786163818359374,1.47702390625
-0.4079143359375,0.21967310546875,1.8006985205078125
-0.4964189453125,0.210849853515625,1.70804451171875
-0.24379177734375002,-0.030073942871093752,1.146222060546875
-0.03711892578125,-0.12320826904296875,0.8913620947265625
-0.2999581640625,0.07580508056640625,0.8294289111328125
-0.1433730859375,-0.03742665283203125,0.7736398925781249
-0.0859909765625,0.00399361328125,0.8871840625
-0.05365275390625,0.1113431787109375,1.1970957470703125
-0.1346198828125,0.07825598388671876,1.275003759765625
-0.30166017578125,0.132420947265625,1.3534033056640624
-0.30846822265625,0.27628897216796877,1.3003177197265625
-0.41496552734375003,0.0397768017578125,1.339886142578125
-0.5985396484375,0.12433296630859375,1.3204705810546875
-0.2814791796875,0.0289928271484375,1.154086591796875
-0.049519296875,-0.00654527099609375,0.83704767578125
-0.08672041015625,-0.02076051025390625,0.6357648291015625
-0.05413904296875,-0.130315888671875,0.6210188330078125
-0.09790505859375,-0.0013983740234375002,0.936828916015625
-0.09061072265625,-0.12173772705078124,1.1233657666015624
-0.12902755859375,-0.01781942626953125,1.29122435546875
-0.1803310546875,-0.1111988427734375,1.31088568359375
-0.0577862109375,-0.05997496337890625,1.205206044921875
-0.23552486328125,0.06060947998046875,1.0653648486328124
-0.300444453125,-0.063651318359375,0.8254966455078125
-0.17814275390625,0.024581201171875,0.8672769677734375
-0.32013916015625,0.05668803466796875,1.081339677734375
-0.360744296875,0.1976149755859375,1.2745122265625
-0.3500459375,0.06943273193359376,1.3406234423828125
-0.22482650390625,0.13658748291015624,1.2472321337890624
-0.265431640625,0.2064382275390625,0.9778719384765625
-0.10471310546875,0.0221302978515625,0.9321593505859375
-0.21753216796875,0.087324326171875,0.9655836083984375
-0.12829812499999999,0.10423555908203125,1.1292641650390625
-0.19175884765625,-0.04330882080078125,1.1469593603515624
-0.14215736328125,0.05129604736328125,1.2108586767578124
-0.3344846875,0.10619628173828125,0.996795966796875
-0.2552195703125,-0.01169216796875,0.7736398925781249
-0.16258150390625,-0.040122646484374996,0.7684787939453125
-0.26761994140625,0.050070595703125,1.103950205078125
-0.50201126953125,-0.08938580322265625,1.3300554785156251
-0.34007701171875,-0.02149578125,1.1386032958984376
-0.27418484375,-0.05556333740234375,0.9016842919921875
-0.22725794921875,0.00963069091796875,0.8431918408203125
-0.15164,-0.0523771630859375,0.827708544921875
-0.11638404296875,0.1054610107421875,0.8834975634765625
-0.18543708984375,0.1079119140625,1.037101689453125
-0.22968939453125,0.12041152099609376,0.93338818359375
-0.1910294140625,0.16109651611328124,0.885709462890625
-0.32305689453124997,0.07433453857421875,0.8200897802734375
-0.27442798828125,0.11354899169921875,0.7827332568359375
-0.27053767578125,0.1123235400390625,0.8898874951171875
-0.20099833984375,0.08658905517578125,1.0874838427734375
-0.29387955078125,0.09810830078125,1.166374921875
-0.32086859375,-0.00997653564453125,1.0594664501953126
-0.18251935546875,-0.0347306591796875,1.00023669921875
-0.27880458984375,-0.09404251953125001,0.8726838330078125
0.0003253320312500002,-0.0749254736328125,1.0398051220703124
-0.236254296875,0.07139345458984375,1.251410166015625
-0.33278267578125,0.0142874072265625,1.3558609716796874
-0.28585578125,-0.14820748291015626,1.1290183984375
-0.1667149609375,-0.07443529296875,0.6451039599609375
-0.14945169921875,-0.063651318359375,0.47626230468749997
0.00810595703125,-0.013162709960937501,0.4371854150390625
0.00227048828125,-0.010221625976562499,0.53328015625
-0.08817927734375,0.00325834228515625,0.95698177734375
-0.39356880859375,0.0721287255859375,1.19488384765625
-0.35272052734375,0.09418685546875,1.32268248046875
-0.30506419921875,0.0985984814453125,1.3806833984375
-0.325731484375,0.081442158203125,1.15162892578125
-0.21607330078125,0.06257020263671875,0.92650671875
-0.172064140625,0.05423713134765625,0.777080625
-0.070916015625,0.01992448486328125,0.7281730712890625
0.009078535156249998,0.0427178857421875,0.8977520263671875
-0.0422249609375,0.08168724853515624,1.205697578125
-0.37363095703125,0.0201695751953125,1.4448284814453125
-0.41618125,0.17040994873046875,1.388056396484375
-0.3889490625,0.2280061767578125,1.0923991748046875
-0.38578818359375,-0.118551552734375,0.8898874951171875
-0.17571130859375,0.0152677685546875,0.8161575146484374
-0.28074974609375003,0.0123266845703125,0.7920723876953125
-0.216802734375,-0.10997339111328125,0.9166760546875
-0.1530988671875,-0.05801424072265625,0.995812900390625
-0.28123603515625,0.053992041015625,0.9375662158203125
-0.059245078125,0.1044806494140625,1.0865007763671874
-0.3417790234375,0.1113431787109375,1.2671392285156249
-0.5110076171875,0.17580193603515626,1.110831669921875
-0.2561921484375,0.057668395996093746,0.7790467578125
-0.197351171875,-0.05654369873046875,0.6726298193359375
-0.13243158203125,-0.15899145751953125,0.7114609423828124
-0.06678255859375,-0.04183827880859375,0.997779033203125
-0.32111173828125,-0.06659240234375,1.1071451708984374
-0.27880458984375,-0.02713285888671875,1.1336879638671875
-0.32257060546875,-0.0964934228515625,0.995812900390625
-0.1540714453125,0.0368357177734375,0.961897109375
-0.3942982421875,-0.03938737548828125,1.206189111328125
-0.57252318359375,0.18021356201171876,1.237155703125
-0.37144265625,0.11011772705078125,0.85081060546875
-0.1210037890625,-0.08889562255859375,0.60701013671875
-0.074806328125,0.02776737548828125,0.575060478515625
0.03047525390625,0.03512008544921875,0.6396970947265626
0.043848203125,0.07065818359375,1.1209081005859376
-0.302389609375,0.09786321044921875,1.4200060546875
-0.3155194140625,-0.01291761962890625,1.2469863671875
-0.207076953125,-0.1857063037109375,1.0614325830078124
-0.237226875,0.07139345458984375,1.0638902490234374
-0.37022693359375003,0.00399361328125,1.1626884228515626
-0.39210994140625,0.10668646240234375,1.0776531787109376
-0.25254498046875,0.24001560302734376,0.9906518017578125
-0.14580453125,0.114774443359375,1.0319405908203125
-0.15577345703125,0.08364797119140625,1.3303012451171874
-0.224583359375,0.1172253466796875,1.430328251953125
-0.1540714453125,0.0535018603515625,1.248460966796875
-0.36390517578125,0.04443351806640625,0.8970147265625
-0.25157240234375,0.05864875732421875,0.6040609375
-0.0388209375,-0.077376376953125,0.5094407958984375
-0.06289224609374999,-0.10213050048828125,0.581941943359375
-0.15747546875,-0.0602200537109375,0.6937657470703125
-0.26713365234374997,-0.19992154296875,0.8289373779296875
-0.374360390625,-0.128355166015625,1.111814736328125
-0.407428046875,0.07457962890625,1.333987744140625
-0.22190876953125,0.009140510253906251,1.4212348876953125
-0.35223423828125,-0.02713285888671875,1.32268248046875
-0.2474389453125,0.15962597412109375,1.1995534130859375
-0.20537494140625,0.00521906494140625,0.9626344091796875
-0.17765646484375,0.09541230712890625,0.844420673828125
-0.14556138671875,0.08413815185546875,0.7070371435546875
-0.117599765625,-0.1131595654296875,0.7908435546875
-0.16185207031249998,0.04394333740234375,0.9449392138671875
-0.22944625,-0.05115171142578125,0.835573076171875
-0.245980078125,-0.0063001806640625,0.778555224609375
-0.30846822265625,-0.023456503906250002,0.8510563720703125
-0.4244481640625,-0.0332601171875,0.980083837890625
-0.279047734375,0.0608545703125,0.936828916015625
-0.31770771484375,0.0608545703125,0.8195982470703125
-0.24914095703125,0.17139031005859376,0.813945615234375
-0.23917203125,0.08119706787109375,0.8417172412109375
-0.15869119140625,0.1368325732421875,0.890624794921875
-0.13000013671875,0.124578056640625,0.80165728515625
-0.12465095703125,-0.0710040283203125,0.7198170068359375
-0.1268392578125,-0.037916833496093746,0.7129355419921874
-0.15917748046875,-0.09967959716796874,0.6431378271484375
-0.195406015625,-0.163648173828125,0.6421547607421875
-0.1881116796875,-0.02149578125,0.671400986328125
-0.19564916015625,-0.08987598388671875,0.8790737646484375
-0.33618669921875,-0.11879664306640625,1.08281427734375
-0.3544225390625,0.0133070458984375,1.347750673828125
-0.39478453125,0.0451687890625,1.29122435546875
-0.45143720703125,0.0760501708984375,0.9402696484374999
-0.212912421875,0.1544790771484375,0.714655908203125
-0.0859909765625,0.03659062744140625,0.71514744140625
-0.1813036328125,0.030463369140625002,0.957473310546875
-0.067025703125,0.0976181201171875,1.0049062646484375
-0.22361078125,0.15962597412109375,1.0707717138671875
-0.42712275390625,0.06624655761718751,1.0786362451171876
-0.18835482421875,0.05031568603515625,0.9891772021484375
-0.33181009765625,-0.0435539111328125,0.9454307470703125
-0.195406015625,0.14492055419921876,0.9139726220703125
-0.2785614453125,0.046149150390625,0.8800568310546875
-0.18008791015625,0.0711483642578125,1.024321826171875
-0.30603677734375,0.03021827880859375,1.06118681640625
-0.26640421875,0.08021670654296875,1.178663251953125
-0.2532744140625,0.14345001220703124,1.0481611865234375
-0.2902323828125,0.00865032958984375,0.9206083203125
-0.2644590625,0.0574233056640625,0.817877880859375
-0.14191421875,-0.006790361328125,0.748080166015625
-0.27515742187500003,0.06992291259765625,0.8984893261718749
-0.045872128906250004,0.01992448486328125,1.072492080078125
-0.3748466796875,0.10325519775390625,1.02579642578125
-0.25935302734375,-0.0317895751953125,1.0624156494140624
-0.18470765625,0.0172284912109375,1.08281427734375
-0.4477900390625,0.0917359521484375,0.9609140429687499
-0.31308796875,0.03217900146484375,0.8299204443359375
-0.3777644140625,0.0603643896484375,0.8557259375
-0.44657431640625,-0.05409279541015625,0.9459222802734375
-0.18446451171875,0.07286399658203124,1.0447204541015624
-0.255705859375,0.01404231689453125,1.1617053564453126
-0.2309051171875,-0.08546435791015625,1.1518746923828125
-0.17571130859375,-0.004829638671875,1.171781787109375
-0.34056330078125,-0.0778665576171875,1.06905134765625
-0.33181009765625,-0.04036773681640625,0.94911724609375
-0.382141015625,0.04786478271484375,1.043000087890625
-0.39502767578125,-0.0053198193359375,1.0294829248046875
-0.27199654296875,0.06281529296875,0.9085657568359375
-0.21169669921875,-0.00948635498046875,0.6972064794921875
-0.16549923828125,0.0760501708984375,0.624213798828125
-0.1725504296875,0.020659755859375,0.620281533203125
-0.29096181640625,0.1025199267578125,0.864082001953125
-0.35126166015625,0.06624655761718751,1.255342431640625
-0.335457265625,0.067717099609375,1.489312236328125
-0.3767918359375,0.018699033203125,1.3779799658203125
-0.20197091796875,-0.049926259765625,1.1897227490234374
-0.2377131640625,0.0059543359375,0.9646005419921875
-0.22385392578125,-0.00458454833984375,0.87243806640625
-0.203186640625,0.0329142724609375,0.7979707861328125
-0.10325423828125,0.01747358154296875,0.83213234375
-0.166228671875,-0.07958218994140626,0.88226873046875
-0.30166017578125,-0.12075736572265625,0.9931094677734374
-0.2474389453125,-0.0219859619140625,0.9587021435546875
-0.3583128515625,0.0250713818359375,0.8289373779296875
-0.314060546875,0.09198104248046875,0.8183694140625
-0.21412814453125,-0.030319033203124998,0.9552614111328125
-0.29631099609375,0.03561026611328125,1.106899404296875
-0.2892598046875,-0.00801581298828125,1.1676037548828124
-0.24233291015625,-0.04919098876953125,1.1435186279296874
-0.19613544921875,-0.03742665283203125,0.920116787109375
-0.24427806640625,0.10423555908203125,0.868014267578125
-0.22823052734375,0.190262265625,1.04545775390625
-0.25935302734375,0.081442158203125,1.2727918603515624
-0.3067662109375,0.1721255810546875,1.23420650390625
-0.28074974609375003,0.0789912548828125,0.94223578125
-0.2882872265625,0.03904153076171875,0.839505341796875
-0.2571647265625,-0.0072805419921875,0.8019030517578125
-0.21193984375,0.01159141357421875,0.938795048828125
-0.2153438671875,-0.03644629150390625,0.9872110693359375
-0.29825615234375,-0.0670825830078125,1.0771616455078126
-0.20342978515625,0.03953171142578125,1.1371286962890625
-0.32159802734375,0.014777587890624999,1.0604495166015624
-0.22920310546875,0.05276658935546875,1.1073909375
-0.27637314453125,0.07850107421875,0.9756600390625
-0.2231244921875,-0.03889719482421875,0.9277355517578125
-0.16987583984375,0.0407571630859375,0.825742412109375
-0.25886673828125,-0.071494208984375,0.8957858935546875
-0.1637972265625,-0.00262382568359375,1.022355693359375
-0.23698373046875,-0.010221625976562499,0.92159138671875
-0.230418828125,0.02360083984375,1.0329236572265625
-0.2095083984375,0.00521906494140625,1.0152284619140626
-0.3553951171875,-0.04183827880859375,0.992863701171875
-0.04052294921875,0.07457962890625,0.9164302880859375
-0.28415376953125,0.00472888427734375,0.9080742236328125
-0.2980130078125,0.06943273193359376,1.0358728564453126
-0.1744955859375,0.04443351806640625,0.9007012255859375
-0.14604767578125,0.09026541015625,0.9321593505859375
-0.23455228515625,0.057668395996093746,1.18898544921875
-0.4361191015625,-0.0018885546875000003,1.228799638671875
-0.24670951171875,0.024581201171875,1.036118623046875
-0.15577345703125,0.0373258984375,0.7090032763671875
-0.0431975390625,-0.0710040283203125,0.6554261572265625
-0.19613544921875,-0.0170841552734375,0.8183694140625
-0.18738224609375,-0.0210056005859375,0.981066904296875
-0.27613,0.13217585693359374,1.1474508935546874
-0.407428046875,0.02752228515625,1.3020380859375
-0.23528171875,0.138303115234375,1.1504000927734375
-0.251815546875,0.13536203125,0.97860923828125
-0.1501811328125,0.15815543212890626,1.1005094726562499
-0.3033621875,0.17506666503906249,1.3332504443359374
-0.27929087890625,0.181439013671875,1.2880293896484374
-0.27540056640625,0.03904153076171875,1.087729609375
-0.3330258203125,-0.09477779052734375,0.891116328125
-0.284883203125,-0.03522083984375,0.71318130859375
-0.17522501953125,-0.00752563232421875,0.6917996142578124
-0.09061072265625,-0.05115171142578125,0.7532412646484374
-0.26372962890625,-0.0023787353515625003,0.8589209033203125
-0.24379177734375002,0.05889384765625,0.89013326171875
-0.23649744140625,0.04198261474609375,1.1155012353515625
-0.32354318359375,0.14001874755859375,1.31875021484375
-0.28901666015625,0.03462990478515625,1.2516559326171874
-0.22385392578125,0.03364954345703125,1.091661875
-0.201241484375,0.118695888671875,0.9007012255859375
-0.27005138671875,-0.09183670654296874,0.7987080859375
-0.20488865234375,-0.0038492773437499997,0.832623876953125
-0.1958923046875,-0.048455717773437504,0.780521357421875
-0.17182099609375,0.0544822216796875,0.8505648388671875
-0.33618669921875,0.0289928271484375,0.8790737646484375
-0.18446451171875,0.01012087158203125,0.84786140625
-0.25108611328125,0.023845930175781252,0.8775991650390624
-0.2931501171875,0.0740894482421875,1.05332228515625
-0.30360533203125,0.07482471923828125,1.12410306640625
-0.19224513671875,0.05472731201171875,1.1671122216796874
-0.216802734375,0.0966377587890625,1.2796733251953125
-0.13583560546875,-0.00507472900390625,1.2649273291015626
-0.356853984375,0.17261576171875,1.320224814453125
-0.35344996093750003,0.1152646240234375,1.249444033203125
-0.33035123046875,0.05497240234375,1.1073909375
-0.2425760546875,-0.0729647509765625,1.001711298828125
-0.15236943359375,0.00717978759765625,1.03366095703125
-0.23601115234375,-0.012672529296875,0.998762099609375
-0.25740787109375,-0.12271808837890624,1.0457035205078125
-0.3680386328125,-0.1847259423828125,0.8893959619140624
-0.25473328125,-0.10360104248046875,0.5979167724609376
-0.07748091796875001,0.02776737548828125,0.4701181396484375
-0.063135390625,-0.04575972412109375,0.62667146484375
-0.1715778515625,-0.02860340087890625,0.7748687255859374
-0.1754681640625,-0.03595611083984375,0.9945840673828125
-0.19248828125,0.06158984130859375,1.197833046875
-0.3660934765625,0.1054610107421875,1.3244028466796876
-0.36293259765625,0.128499501953125,1.3298097119140624
-0.30506419921875,0.1544790771484375,1.201273779296875
-0.252788125,0.0750698095703125,0.9582106103515625
-0.21801845703125,0.124578056640625,0.894557060546875
-0.107873984375,0.04835496337890625,0.8014115185546875
-0.04854671875,0.0201695751953125,0.8382765087890625
-0.19273142578125,-0.11389483642578124,0.943710380859375
-0.30117388671875,-0.151883837890625,0.8387680419921875
-0.16452666015625,-0.055073156738281254,0.931913583984375
-0.2843969140625,-0.100905048828125,0.8161575146484374
-0.24816837890625,-0.1082577587890625,0.9134810888671875
-0.12562353515625,-0.0004180126953125,0.9677955078125
-0.23795630859375,-0.010221625976562499,0.9756600390625
-0.24525064453125,0.0417375244140625,1.204222978515625
-0.09595990234375,-0.00581,1.271071494140625
-0.27005138671875,0.0711483642578125,1.289749755859375
-0.30895451171875,0.11992134033203125,1.262223896484375
-0.52875716796875,0.05962911865234375,0.95698177734375
-0.34032015625,-0.00948635498046875,0.7522581982421875
-0.12416466796875,-0.17614778076171875,0.49494056640625
-0.0006472460937500014,-0.08007237060546875,0.4996101318359375
-0.0490330078125,0.0922261328125,0.5635094482421875
-0.1317021484375,0.13854820556640626,0.5723570458984375
-0.22482650390625,0.175556845703125,0.7060540771484375
-0.144831953125,0.0966377587890625,1.0004824658203124
-0.315033125,0.16452778076171876,1.5293721923828125
-0.52316484375,0.36501167236328125,1.6335772314453125
-0.40183572265625,0.27334788818359373,1.3096568505859374
-0.34056330078125,0.056933125,1.1474508935546874
-0.39600025390625,-0.0533575244140625,0.9955671337890625
-0.14118478515625,-0.12320826904296875,0.906845390625
-0.13632189453125,0.0044837939453125,0.809030283203125
-0.2153438671875,-0.13791368896484374,0.7011387451171875
-0.09085386718749999,-0.16732452880859375,0.7217831396484375
-0.0850183984375,-0.09183670654296874,0.68762158203125
-0.16914640625,0.03462990478515625,0.817877880859375
-0.2775888671875,0.00472888427734375,1.048898486328125
-0.29728357421875,0.03757098876953125,1.273037626953125
-0.3111428125,0.1878113623046875,1.334970810546875
-0.358799140625,0.14050892822265626,1.2005364794921876
-0.36147373046875,0.055952763671875,1.06315294921875
-0.05559791015625,0.17923320068359375,1.05233921875
-0.2795340234375,0.19197789794921874,1.072492080078125
-0.3072525,-0.1170810107421875,1.0683140478515625
-0.1141957421875,-0.02737794921875,0.89504859375
-0.15771861328125,-0.15286419921875,0.7129355419921874
-0.1657423828125,-0.1749223291015625,0.6967149462890625
-0.1900568359375,-0.01585870361328125,0.843929140625
-0.21753216796875,-0.08203309326171875,0.809030283203125
-0.16063634765625,-0.08154291259765625,1.0815854443359374
-0.2221519140625,0.04737460205078125,1.355123671875
-0.50492900390625,0.191242626953125,1.46621017578125
-0.5197608203125,0.0289928271484375,1.148188193359375
-0.18859796875,-0.0415931884765625,0.9940925341796875
-0.23941517578125,-0.151883837890625,0.9090572900390625
-0.27613,-0.0513968017578125,1.0216183935546874
-0.17960162109375,0.01208159423828125,0.9685328076171875
-0.23917203125,-0.06193568603515625,0.79575888671875
-0.29169125,-0.073454931640625,0.7615973291015625
-0.16258150390625,-0.12320826904296875,0.7045794775390625
-0.005753281249999999,0.0172284912109375,0.6652568212890625
-0.0801555078125,0.1044806494140625,0.841471474609375
-0.30311904296875003,0.099088662109375,1.1646545556640624
-0.4045103125,0.16207687744140625,1.2784444921875
-0.2999581640625,0.122617333984375,1.260749296875
-0.44730375,0.08462833251953125,1.1725190869140625
-0.36050115234375,-0.0994345068359375,1.0189149609375
-0.1866528125,-0.0121823486328125,0.894557060546875
-0.22920310546875,0.06306038330078124,0.8820229638671875
-0.3233000390625,-0.07811164794921875,0.8048522509765625
-0.08963814453125,0.04247279541015625,0.680248583984375
-0.172064140625,-0.057278969726562504,0.6569007568359375
-0.12610982421875,-0.1445311279296875,0.8407341748046875
-0.22725794921875,0.11379408203125,1.0481611865234375
-0.28123603515625,-0.01585870361328125,1.053813818359375
-0.21169669921875,0.0059543359375,0.988931435546875
-0.33983386718749997,0.09394176513671874,0.8471241064453126
-0.11881548828124999,0.13413657958984376,0.971236240234375
-0.2989855859375,0.1554594384765625,1.1093570703125
-0.36390517578125,0.0329142724609375,1.155069658203125
-0.3738741015625,0.09982393310546875,1.1597392236328126
-0.2464663671875,0.11060790771484375,1.079865078125
-0.2834243359375,0.0008074389648437498,0.9203625537109374
-0.25400384765625,0.03413972412109375,0.8146829150390625
-0.30798193359375,-0.01291761962890625,0.790352021484375
-0.21023783203125002,0.03610044677734375,0.8267254785156251
-0.3194097265625,0.09002031982421875,0.9238032861328125
-0.2960678515625,0.0093856005859375,1.1233657666015624
-0.38384302734375,0.14418528320312501,1.284834423828125
-0.5110076171875,0.05962911865234375,1.0265337255859375
-0.3719289453125,-0.04575972412109375,0.6824604833984375
-0.267376796875,0.0172284912109375,0.755944697265625
-0.3135742578125,0.05619785400390625,0.7930554541015625
-0.18251935546875,0.04884514404296875,0.8859552294921875
-0.31576255859375,0.0037485229492187503,1.029237158203125
-0.331566953125,0.03266918212890625,1.1558069580078125
-0.31187224609374997,0.004973974609375,1.0157199951171876
-0.20975154296875,0.04639424072265625,0.8530225048828125
-0.2022140625,-0.013652890625,0.8515479052734375
-0.1920019921875,-0.013407800292968751,0.98647376953125
-0.30652306640625,0.0417375244140625,0.8490902392578125
-0.20415921875,-0.11046357177734376,0.752012431640625
-0.2338228515625,0.114774443359375,0.91765912109375
-0.43757796875,-0.010711806640625,1.126560732421875
-0.212912421875,0.0711483642578125,1.171781787109375
-0.22336763671875,0.146146005859375,1.2182316748046875
-0.2805066015625,-0.026397587890625,1.1410609619140626
-0.17960162109375,0.056933125,1.0914161083984375
-0.2795340234375,0.1505576318359375,1.06020375
-0.19856689453125,-0.02860340087890625,1.024813359375
-0.146777109375,0.0074248779296875,1.0575003173828126
-0.2367405859375,-0.0009081933593750001,1.0732293798828125
-0.31138595703125,0.01257177490234375,1.1317218310546875
-0.335457265625,-0.00458454833984375,1.1597392236328126
-0.39478453125,0.04443351806640625,1.1445016943359374
-0.38384302734375,0.023845930175781252,1.043983154296875
-0.30020130859375,-0.071494208984375,0.9356000830078125
-0.1073876953125,-0.081297822265625,0.9336339501953125
-0.190543125,-0.09012107421875,0.8505648388671875
-0.14629082031250001,-0.069533486328125,0.8574463037109374
-0.25351755859375,-0.06879821533203125,0.7846993896484376
-0.1667149609375,-0.035711020507812496,0.7861739892578125
-0.24695265625,-0.03105430419921875,0.7139186083984375
-0.23844259765625,0.03413972412109375,0.9400238818359374
-0.38189787109375,0.09247122314453125,1.18308705078125
-0.417153828125,0.0037485229492187503,1.0857634765625
-0.31284482421875,-0.04575972412109375,1.02186416015625
-0.35077537109375,-0.18815720703125,1.0334151904296875
-0.26032560546875,-0.07443529296875,0.9041419580078125
-0.156502890625,-0.02958376220703125,0.7357918359375
-0.12027435546875,-0.0170841552734375,0.6682060205078125
-0.16501294921875,-0.095022880859375,0.8859552294921875
-0.3155194140625,-0.0219859619140625,1.2570627978515625
-0.3369161328125,0.0686974609375,1.52912642578125
-0.3476144921875,0.190262265625,1.325140146484375
-0.426879609375,-0.06046514404296875,1.0117877294921875
-0.32500205078125,-0.2386458154296875,0.7436563671875001
-0.13583560546875,-0.1445311279296875,0.5133730615234375
-0.12610982421875,-0.08399381591796876,0.4121172216796875
-0.07407689453124999,-0.14477621826171874,0.4819149365234375
-0.1064151171875,-0.010221625976562499,0.7736398925781249
-0.34202216796875,-0.05997496337890625,1.032677890625
-0.3476144921875,0.0897752294921875,1.252884765625
-0.41788326171875,0.1446754638671875,1.3293181787109374
-0.4001337109375,0.21893783447265625,1.20274837890625
-0.30700935546875,0.05889384765625,1.0648733154296874
-0.3972159765625,-0.0523771630859375,0.942727314453125
-0.055354765624999996,-0.12320826904296875,0.9439561474609375
-0.03274232421875,-0.19281392333984376,0.899472392578125
-0.3203823046875,-0.19992154296875,0.8702261669921875
-0.2192341796875,-0.15703073486328126,0.82525087890625
-0.35977171875,-0.069533486328125,0.9021758251953125
-0.415208671875,0.02531647216796875,0.79379275390625
-0.2484115234375,0.15178308349609376,0.6465785595703125
-0.066053125,0.122617333984375,0.5667044140624999
-0.012075039062500001,-0.00654527099609375,0.769707626953125
-0.18470765625,-0.07222947998046875,1.0417712548828124
-0.11103486328125,0.06796218994140625,1.2902412890625
-0.377278125,0.28854348876953123,1.4463030810546875
-0.61239888671875,0.1721255810546875,1.2541135986328125
-0.28269490234375,0.04124734375,0.8422087744140625
-0.1706052734375,0.23413343505859374,0.9097945898437501
-0.35952857421875,0.059874208984374996,1.2074179443359374
-0.15625974609374998,0.01012087158203125,1.186527783203125
-0.27029453125,-0.081297822265625,1.1132893359375
-0.109819140625,-0.04306373046875,0.8127167822265625
-0.21412814453125,0.0378160791015625,0.6097135693359375
-0.044170117187499996,-0.075415654296875,0.661570322265625
-0.09425789062500001,0.236339248046875,1.0884669091796875
-0.3578265625,0.1471263671875,1.56648294921875
-0.4745359375,-0.11830646240234374,1.653484326171875
-0.34250845703125,0.05080586669921875,1.6409502294921876
-0.33132380859375,-0.0646316796875,1.1774344189453125
-0.2503566796875,-0.16683434814453124,0.9857364697265625
-0.329621796875,-0.1111988427734375,0.997779033203125
-0.45678638671875,-0.04919098876953125,0.8859552294921875
-0.3116291015625,0.08953013916015624,0.7328426367187499
-0.30555048828125,0.02752228515625,0.63060373046875
-0.10179537109375,-0.11830646240234374,0.6736128857421875
0.0008116210937499993,-0.06340622802734375,0.7502920654296875
-0.04295439453125,-0.1259042626953125,0.9154472216796875
-0.24087404296875,0.1378129345703125,1.0751955126953125
-0.5372672265625,0.02090484619140625,1.1243488330078124
-0.361716875,0.1471263671875,1.1486797265625
-0.5586639453125,0.09149086181640625,1.3322673779296874
-0.146777109375,-0.17835359375,1.35610673828125
-0.17668388671875,-0.14771730224609375,1.5224907275390624
-0.28707150390625,-0.0018885546875000003,1.5701694482421875
-0.44122513671875,0.02041466552734375,1.450972646484375
-0.53994181640625,0.271632255859375,1.4261502197265625
-0.62796013671875,0.21011458251953125,1.1897227490234374
-0.51951767578125,0.04394333740234375,0.750046298828125
-0.08769298828125,-0.1553151025390625,0.5551533837890625
-0.0315266015625,-0.12933552734375,0.40449845703125
-0.02398912109375,-0.08987598388671875,0.4996101318359375
0.01977689453125,-0.17173615478515625,0.7375122021484375
-0.22336763671875,-0.03448556884765625,1.0299744580078125
-0.4400094140625,-0.01144707763671875,1.5283891259765625
-0.489124609375,0.204967685546875,1.9889557373046876
-0.65713748046875,0.2240847314453125,1.9275140869140626
-0.508576171875,0.03315936279296875,1.2646815625
-0.32694720703125,-0.04379900146484375,0.8014115185546875
-0.3378887109375,-0.00409436767578125,0.6333071630859375
-0.125380390625,0.05423713134765625,0.5949675732421875
0.0012979101562499984,-0.0298288525390625,0.8505648388671875
-0.249870390625,0.19835024658203124,0.9980247998046875
-0.12319208984375,-0.05801424072265625,0.9520664453125
-0.22434021484375,-0.134237333984375,1.0464408203125
-0.242089765625,-0.06389640869140625,1.2688595947265624
-0.36925435546875,-0.16487362548828124,1.4337689843749999
-0.48645001953125,-0.091101435546875,1.3293181787109374
-0.15917748046875,-0.046249904785156254,1.162934189453125
-0.32548833984375003,-0.05213207275390625,1.1562984912109375
-0.42858162109375,0.059874208984374996,1.1680952880859374
-0.31430369140625003,0.12090170166015625,1.12312
-0.172064140625,0.0515411376953125,0.8431918408203125
-0.070916015625,-0.0033590966796874996,0.7502920654296875
-0.0140201953125,-0.06046514404296875,0.701876044921875
0.009078535156249998,-0.1259042626953125,0.83311541015625
-0.1589343359375,-0.0857094482421875,0.9046334912109375
-0.2022140625,-0.17173615478515625,0.7743771923828124
-0.37265837890625,0.09051050048828126,0.9218371533203125
-0.4030514453125,0.08364797119140625,1.1946380810546875
-0.43174250000000003,0.2103596728515625,1.2944193212890625
-0.174981875,0.23021198974609375,1.0791277783203126
-0.17036212890625,0.16624341308593749,0.8451579736328125
-0.14653396484375,0.09688284912109375,0.8869382958984375
-0.2746711328125,-0.03742665283203125,0.94321884765625
-0.20586123046875,-0.0533575244140625,0.8132083154296875
-0.1657423828125,-0.09232688720703125,0.694503046875
-0.189570546875,-0.05360261474609375,0.733825703125
-0.23892888671875,-0.0974737841796875,0.8245135791015625
-0.049762441406249996,0.008895419921875,0.81935248046875
-0.1433730859375,0.07261890625,0.88226873046875
-0.16306779296875,-0.13717841796875,1.02088109375
-0.18689595703125,0.03413972412109375,1.4010820263671875
-0.50541529296875,0.00521906494140625,1.4467946142578125
-0.35466568359375,-0.08987598388671875,1.2595204638671875
-0.4789125390625,-0.0072805419921875,0.8633447021484375
-0.25838044921875,-0.04698517578125,0.5428650537109375
-0.15917748046875,-0.144040947265625,0.44431264648437496
-0.2153438671875,0.055952763671875,0.5431108203125
-0.137051328125,0.0652661962890625,0.5726028125
-0.20415921875,-0.013162709960937501,0.4170325537109375
-0.02058509765625,0.06281529296875,0.5428650537109375
-0.1920019921875,0.00325834228515625,0.6401886279296874
-0.1229489453125,-0.0371815625,0.7134270751953125
-0.05900193359375,-0.09330724853515625,0.9542783447265625
-0.28074974609375003,0.07482471923828125,1.2585373974609375
-0.3048210546875,0.09688284912109375,1.323174013671875
-0.160393203125,0.05864875732421875,1.2941735546875
-0.424934453125,0.12433296630859375,1.2703341943359374
-0.12635296875,-0.026397587890625,1.1277895654296874
-0.29582470703125,0.206928408203125,0.915201455078125
-0.16525609375,-0.1195319140625,0.8004284521484375
-0.18543708984375,-0.06193568603515625,0.99630443359375
-0.16501294921875,0.0309535498046875,1.0427543212890624
-0.12221951171875,-0.1273748046875,0.9547698779296875
-0.0013766796875,-0.1170810107421875,0.769707626953125
-0.0266637109375,-0.04772044677734375,0.677299384765625
-0.007698437500000002,-0.09673851318359375,0.810996416015625
-0.15334201171875,0.06624655761718751,1.024321826171875
-0.2795340234375,-0.037916833496093746,1.0353813232421876
-0.13972591796875,-0.08791526123046875,0.926015185546875
-0.33764556640625,-0.08619962890625,1.0206353271484374
-0.39113736328125,-0.09085634521484375,1.08084814453125
-0.23601115234375,0.00766996826171875,1.0759328125
-0.19856689453125,-0.04330882080078125,0.848352939453125
-0.1715778515625,-0.10556176513671875,0.7684787939453125
-0.16744439453124998,0.017718671875,0.9835245703125
-0.17279357421875,0.0270321044921875,1.112797802734375
-0.14264365234375,0.0956573974609375,1.0009739990234374
-0.08307324218750001,0.04737460205078125,0.868014267578125
-0.2255559375,-0.04772044677734375,0.8726838330078125
-0.170118984375,0.010611052246093749,0.9646005419921875
-0.32840607421875,0.07090327392578125,0.995812900390625
-0.28804408203125,0.05178622802734375,1.0923991748046875
-0.347128203125,-0.0298288525390625,1.1386032958984376
-0.3048210546875,0.10423555908203125,1.2437914013671876
-0.2999581640625,0.07188363525390624,1.294665087890625
-0.27272597656249997,0.0608545703125,1.354632138671875
-0.4059691796875,0.0255615625,1.3573355712890625
-0.48766574218750003,-0.18546121337890625,1.180629384765625
-0.28585578125,-0.1386489599609375,0.99237216796875
-0.0927990234375,-0.0886505322265625,0.5689163134765625
0.018318027343749998,-0.128355166015625,0.3526417041015625
0.001541054687499998,-0.15678564453125,0.4745419384765625
-0.0006472460937500014,-0.16438344482421874,0.738249501953125
-0.20829267578125,-0.12124754638671875,1.0739666796875
-0.30311904296875003,0.0231106591796875,1.044966220703125
-0.2104809765625,0.04737460205078125,1.0712632470703125
-0.34639876953125,0.1623219677734375,1.119679267578125
-0.36755234375,0.17776265869140626,1.0909245751953125
-0.30020130859375,0.1505576318359375,0.988931435546875
-0.068970859375,0.075559990234375,0.827708544921875
-0.053409609375,-0.07762146728515625,0.8658023681640625
-0.1268392578125,0.0035034326171875,1.0692971142578125
-0.1827625,-0.0004180126953125,1.2182316748046875
-0.09912078125,0.0476196923828125,1.2236385400390626
-0.19564916015625,0.118695888671875,1.1744852197265625
-0.2659179296875,0.0446786083984375,1.1553154248046875
-0.23552486328125,-0.05482806640625,1.1056705712890624
-0.19564916015625,-0.04698517578125,1.0044147314453125
-0.1248941015625,0.02776737548828125,0.9992536328125
-0.127325546875,-0.01683906494140625,1.223884306640625
-0.26372962890625,0.05497240234375,1.39346326171875
-0.317950859375,0.11256863037109376,1.372327333984375
-0.31819400390625,-0.05556333740234375,1.1867735498046874
-0.28804408203125,-0.20751934326171875,0.9803296044921875
-0.19346085937500002,-0.15163874755859374,0.696960712890625
-0.0543821875,-0.1484525732421875,0.5620348486328125
-0.14312994140625,-0.1494329345703125,0.4907625341796875
-0.074806328125,-0.14281549560546875,0.532788623046875
-0.07602205078125,-0.0317895751953125,0.639451328125
-0.25351755859375,-0.07566074462890625,0.7208000732421875
-0.17473873046875,-0.15703073486328126,0.6224934326171875
-0.133161015625,-0.0857094482421875,0.697943779296875
-0.29874244140625,-0.0097314453125,0.7684787939453125
-0.17327986328125,0.08315779052734375,0.859166669921875
-0.27053767578125,0.05031568603515625,1.0751955126953125
-0.31284482421875,-0.0004180126953125,1.0653648486328124
-0.03128345703125,-0.0371815625,1.0250591259765625
-0.4045103125,-0.057769150390625,0.9980247998046875
-0.14118478515625,0.1000690234375,1.001711298828125
-0.0655668359375,0.05276658935546875,0.9203625537109374
-0.20829267578125,0.008895419921875,0.9203625537109374
-0.144831953125,0.0059543359375,0.881777197265625
-0.0607039453125,-0.0009081933593750001,0.8893959619140624
-0.13875333984375,-0.05213207275390625,0.9778719384765625
-0.23309341796875,-0.12541408203125,1.115747001953125
-0.15869119140625,0.06992291259765625,1.1671122216796874
-0.21461443359375,-0.02909358154296875,1.15162892578125
-0.4137498046875,0.06355056396484375,1.1445016943359374
-0.3797095703125,0.114774443359375,0.9950756005859375
-0.2377131640625,0.2123203955078125,0.899472392578125
-0.18470765625,-0.2062938916015625,0.7905977880859375
0.023667207031249998,-0.1660990771484375,0.655671923828125
0.00810595703125,-0.04919098876953125,0.599637138671875
-0.03711892578125,-0.186196484375,0.75447009765625
-0.18106048828125,-0.186196484375,1.0307117578125
-0.17376615234375,-0.01781942626953125,1.2683680615234374
-0.38870591796875,-0.060710234375,1.2491982666015624
-0.384086171875,0.06698182861328125,0.8773533984374999
-0.187625390625,-0.013162709960937501,0.792318154296875
-0.374360390625,-0.0425735498046875,0.9080742236328125
-0.25084296875,-0.1131595654296875,0.9677955078125
-0.2878009375,-0.2278618408203125,0.875878798828125
0.09661056640625,-0.028358310546875,0.7930554541015625
-0.05851564453125,-0.10188541015625,0.9193794873046874
-0.31089966796875,0.143204921875,1.1553154248046875
-0.18981369140625,0.06306038330078124,1.191443115234375
-0.3145468359375,0.1417343798828125,1.150154326171875
-0.23528171875,0.14933218017578126,1.0132623291015626
-0.1472633984375,-0.12075736572265625,1.0039231982421875
-0.19953947265625,-0.01879978759765625,0.9493630126953125
-0.12635296875,-0.0513968017578125,0.823776279296875
-0.3106565234375,-0.2111956982421875,0.8146829150390625
-0.01572220703125,0.04198261474609375,0.9444476806640625
-0.185680234375,0.0878145068359375,1.253376298828125
-0.2333365625,-0.1200220947265625,1.3502083398437499
-0.2659179296875,0.1162449853515625,1.4266417529296875
-0.30627992187499997,-0.00948635498046875,1.0189149609375
-0.16136578125,-0.22320512451171876,0.9483799462890625
-0.1813036328125,0.126538779296875,1.133442197265625
-0.21121041015625,0.0427178857421875,1.0818312109375
-0.013533906250000002,-0.10752248779296875,1.4104211572265626
-0.42955419921875,0.06109966064453125,1.615144736328125
-0.3874901953125,-0.016593974609375,1.4239383203125
-0.35320681640625,-0.07860182861328124,1.146222060546875
-0.2299325390625,-0.00703545166015625,0.89504859375
-0.031769746093749995,-0.05997496337890625,0.7262069384765625
0.0365538671875,-0.0337502978515625,0.9606682763671874
-0.26227076171875,-0.1062970361328125,1.1961126806640625
-0.35563826171875,-0.175412509765625,1.02088109375
-0.02982458984375,-0.187176845703125,1.00810123046875
-0.245980078125,-0.122472998046875,1.3413607421875
-0.4589746875,-0.1562954638671875,1.5013547998046874
-0.3602580078125,-0.0239466845703125,1.435243583984375
-0.19613544921875,-0.12958061767578125,1.0751955126953125
-0.346155625,-0.11977700439453125,0.656654990234375
-0.1929745703125,-0.1626678125,0.606518603515625
0.049683671875,-0.07370002197265625,0.79772501953125
-0.12173322265625,-0.04281864013671875,0.8662939013671875
-0.20245720703125,0.03119864013671875,0.92945591796875
-0.05024873046875,0.12384278564453124,0.8785822314453124
-0.2435486328125,0.19393862060546874,0.8871840625
-0.24184662109375,0.21893783447265625,0.970253173828125
-0.0665394140625,0.0731090869140625,0.9803296044921875
-0.07893978515625,-0.12149263671875,0.9444476806640625
0.032177265625,-0.06095532470703125,1.0309575244140625
0.10341861328125,-0.22908729248046875,1.460803310546875
-0.43636224609375,-0.2749191845703125,1.6960019482421875
-0.57106431640625,0.14197947021484375,1.4526930126953124
-0.40086314453125,0.0280124658203125,1.198324580078125
-0.3553951171875,-0.13791368896484374,0.87637033203125
-0.1560166015625,0.06845237060546874,0.9992536328125
-0.2814791796875,-0.0631611376953125,0.8554801708984375
-0.35320681640625,-0.0254172265625,0.7851909228515626
-0.25546271484375,0.11943115966796874,0.72497810546875
-0.10568568359375,-0.05262225341796875,0.7736398925781249
0.08056302734375,-0.036201201171875,0.7842078564453125
-0.07213173828125,0.0451687890625,0.8773533984374999
-0.245980078125,-0.044044091796875,0.7832247900390625
-0.230418828125,-0.05360261474609375,0.6084847363281249
-0.21266927734375,-0.012672529296875,0.6075016699218749
-0.2931501171875,-0.04428918212890625,0.6932742138671875
-0.33715927734375,-0.034240478515625,0.8053437841796875
-0.210967265625,-0.02149578125,1.0540595849609375
-0.28269490234375,0.1103628173828125,1.228799638671875
-0.35952857421875,0.15521434814453125,1.266156162109375
-0.3592854296875,0.1103628173828125,1.2954023876953125
-0.2912049609375,0.0770305322265625,0.9469053466796875
-0.051464453125000004,-0.06585713134765625,0.799199619140625
-0.0927990234375,-0.15114856689453124,0.8520394384765625
-0.1813036328125,-0.0827683642578125,0.742181767578125
-0.1385101953125,-0.07320984130859375,0.7404614013671875
-0.13048642578125,-0.09526797119140624,0.678773984375
-0.1560166015625,-0.04428918212890625,0.572111279296875
-0.07188859375000001,-0.21585241455078125,0.5777639111328124
-0.1229489453125,-0.27908572021484374,0.7856824560546875
-0.197351171875,-0.249919970703125,0.9036504248046875
-0.29922873046875,-0.0798272802734375,1.130492998046875
-0.34737134765625,-0.02321141357421875,1.3194875146484375
-0.4584883984375,0.06845237060546874,1.23224037109375
-0.0918264453125,0.27187734619140624,1.1329506640625
-0.22385392578125,0.07727562255859374,1.0179318945312499
-0.0850183984375,0.024091020507812498,0.8500733056640625
0.046522792968750004,-0.00581,0.9026673583984375
-0.1171134765625,0.1446754638671875,0.9756600390625
-0.13413359375,0.14786163818359374,1.08084814453125
-0.20829267578125,-0.01438816162109375,1.3273520458984376
-0.1871391015625,0.16991976806640624,1.43671818359375
-0.34810078125,0.08266760986328126,1.136391396484375
-0.34104958984375,0.03364954345703125,0.93928658203125
-0.11541146484375,-0.05164189208984375,0.8537598046875
-0.3573402734375,0.0378160791015625,0.875387265625
-0.19273142578125,-0.10556176513671875,1.0346440234375
-0.21364185546875,-0.1229631787109375,0.969270107421875
-0.3067662109375,-0.03914228515625,0.83901380859375
0.0550328515625,-0.0729647509765625,0.7554531640625
0.006647089843749999,-0.1415900439453125,0.7473428662109375
-0.1025248046875,-0.077376376953125,0.7552073974609375
-0.1929745703125,-0.0533575244140625,0.894557060546875
-0.24962724609375,0.1025199267578125,0.9218371533203125
-0.11492517578125,0.01649322021484375,1.02186416015625
-0.27345541015625,0.03119864013671875,1.1572815576171875
-0.2386857421875,0.020659755859375,1.1076367041015625
-0.347128203125,0.08805959716796875,0.994829833984375
-0.236254296875,0.17629211669921874,1.0142453955078126
-0.43101306640625,0.10962754638671875,1.034152490234375
-0.22385392578125,0.1682041357421875,1.2118417431640625
-0.17571130859375,0.17825283935546876,1.134425263671875
-0.174009296875,0.06698182861328125,1.0388220556640624
0.001541054687499998,0.106931552734375,0.92748978515625
-0.13948277343749999,-0.07713128662109375,0.7414444677734375
-0.08988128906250001,-0.057278969726562504,0.8653108349609375
-0.26421591796875,-0.0847290869140625,1.0860092431640624
-0.1287844140625,-0.1386489599609375,1.0786362451171876
-0.230418828125,-0.0680629443359375,1.13196759765625
-0.22044990234375,-0.02517213623046875,1.20668064453125
-0.37849384765625,-0.01389798095703125,1.0083469970703125
-0.23066197265625,-0.02223105224609375,1.0737209130859375
-0.352963671875,-0.0411030078125,1.0766701123046876
-0.22944625,-0.01487834228515625,1.1172216015625
-0.0966893359375,-0.0513968017578125,1.0963314404296876
-0.37460353515625,-0.116590830078125,1.04939001953125
-0.10033650390625,0.03610044677734375,0.8485987060546875
-0.17960162109375,-0.050661530761718754,0.62273919921875
-0.07796720703125,0.15423398681640624,0.58538267578125
-0.1764407421875,0.15227326416015624,0.598654072265625
-0.19078626953125,-0.02909358154296875,0.911269189453125
-0.209022109375,0.040266982421875,0.9994993994140625
-0.24768208984375,0.019434304199218752,1.0948568408203125
-0.2620276171875,0.059874208984374996,1.1621968896484376
-0.29096181640625,-0.00409436767578125,1.1145181689453125
-0.2873146484375,0.04933532470703125,1.09461107421875
-0.36050115234375,-0.0200252392578125,1.18505318359375
-0.1842213671875,-0.09281706787109376,1.202256845703125
-0.49471693359375,0.0427178857421875,1.18505318359375
-0.1744955859375,0.2162418408203125,1.0865007763671874
-0.07261802734375,-0.03129939453125,0.9503460791015625
-0.0597313671875,0.0829127001953125,0.94911724609375
-0.043683828125000004,-0.13325697265625,0.9134810888671875
-0.36730919921875,-0.1592365478515625,1.094119541015625
-0.29144810546875,0.0515411376953125,1.040542421875
-0.26154132812499997,-0.1406096826171875,0.9793465380859375
-0.300444453125,0.0789912548828125,1.079865078125
-0.2795340234375,-0.04036773681640625,1.1135351025390625
-0.2022140625,-0.09232688720703125,1.2423168017578126
-0.31697828125,0.03217900146484375,1.166374921875
-0.2488978125,-0.15507001220703126,1.11034013671875
-0.2707808203125,-0.018554697265625,1.113780869140625
-0.27296912109375,0.02041466552734375,1.14573052734375
-0.30360533203125,0.0608545703125,1.0997721728515626
-0.13291787109375,0.053992041015625,1.071509013671875
-0.1229489453125,-0.0082609033203125,1.1410609619140626
-0.29193439453125003,-0.03056412353515625,1.089204208984375
-0.21947732421875,-0.04919098876953125,1.0029401318359374
-0.31722142578125,-0.09967959716796874,0.8815314306640625
-0.09936392578125,0.01208159423828125,0.7016302783203126
-0.06799828125,-0.1935491943359375,0.6028321044921875
-0.1385101953125,-0.07320984130859375,0.79772501953125
-0.253760703125,-0.048455717773437504,0.9877026025390625
-0.28998923828125,-0.1602169091796875,1.116730068359375
-0.27394169921875,0.0037485229492187503,1.2187232080078125
-0.2698082421875,-0.03693647216796875,1.150645859375
-0.2163164453125,0.1544790771484375,1.0692971142578125
-0.12367837890625,0.19295825927734375,1.019406494140625
-0.18592337890625,0.067717099609375,1.0181776611328126
-0.11735662109375,0.093206494140625,1.1356540966796875
-0.24184662109375,0.05105095703125,1.1735021533203125
-0.0777240625,0.0162481298828125,1.1838243505859376
-0.09450103515625,-0.020515419921875,1.1565442578125
-0.24330548828125,-0.10850284912109374,1.126560732421875
-0.23747001953125,-0.00997653564453125,1.091170341796875
-0.26518849609375,-0.0621807763671875,0.9999909326171875
-0.29290697265625,-0.0729647509765625,0.9680412744140625
-0.30846822265625,0.00472888427734375,0.914709921875
-0.2338228515625,-0.02860340087890625,0.8839890966796875
-0.040766093749999996,-0.0082609033203125,0.818860947265625
-0.25789416015625,0.04884514404296875,0.894557060546875
-0.2367405859375,0.1309504052734375,0.8687515673828125
-0.11687033203125,-0.120512275390625,0.85277673828125
-0.16987583984375,0.07139345458984375,0.8412257080078125
-0.09109701171875,-0.05090662109375,0.8427003076171875
-0.17036212890625,-0.02615249755859375,1.032677890625
-0.45921783203125,0.0691876416015625,1.218968974609375
-0.34153587890625,-0.012672529296875,1.1155012353515625
-0.2552195703125,0.0765403515625,1.0978060400390626
-0.33959072265625,-0.08301345458984374,1.004660498046875
-0.3612305859375,-0.032279755859375,0.884726396484375
-0.221665625,-0.04477936279296875,0.676316318359375
-0.17279357421875,-0.14894275390625,0.592755673828125
-0.125380390625,-0.05899460205078125,0.5300851904296875
-0.06751199218750001,-0.01389798095703125,0.7035964111328125
-0.07748091796875001,0.0231106591796875,0.8918536279296875
-0.07602205078125,0.0451687890625,1.0604495166015624
-0.14604767578125,-0.06659240234375,1.3366911767578125
-0.31770771484375,0.0731090869140625,1.41410765625
-0.3009307421875,0.11207844970703125,1.176697119140625
-0.30944080078125,0.16624341308593749,1.206189111328125
-0.47623794921875,0.07678544189453125,1.24207103515625
-0.32500205078125,0.01208159423828125,1.0781447119140626
-0.1205175,-0.012427438964843749,0.90782845703125
-0.08963814453125,0.010856142578125,0.7832247900390625
-0.063135390625,-0.076396015625,0.7837163232421875
-0.0752926171875,0.0005623486328125002,0.7797840576171875
-0.054868476562500004,0.0838930615234375,0.7711822265625
-0.0636216796875,-0.0719843896484375,0.7829790234375
-0.105928828125,-0.023456503906250002,0.635027529296875
-0.112736875,-0.12909043701171874,0.7043337109375
-0.25303126953125,0.055462583007812497,0.92159138671875
-0.330594375,-0.01389798095703125,1.050864619140625
-0.2007551953125,-0.037916833496093746,1.3106399169921874
-0.4122909375,0.148106728515625,1.3656916357421875
-0.36439146484375,0.11379408203125,1.129509931640625
-0.046358417968749996,0.17384121337890626,1.1921804150390625
0.043605058593749996,0.04639424072265625,1.2142994091796875
-0.36341888671875,0.09443194580078125,1.3814206982421875
-0.1939471484375,0.11158826904296874,1.2034856787109376
-0.23892888671875,0.07335417724609375,0.9847534033203125
-0.25108611328125,0.1407540185546875,0.9390408154296875
-0.265431640625,-0.1464918505859375,0.945676513671875
-0.17765646484375,-0.12712971435546874,0.9242948193359375
-0.11200744140625,-0.0023787353515625003,0.76430076171875
-0.16015005859375,-0.063651318359375,0.6347817626953125
-0.1492085546875,-0.13448242431640625,0.6878673486328125
-0.1735230078125,-0.157766005859375,0.9815584374999999
-0.31478998046875,0.11796061767578125,1.1958669140625
-0.3096839453125,-0.0268877685546875,1.2673849951171876
-0.44146828125,-0.0847290869140625,1.2646815625
-0.18057419921875,-0.06928839599609375,0.9483799462890625
-0.1472633984375,-0.08963089355468751,0.807064150390625
-0.11079171875,0.02923791748046875,0.82525087890625
-0.16841697265625,0.0936966748046875,0.8616243359375
-0.2688356640625,0.022620478515625,0.868997333984375
-0.21193984375,0.0427178857421875,0.8235305126953125
-0.2104809765625,-0.08889562255859375,0.671400986328125
-0.054868476562500004,-0.1116890234375,0.5772723779296876
-0.035903203125000005,-0.1337471533203125,0.575060478515625
-0.07991236328125,-0.07443529296875,0.4939575
-0.06580998046875,-0.0533575244140625,0.748080166015625
-0.15917748046875,-0.0254172265625,1.038084755859375
-0.39940427734375,0.07384435791015626,1.3283351123046876
-0.4045103125,0.127519140625,1.5554234521484376
-0.12708240234375,0.0985984814453125,1.369378134765625
-0.34007701171875,0.1074217333984375,1.134916796875
-0.181789921875,-0.04428918212890625,1.0904330419921875
-0.23917203125,-0.053847705078125,1.016457294921875
-0.19419029296875,-0.07958218994140626,0.9614055761718749
-0.1788721875,-0.16854998046875,0.9405154150390624
-0.10179537109375,-0.05409279541015625,0.839996875
-0.066053125,-0.0960032421875,0.6888504150390625
-0.1944334375,-0.1484525732421875,0.6800028173828125
-0.185680234375,-0.14232531494140624,0.544585419921875
-0.16525609375,-0.108747939453125,0.6728755859375
-0.1890842578125,-0.0200252392578125,0.808047216796875
-0.346155625,0.0574233056640625,0.798216552734375
-0.21947732421875,0.1809488330078125,0.9316678173828125
-0.33083751953125,0.1123235400390625,1.127052265625
-0.22579908203125,0.012816865234374999,1.1179589013671876
-0.242089765625,0.08070688720703124,1.252393232421875
-0.36196001953125,0.05374695068359375,1.316292548828125
-0.199296328125,-0.044534272460937496,1.02088109375
-0.11225058593750001,-0.1352176953125,0.8304119775390625
-0.04830357421875,-0.1062970361328125,0.721537373046875
-0.09012443359375,-0.0935523388671875,0.55785681640625
-0.07407689453124999,-0.12516899169921875,0.6060270703125
-0.3135742578125,0.00717978759765625,0.74267330078125
-0.3116291015625,-0.06193568603515625,0.8146829150390625
-0.2800203125,-0.065612041015625,0.8874298291015625
-0.3884627734375,0.008895419921875,0.8576920703124999
-0.1832487890625,-0.02468195556640625,0.740215634765625
-0.13972591796875,-0.10360104248046875,0.7004014453125
-0.15431458984375,0.02874773681640625,0.714655908203125
-0.0388209375,-0.0161037939453125,0.6426462939453125
0.09588113281249999,-0.08399381591796876,0.839996875
-0.25643529296875,0.1157548046875,1.2688595947265624
-0.21461443359375,0.06453092529296875,1.4713712744140626
-0.26372962890625,0.23021198974609375,1.35610673828125
-0.27345541015625,0.0686974609375,0.9700074072265625
-0.29825615234375,0.06404074462890624,0.810996416015625
-0.3262177734375,0.0883046875,0.797233486328125
-0.29728357421875,-0.051886982421875,0.8458952734375
-0.1803310546875,0.0701680029296875,0.7360376025390625
-0.10130908203125,-0.046004814453125,0.6040609375
-0.115654609375,-0.0308092138671875,0.8304119775390625
-0.004051269531250002,-0.046249904785156254,1.0766701123046876
-0.263486484375,0.171635400390625,1.4042769921875
-0.2571647265625,-0.006790361328125,1.592534208984375
-0.34445361328125,0.05031568603515625,1.6311195654296875
-0.4536255078125,0.069677822265625,1.4005904931640625
-0.2834243359375,-0.02713285888671875,1.0678225146484375
-0.22385392578125,-0.035711020507812496,0.6991726123046875
-0.1511537109375,-0.10065995849609374,0.6023405712890625
-0.08234380859375,-0.1729616064453125,0.7869112890625
-0.1944334375,-0.10703230712890625,0.9822957373046874
-0.37581925781250003,-0.006790361328125,1.147205126953125
-0.25157240234375,-0.03497574951171875,1.024813359375
-0.30700935546875,0.03217900146484375,0.8805483642578125
-0.2435486328125,-0.1180613720703125,0.8618701025390625
-0.2124261328125,-0.01389798095703125,0.9088115234375
-0.2279873828125,0.06257020263671875,0.823776279296875
-0.26713365234374997,0.038306259765625,0.6682060205078125
-0.129270703125,-0.108747939453125,0.5615433154296875
-0.16015005859375,0.063795654296875,0.8456495068359375
-0.221665625,0.04051207275390625,1.0884669091796875
-0.30895451171875,-0.02149578125,1.3406234423828125
-0.21607330078125,0.1368325732421875,1.4074719580078126
-0.28658521484375,-0.1121792041015625,1.24796943359375
-0.28123603515625,-0.19526482666015624,1.1508916259765625
-0.17230728515625,-0.24967488037109375,1.0093300634765625
-0.40134943359374997,-0.037916833496093746,1.027271025390625
-0.32208431640625,0.04443351806640625,0.9120064892578125
-0.1492085546875,-0.09575815185546875,0.749063232421875
-0.28901666015625,0.087324326171875,0.766758427734375
-0.15042427734375,-0.0092412646484375,0.8977520263671875
-0.1774133203125,-0.08350363525390625,1.049881552734375
-0.23819945312500002,0.1260485986328125,1.27254609375
-0.48037140625,0.19786006591796876,1.2659103955078126
-0.38724705078125,-0.057278969726562504,1.03169482421875
-0.2416034765625,0.02360083984375,0.972219306640625
-0.29436583984375,-0.09232688720703125,0.80853875
-0.0665394140625,-0.12149263671875,0.825742412109375
-0.1540714453125,-0.17810850341796874,0.9478884130859375
-0.15139685546875,-0.22712656982421875,1.075441279296875
-0.38287044921875,-0.15310928955078124,1.0919076416015625
-0.35661083984374997,-0.12222790771484375,1.1386032958984376
-0.32013916015625,0.0162481298828125,1.173747919921875
-0.31041337890625,-0.11683592041015625,1.181612451171875
-0.18397822265625,-0.1719812451171875,1.104933271484375
-0.26227076171875,-0.15286419921875,0.96484630859375
-0.28074974609375003,-0.05090662109375,0.8790737646484375
-0.034687480468750004,-0.1229631787109375,0.844420673828125
-0.27394169921875,-0.03644629150390625,0.9756600390625
-0.23698373046875,0.06502110595703126,0.9783634716796875
-0.1083602734375,-0.11046357177734376,0.9016842919921875
