ax,ay,az
-0.384086171875,-0.05090662109375,1.12017080078125
-0.2484115234375,-0.1268846240234375,0.862115869140625
-0.15723232421875,-0.0347306591796875,0.699909912109375
-0.0733474609375,0.04345315673828125,0.73480876953125
-0.2488978125,-0.0690433056640625,0.82131861328125
-0.247925234375,0.16085142578125,1.022355693359375
-0.3126016796875,0.14516564453125,1.0850261767578124
-0.218747890625,0.16869431640625,1.073475146484375
-0.1424005078125,0.120656611328125,0.9700074072265625
-0.2644590625,0.099088662109375,1.005643564453125
-0.30506419921875,0.064776015625,1.0280083251953125
-0.236254296875,-0.1200220947265625,0.8992266259765624
-0.199296328125,-0.163648173828125,0.809030283203125
-0.107873984375,-0.0925719775390625,0.730384970703125
-0.1477496875,-0.06267095703125,0.7743771923828124
-0.21972046875,-0.0455146337890625,0.881777197265625
-0.37265837890625,-0.05115171142578125,1.0540595849609375
-0.19516287109375,0.06992291259765625,1.148188193359375
-0.166228671875,0.2875631274414063,1.0933822412109375
-0.20683380859375,0.31991505126953124,1.1415524951171876
-0.35393625,0.187321181640625,1.25976623046875
-0.47964197265624997,0.01575794921875,1.134916796875
-0.40134943359374997,-0.04183827880859375,0.9159387548828125
-0.280992890625,-0.00948635498046875,0.70138451171875
-0.12756869140625,-0.08938580322265625,0.548517685546875
-0.11395259765625,-0.1474722119140625,0.5300851904296875
-0.01474962890625,-0.0945327001953125,0.7515208984375
-0.2143712890625,0.128499501953125,1.147205126953125
-0.4672416015625,0.1378129345703125,1.3138348828125
-0.2620276171875,-0.02076051025390625,1.2550966650390625
-0.44171142578125,0.21746729248046875,1.1572815576171875
-0.43247193359375,0.11967625,0.9459222802734375
-0.25157240234375,0.13805802490234376,0.8589209033203125
-0.48037140625,0.06404074462890624,0.9007012255859375
-0.269321953125,-0.1906081103515625,0.80362341796875
-0.00016095703124999888,-0.0719843896484375,0.744147900390625
-0.18081734375,-0.05360261474609375,0.7552073974609375
-0.13243158203125,-0.1180613720703125,0.6529684912109375
-0.03079716796875,-0.123453359375,0.65616345703125
-0.20732009765625,0.02041466552734375,0.7613515625
-0.36439146484375,-0.09085634521484375,0.7016302783203126
-0.16549923828125,7.216796875000007e-05,0.746114033203125
-0.1141957421875,0.14516564453125,1.0914161083984375
-0.3651208984375,0.179478291015625,1.485379970703125
-0.39745912109375,0.15472416748046874,1.7372907373046875
-0.26640421875,0.1446754638671875,1.6323483984375
-0.3028758984375,0.20864404052734375,1.2600119970703125
-0.2834243359375,0.1191860693359375,1.02776255859375
-0.12635296875,-0.06267095703125,0.7846993896484376
-0.12829812499999999,-0.00801581298828125,0.6175781005859375
-0.17571130859375,-0.06977857666015624,0.639451328125
-0.05511162109375,-0.1200220947265625,0.87637033203125
-0.2989855859375,0.011346323242187501,1.091661875
-0.522192265625,-0.00262382568359375,1.1695698876953124
-0.3189234375,0.0584036669921875,1.1454847607421874
-0.31333111328125,0.214771298828125,0.97271083984375
-0.1866528125,0.0564429443359375,0.9877026025390625
0.024396640625,0.06673673828125,1.410175390625
-0.5781155078125,0.16403760009765625,1.734095771484375
-0.6131283203125,0.093206494140625,1.343326875
-0.210967265625,-0.081297822265625,0.847369873046875
-0.1754681640625,-0.03301502685546875,0.6392055615234375
0.010294257812499999,-0.016593974609375,0.599637138671875
-0.0451426953125,-0.19330410400390624,0.686146982421875
-0.36925435546875,-0.0033590966796874996,0.862115869140625
-0.46602587890625,0.00521906494140625,0.8702261669921875
-0.28755779296875,-0.07271966064453125,0.8105048828125
-0.1832487890625,0.1427147412109375,0.7271900048828125
-0.247925234375,-0.06830803466796875,0.510178095703125
-0.12465095703125,0.0436982470703125,0.5679332470703125
-0.097175625,0.14884199951171875,0.7655295947265625
-0.40232201171875,0.22138873779296875,1.0978060400390626
-0.41593810546875,0.3101114379882812,1.2993346533203125
-0.3111428125,-0.1038461328125,1.5431351220703124
-0.3835998828125,-0.0994345068359375,1.535516357421875
-0.22093619140625,-0.022476142578125,1.1381117626953126
0.016372871093749998,-0.02223105224609375,0.8567090039062499
-0.3388612890625,-0.08423890625,0.7016302783203126
-0.36244630859375,0.13707766357421874,0.750046298828125
-0.1676875390625,-0.01953505859375,0.9324051171875
-0.25108611328125,0.11649007568359375,1.166866455078125
-0.31673513671875,0.16403760009765625,1.2914701220703124
-0.237226875,0.11207844970703125,1.2627154296875
-0.24622322265625,0.01183650390625,1.005643564453125
-0.2056180859375,-0.0055649096679687505,0.932896650390625
-0.23528171875,0.01575794921875,1.2147909423828125
-0.40086314453125,0.00423870361328125,1.32661474609375
-0.25059982421875,-0.0366913818359375,1.2017653125
-0.28950294921874997,-0.089140712890625,0.999745166015625
-0.2620276171875,-0.03105430419921875,0.9614055761718749
-0.19564916015625,-0.06585713134765625,0.8363103759765624
-0.24962724609375,0.07286399658203124,0.8466325732421875
-0.2299325390625,0.03708080810546875,0.87047193359375
-0.3378887109375,-0.0729647509765625,1.044966220703125
-0.33278267578125,-0.02958376220703125,1.1513831591796875
-0.2450075,-0.03522083984375,1.16342572265625
-0.42274615234375,0.044188427734375,1.0530765185546875
-0.36682291015625,0.08168724853515624,1.1174673681640626
-0.36293259765625,0.049090234375,1.0471781201171875
-0.27053767578125,0.1446754638671875,0.9245405859375
-0.0344443359375,0.0103659619140625,0.781012890625
-0.02933830078125,-0.17369687744140624,0.9680412744140625
-0.46870046875,0.0319339111328125,1.0648733154296874
-0.25108611328125,-0.018554697265625,0.926015185546875
-0.05657048828125,-0.13938423095703126,0.8476156396484374
-0.34737134765625,0.049090234375,0.839996875
-0.15236943359375,-0.011201987304687501,0.884726396484375
-0.25935302734375,-0.0063001806640625,1.0442289208984374
-0.329621796875,0.167713955078125,1.1582646240234376
-0.24816837890625,0.03536517578125,0.9965502001953125
-0.24914095703125,0.08364797119140625,1.0014655322265624
-0.24695265625,0.10864718505859375,0.990897568359375
-0.19613544921875,0.00987578125,0.9365831494140625
-0.15334201171875,0.04345315673828125,0.99040603515625
-0.2688356640625,0.04247279541015625,0.970253173828125
-0.17571130859375,-0.0072805419921875,0.97074470703125
-0.29874244140625,0.05668803466796875,1.1209081005859376
-0.25692158203125,0.1162449853515625,1.1494170263671875
-0.195406015625,-0.02713285888671875,1.012525029296875
-0.26421591796875,0.0417375244140625,0.89013326171875
-0.17960162109375,0.07825598388671876,0.8223016796875
-0.2600824609375,-0.0337502978515625,0.862115869140625
-0.22434021484375,0.13413657958984376,0.976151572265625
-0.24427806640625,-0.04968116943359375,0.9621428759765625
-0.331566953125,0.0182088525390625,1.0167030615234376
-0.30895451171875,0.026541923828125,0.985490703125
-0.18592337890625,-0.01928996826171875,0.8672769677734375
-0.23552486328125,0.042227705078125,0.8412257080078125
-0.2513292578125,-0.024436865234375,0.852285205078125
-0.236254296875,0.07286399658203124,0.921099853515625
-0.3592854296875,0.1789881103515625,0.9459222802734375
-0.22482650390625,0.14050892822265626,0.985490703125
-0.27880458984375,0.1064413720703125,1.0071181640625
-0.37849384765625,-0.038161923828125,0.92159138671875
-0.0782103515625,0.042227705078125,0.837539208984375
-0.1190586328125,-0.00777072265625,0.8382765087890625
-0.37144265625,0.01575794921875,0.850319072265625
-0.35369310546875,-0.03595611083984375,0.796741953125
-0.25108611328125,0.148106728515625,0.8417172412109375
-0.2746711328125,0.0309535498046875,0.798216552734375
-0.16112263671875,0.05497240234375,0.7832247900390625
-0.13632189453125,0.1235976953125,0.810013349609375
-0.19224513671875,-0.06242586669921875,0.887675595703125
-0.1997826171875,0.0927163134765625,1.00810123046875
-0.36487775390625,-0.01046671630859375,1.1172216015625
-0.3476144921875,0.08070688720703124,1.1135351025390625
-0.15528716796875,-0.0055649096679687505,1.009575830078125
-0.3408064453125,-0.10458140380859375,0.9862280029296875
-0.26859251953125,-0.00801581298828125,0.9572275439453125
-0.25084296875,0.015022678222656249,0.78199595703125
-0.13145900390625,0.026296833496093748,0.75447009765625
-0.1803310546875,0.1858506396484375,0.8623616357421875
-0.10203851562499999,0.0020328906249999995,1.0034316650390624
-0.25935302734375,-0.0406128271484375,1.172764853515625
-0.20804953125,0.0427178857421875,1.10247560546875
-0.25254498046875,0.06257020263671875,0.997779033203125
-0.34202216796875,0.04786478271484375,1.1272980322265624
-0.53945552734375,0.0897752294921875,1.0759328125
-0.2552195703125,0.108892275390625,0.915201455078125
-0.13024328125,0.0799716162109375,0.8537598046875
-0.15528716796875,0.0608545703125,0.854251337890625
-0.15625974609374998,-0.040122646484374996,0.804606484375
-0.02544798828125,0.10962754638671875,1.040542421875
-0.33229638671875,0.1000690234375,1.2526389990234374
-0.53118861328125,-0.02272123291015625,1.276969892578125
-0.29971501953125,0.124578056640625,1.072000546875
-0.40183572265625,-0.06879821533203125,0.8987350927734374
-0.255705859375,0.158890703125,0.84491220703125
-0.25254498046875,-0.049926259765625,0.734317236328125
-0.2552195703125,0.136342392578125,0.8977520263671875
-0.26227076171875,0.25177993896484374,1.0363643896484376
-0.2250696484375,-0.10065995849609374,1.054796884765625
-0.2513292578125,0.05325677001953125,1.0909245751953125
-0.22336763671875,0.01208159423828125,1.139340595703125
-0.3203823046875,0.042227705078125,1.1857904833984374
-0.36779548828124997,-0.04919098876953125,1.0860092431640624
-0.37703498046875,-0.04428918212890625,1.0039231982421875
-0.40815748046875,0.015022678222656249,0.8245135791015625
-0.33181009765625,-0.02860340087890625,0.7974792529296875
-0.187625390625,-0.07713128662109375,0.812962548828125
-0.0543821875,0.1485969091796875,0.9896687353515625
-0.070916015625,0.05325677001953125,1.08281427734375
-0.2843969140625,0.0309535498046875,1.127543798828125
-0.2878009375,-0.00213364501953125,1.172764853515625
-0.2454937890625,0.00791505859375,1.307936484375
-0.30652306640625,-0.13154134033203124,1.2673849951171876
-0.162338359375,0.08217742919921875,1.1056705712890624
-0.27637314453125,0.01183650390625,0.8557259375
-0.299471875,0.01747358154296875,0.840488408203125
-0.2931501171875,0.02972809814453125,0.8891501953125
-0.269321953125,-0.02076051025390625,0.8554801708984375
-0.05170759765625,0.061834931640625,0.8972604931640625
-0.10714455078125,-0.06659240234375,0.9547698779296875
-0.20391607421875,0.1784979296875,1.111323203125
-0.20197091796875,-0.0406128271484375,1.0260421923828125
-0.3641483203125,0.030708459472656248,1.1818582177734376
-0.3378887109375,0.0701680029296875,1.252393232421875
-0.39843169921875,0.10178465576171875,1.1012467724609376
-0.33983386718749997,0.20080114990234374,0.98057537109375
-0.24962724609375,-0.14771730224609375,0.790352021484375
-0.0976619140625,-0.03252484619140625,0.660587255859375
-0.2075632421875,0.03757098876953125,0.6532142578125
-0.1579617578125,-0.10556176513671875,0.7203085400390625
-0.1278118359375,-0.01046671630859375,0.8382765087890625
-0.26154132812499997,0.07923634521484375,0.9397781152343749
-0.29631099609375,-0.08546435791015625,0.9277355517578125
-0.27151025390625,-0.05482806640625,1.0425085546875
-0.34493990234375,0.09002031982421875,1.080356611328125
-0.2785614453125,-0.00654527099609375,0.869980400390625
-0.174981875,0.118695888671875,0.86457353515625
-0.3019033203125,-0.03203466552734375,0.840488408203125
-0.25643529296875,0.11403917236328125,0.9562444775390625
-0.09158330078125,0.0927163134765625,0.9980247998046875
-0.26956509765625,0.10913736572265625,1.010558896484375
-0.1628246484375,0.177517568359375,1.0840431103515624
-0.1569891796875,0.2103596728515625,1.0383305224609374
-0.423961875,0.09639266845703125,1.009575830078125
-0.3339983984375,0.1495772705078125,1.1086197705078125
-0.224583359375,0.17237067138671874,0.8898874951171875
-0.23528171875,0.0466393310546875,0.7298934375
-0.13145900390625,0.20129133056640625,0.7950215869140624
-0.430769921875,-0.006790361328125,0.9518206787109375
-0.247925234375,0.06453092529296875,1.1454847607421874
-0.19467658203125,0.0162481298828125,0.94911724609375
-0.1521262890625,0.056933125,0.9301932177734376
-0.16695810546875,-0.00997653564453125,1.057746083984375
-0.3135742578125,-0.06144550537109375,1.166374921875
-0.3894353515625,-0.0009081933593750001,0.913235322265625
-0.22190876953125,0.024091020507812498,0.680248583984375
-0.20099833984375,-0.013652890625,0.6431378271484375
-0.24768208984375,0.01183650390625,0.7689703271484375
-0.2192341796875,0.1495772705078125,0.870963466796875
-0.205131796875,0.19786006591796876,0.9473968798828125
-0.21558701171875,0.16060633544921876,0.990897568359375
-0.1827625,0.106931552734375,1.0078554638671875
-0.2338228515625,0.1211467919921875,1.1041959716796874
-0.17084841796875,0.07433453857421875,1.24010490234375
-0.3320532421875,0.12041152099609376,1.2108586767578124
-0.4059691796875,0.06943273193359376,1.0896957421875
-0.44317029296875,0.06109966064453125,0.938795048828125
-0.2561921484375,0.02433611083984375,0.8230389794921875
-0.13243158203125,0.14246965087890626,0.7475886328125
-0.13729447265625,-0.012672529296875,0.7866655224609375
-0.2552195703125,0.1348718505859375,0.87931953125
-0.2177753125,0.1897720849609375,0.8854636962890625
-0.27540056640625,-0.06487677001953125,0.7674957275390625
-0.21753216796875,0.110852998046875,0.8608870361328125
-0.11832919921875,-0.10360104248046875,0.84786140625
-0.11443888671875,0.03561026611328125,1.0039231982421875
-0.448276328125,0.1466361865234375,1.2029941455078126
-0.40913005859375,0.1456558251953125,1.2280623388671874
-0.32281375,0.13070531494140625,1.152120458984375
-0.19175884765625,0.2083989501953125,1.0806023779296874
-0.0577862109375,0.11060790771484375,1.0894499755859375
-0.0855046875,0.17727247802734375,1.33447927734375
-0.43733482421875003,0.2623188232421875,1.4802188720703124
-0.3913805078125,0.189281904296875,1.3071991845703126
-0.33983386718749997,0.091245771484375,1.19291771484375
-0.32208431640625,0.1534987158203125,1.1056705712890624
-0.1949197265625,0.16624341308593749,1.032186357421875
-0.25303126953125,0.15913579345703124,0.946168046875
-0.27637314453125,0.0255615625,0.95894791015625
-0.31989601562500003,0.08242251953125,0.889641728515625
-0.09741876953125,-0.1386489599609375,0.814928681640625
-0.21996361328125,-0.15801109619140624,1.062661416015625
-0.34348103515625,-0.04281864013671875,1.1199250341796876
-0.3057936328125,-0.17639287109375001,1.0235845263671874
-0.2542469921875,0.03855135009765625,1.079373544921875
-0.34493990234375,-0.10899302978515625,0.9400238818359374
-0.08817927734375,-0.112669384765625,0.8540055712890625
-0.15869119140625,0.062080021972656246,1.0255506591796875
-0.24622322265625,-0.030319033203124998,1.043000087890625
-0.1803310546875,0.01649322021484375,1.1607222900390626
-0.35393625,0.1103628173828125,1.2162655419921875
-0.34445361328125,0.11771552734375,0.9759058056640625
-0.1521262890625,-0.15654055419921875,1.0284998583984375
-0.392839375,-0.04968116943359375,1.1046875048828124
-0.30409162109375,-0.0028689160156250004,0.9638632421875
-0.1939471484375,-0.11095375244140625,0.8913620947265625
-0.339347578125,0.0505607763671875,0.9827872705078124
-0.29728357421875,0.015022678222656249,0.9164302880859375
-0.0855046875,0.09394176513671874,0.915201455078125
-0.36755234375,-0.010221625976562499,0.9097945898437501
-0.2027003515625,0.110852998046875,1.1843158837890626
-0.09401474609375,-0.060710234375,1.22240970703125
-0.51149390625,-0.0803174609375,1.287783623046875
-0.36925435546875,-0.06781785400390625,1.0653648486328124
-0.1949197265625,-0.13301188232421876,0.73874103515625
-0.17425244140625,0.030708459472656248,0.60504400390625
-0.2488978125,0.1436951025390625,0.6598499560546875
-0.168173828125,0.16599832275390625,0.8245135791015625
-0.20391607421875,0.05570767333984375,1.1395863623046876
-0.35661083984374997,0.101049384765625,1.31973328125
-0.22142248046875002,-0.047965537109375,1.3376742431640625
-0.16647181640625,-0.14526639892578125,1.0597122167968749
-0.28998923828125,0.0780108935546875,0.790352021484375
-0.2659179296875,-0.0759058349609375,0.6131543017578125
-0.25935302734375,-0.0729647509765625,0.618315400390625
-0.28901666015625,-0.02468195556640625,0.72301197265625
-0.0932853125,-0.02517213623046875,0.9867195361328125
-0.05900193359375,0.18045865234375,1.186527783203125
-0.2328502734375,0.07972652587890625,1.39346326171875
-0.6053476953125,0.14516564453125,1.406734658203125
-0.42274615234375,0.0280124658203125,1.0299744580078125
-0.2065906640625,0.05423713134765625,0.95894791015625
-0.2202067578125,-0.01144707763671875,0.880794130859375
-0.210967265625,0.05717821533203125,0.8721922998046875
-0.2878009375,-0.02762303955078125,0.86359046875
-0.26859251953125,0.0427178857421875,0.78002982421875
-0.21972046875,0.02433611083984375,0.6573922900390625
-0.1803310546875,-0.03987755615234375,0.611433935546875
-0.05948822265625,-0.028113220214843748,0.700892978515625
-0.1842213671875,-0.07443529296875,0.86064126953125
-0.30457791015625,-0.01978014892578125,1.098051806640625
-0.3369161328125,-0.238155634765625,1.2005364794921876
-0.40864376953125,0.09394176513671874,1.28139369140625
-0.4584883984375,0.16060633544921876,1.152120458984375
-0.17619759765625,0.04124734375,1.106899404296875
-0.315033125,0.18854663330078125,1.134916796875
-0.31576255859375,0.0368357177734375,1.1366371630859375
-0.1210037890625,0.20815385986328125,1.0240760595703124
-0.137051328125,0.16109651611328124,0.958456376953125
-0.13097271484375,0.075559990234375,0.962388642578125
-0.20464550781250002,0.0495804150390625,1.0889584423828125
-0.32086859375,0.06624655761718751,1.1489254931640625
-0.35199109375,0.0270321044921875,1.1322133642578125
-0.3787369921875,0.044188427734375,1.0810939111328124
-0.35806970703125,0.17580193603515626,0.9940925341796875
-0.28415376953125,0.1240878759765625,0.9048792578125
-0.10082279296875,0.0003172583007812497,0.88816712890625
-0.22628537109375,0.0843832421875,1.0152284619140626
-0.36585033203125,-0.047965537109375,1.154578125
-0.1910294140625,-0.17516741943359376,1.15752732421875
-0.232363984375,-0.06879821533203125,1.08379734375
-0.16720125,-0.07222947998046875,0.947642646484375
-0.18543708984375,-0.13350206298828124,0.8717007666015625
-0.35661083984374997,0.055952763671875,0.8161575146484374
-0.29363640625,-0.013407800292968751,0.7989538525390625
-0.244034921875,0.03364954345703125,0.8068183837890625
-0.210967265625,0.02531647216796875,0.7817501904296875
-0.11006228515625,0.01796376220703125,0.70728291015625
-0.05948822265625,-0.144040947265625,0.7928096875
-0.22190876953125,-0.0006631030273437505,1.0289913916015625
-0.36366203125,0.06600146728515625,1.174239453125
-0.2250696484375,-0.09134652587890625,1.27254609375
-0.358799140625,0.11747043701171875,1.399853193359375
-0.39210994140625,0.12531332763671876,1.1916888818359375
-0.14167107421875,-0.0259074072265625,0.9198710205078124
-0.30627992187499997,0.1505576318359375,0.871946533203125
-0.36147373046875,0.22040837646484374,0.8200897802734375
-0.20464550781250002,0.01747358154296875,0.7539785644531249
-0.131215859375,0.015022678222656249,0.846386806640625
-0.2445212109375,-0.047965537109375,0.7571735302734375
-0.054868476562500004,-0.07222947998046875,0.7200627734375
-0.234309140625,-0.08840544189453126,0.7635634619140625
-0.40426716796875,0.1044806494140625,0.9532952783203125
-0.33253953125,-0.01830960693359375,1.080356611328125
-0.3631757421875,0.0103659619140625,1.18308705078125
-0.32402947265625,0.046149150390625,1.0368559228515626
-0.3281629296875,-0.1435507666015625,0.7822417236328125
-0.19953947265625,-0.09526797119140624,0.6873758154296875
-0.174009296875,0.050070595703125,0.72497810546875
-0.14312994140625,-0.1366882373046875,0.7861739892578125
-0.11249373046875,0.04345315673828125,0.976151572265625
-0.2172890234375,0.01306195556640625,0.998762099609375
-0.265431640625,0.00766996826171875,0.9223286865234375
-0.33035123046875,0.06624655761718751,0.750046298828125
-0.32208431640625,0.10619628173828125,0.6964691796875
-0.23795630859375,0.0770305322265625,0.7257154052734375
-0.22385392578125,0.03364954345703125,0.849336005859375
-0.25108611328125,0.08707923583984375,1.0307117578125
-0.28853037109375,0.0054641552734375,1.0565172509765626
-0.13024328125,0.04198261474609375,0.9591936767578125
-0.18640966796875,0.1819291943359375,0.892590927734375
-0.25254498046875,-0.067572763671875,0.7969877197265625
0.011753125,0.07629526123046874,1.0432458544921874
-0.2878009375,0.0417375244140625,1.23420650390625
-0.302389609375,-0.14085477294921875,1.2332234375
-0.35417939453125,0.06698182861328125,1.0265337255859375
-0.28196546875,-0.05115171142578125,0.8559717041015625
-0.226528515625,0.0152677685546875,0.7987080859375
-0.28512634765625,-0.0494360791015625,0.6976980126953125
-0.03298546875,-0.12418863037109375,0.7729025927734375
-0.22531279296875,-0.060710234375,0.892590927734375
-0.21996361328125,-0.05164189208984375,0.92552365234375
-0.22239505859375,-0.04526954345703125,0.8380307421875
-0.24330548828125,0.0309535498046875,0.7987080859375
-0.268349375,-0.076396015625,0.839996875
-0.18640966796875,-0.02664267822265625,0.93437125
-0.30871136718750003,0.0505607763671875,0.9704989404296875
-0.28658521484375,0.07261890625,0.9277355517578125
-0.2775888671875,0.06943273193359376,0.9011927587890625
-0.23017568359375,0.03953171142578125,0.8038691845703125
-0.199296328125,0.05276658935546875,0.809030283203125
-0.23309341796875,-0.02076051025390625,0.90389619140625
-0.27272597656249997,0.02727719482421875,1.02776255859375
-0.218747890625,0.00791505859375,1.0307117578125
-0.35126166015625,-0.05164189208984375,1.0388220556640624
-0.3077387890625,-0.0999246875,0.8613785693359375
-0.2182616015625,0.0917359521484375,0.780521357421875
-0.18640966796875,0.01698340087890625,0.8014115185546875
-0.34737134765625,-0.0366913818359375,0.98254150390625
-0.26129818359375,0.07237381591796875,1.1292641650390625
-0.27029453125,0.1799684716796875,1.2767241259765625
-0.43684853515625,0.12090170166015625,1.305478818359375
-0.2591098828125,-0.00507472900390625,1.0968229736328126
-0.2707808203125,0.0608545703125,0.9434646142578125
-0.3189234375,-0.1141399267578125,0.8825144970703125
-0.2192341796875,-0.07051384765625,0.8380307421875
-0.237226875,-0.12663953369140624,0.772656826171875
-0.2800203125,-0.0553182470703125,0.78986048828125
-0.214857578125,-0.0072805419921875,0.7384952685546875
-0.21193984375,-0.11046357177734376,0.921099853515625
-0.2970404296875,0.03708080810546875,1.2113502099609375
-0.39405509765625,0.07286399658203124,1.3774884326171875
-0.3767918359375,0.13732275390625,1.378225732421875
-0.4079143359375,-0.0004180126953125,1.1238572998046874
-0.26567478515625,-0.10997339111328125,0.932896650390625
-0.2211793359375,-0.01928996826171875,0.7741314257812499
-0.190543125,-0.05997496337890625,0.7601227294921875
-0.10519939453125,-0.03889719482421875,0.9557529443359375
-0.213885,0.0012976196289062499,1.19390078125
-0.39405509765625,0.008405239257812499,1.260749296875
-0.28172232421875,0.0593840283203125,1.3204705810546875
-0.3485870703125,0.0838930615234375,1.12410306640625
-0.3967296875,0.00276816162109375,0.9611598095703124
-0.25789416015625,-0.1955099169921875,0.9419900146484375
-0.2659179296875,-0.057769150390625,0.972219306640625
-0.18884111328125,-0.0631611376953125,0.86359046875
-0.236254296875,-0.14281549560546875,0.881777197265625
-0.1944334375,-0.06438658935546875,1.0149826953125
-0.2552195703125,-0.00948635498046875,1.2270792724609374
-0.3057936328125,0.106931552734375,1.34430994140625
-0.33253953125,-0.018554697265625,1.416565322265625
-0.4244481640625,0.0505607763671875,1.3445557080078125
-0.41034578125,0.028502646484374998,1.0751955126953125
-0.17960162109375,0.05423713134765625,0.9410069482421874
-0.259596171875,-0.06487677001953125,0.8495817724609375
-0.168173828125,-0.03301502685546875,0.7928096875
-0.05219388671875,0.01551285888671875,0.943710380859375
-0.30798193359375,0.04933532470703125,1.2398591357421875
-0.220693046875,-0.16095218017578125,1.2506728662109374
-0.361716875,0.120656611328125,1.031203291015625
-0.29776986328125,0.07188363525390624,0.8820229638671875
-0.3476144921875,0.07457962890625,0.9985163330078125
-0.2620276171875,0.0329142724609375,1.0727378466796875
-0.16185207031249998,-0.09967959716796874,0.9056165576171875
-0.31187224609374997,-0.024436865234375,0.9233117529296875
-0.24768208984375,-0.132276611328125,0.846386806640625
-0.11103486328125,0.026541923828125,0.8112421826171875
-0.25838044921875,-0.00213364501953125,0.9306847509765624
-0.31089966796875,0.01894412353515625,1.0968229736328126
-0.3077387890625,0.03659062744140625,1.015474228515625
-0.2717533984375,0.0608545703125,0.9567360107421875
-0.2878009375,0.10276501708984374,0.897506259765625
-0.2075632421875,0.11256863037109376,0.860149736328125
-0.19856689453125,0.05080586669921875,0.938795048828125
-0.175954453125,0.05962911865234375,1.0395593554687501
-0.36633662109375,0.034384814453125,1.0520934521484375
-0.312115390625,0.0765403515625,1.1368829296875
-0.3242726171875,0.13462676025390624,1.122628466796875
-0.2513292578125,-0.01095689697265625,1.035135556640625
-0.30141703125,0.09100068115234375,0.9857364697265625
-0.2411171875,-0.03595611083984375,0.829674677734375
-0.067025703125,0.06624655761718751,0.8225474462890625
-0.298499296875,-0.01193725830078125,0.817877880859375
-0.18495080078125,0.008895419921875,0.99827056640625
-0.27588685546875,0.015022678222656249,1.208155244140625
-0.3388612890625,-0.20359789794921876,1.240596435546875
-0.31868029296875,-0.06193568603515625,1.072492080078125
-0.3777644140625,-0.07370002197265625,0.8775991650390624
-0.15382830078125,-0.0960032421875,0.8240220458984375
-0.2785614453125,0.01649322021484375,0.923065986328125
-0.1696326953125,0.12482314697265626,1.040050888671875
-0.28634207031250003,-0.05752406005859375,1.00810123046875
-0.2367405859375,-0.0013983740234375002,0.9287186181640625
-0.12270580078125,-0.17639287109375001,0.82525087890625
-0.2318776953125,-0.14183513427734376,0.7908435546875
-0.20926525390625,-0.030073942871093752,0.8869382958984375
-0.3111428125,-0.03129939453125,1.0904330419921875
-0.47259078125,-0.0621807763671875,1.0963314404296876
-0.39794541015625,-0.00801581298828125,1.0697886474609375
-0.30652306640625,0.04541387939453125,0.8773533984374999
-0.15042427734375,0.06796218994140625,0.833606943359375
-0.18689595703125,0.228496357421875,1.04545775390625
-0.31576255859375,0.07139345458984375,1.1882481494140624
-0.28391062499999997,0.11403917236328125,1.2646815625
-0.430769921875,0.01404231689453125,1.1523662255859375
-0.25011353515625,-0.12516899169921875,0.972219306640625
-0.19710802734375,-0.0504164404296875,0.7940385205078125
-0.35077537109375,-0.06732767333984375,0.6470700927734375
-0.21121041015625,-0.09526797119140624,0.631586796875
-0.3592854296875,-0.0621807763671875,0.829674677734375
-0.3515048046875,-0.16928525146484374,0.9972875
-0.29825615234375,-0.18202994873046874,0.9813126708984374
-0.11298001953125,-0.1210024560546875,0.86359046875
-0.2309051171875,-0.248939609375,0.8368019091796874
-0.27637314453125,-0.0955130615234375,0.991880634765625
-0.29728357421875,0.04051207275390625,1.129509931640625
-0.32013916015625,0.0069346972656249995,1.223884306640625
-0.35077537109375,-0.0009081933593750001,1.316292548828125
-0.33764556640625,0.0613447509765625,1.181612451171875
-0.2843969140625,-0.0268877685546875,0.9601767431640625
-0.24136033203125,-0.0023787353515625003,0.84786140625
-0.1501811328125,0.13560712158203125,0.9542783447265625
-0.27345541015625,0.00668960693359375,1.1194335009765626
-0.21607330078125,-0.044534272460937496,1.3386573095703125
-0.30627992187499997,-0.03693647216796875,1.31678408203125
-0.36536404296875,-0.020515419921875,1.2334692041015625
-0.38457246093749997,-0.03938737548828125,1.075441279296875
-0.27248283203125,-0.0621807763671875,0.9567360107421875
-0.28998923828125,-0.0567887890625,0.9601767431640625
-0.2814791796875,0.01551285888671875,1.103950205078125
-0.29242068359375,-0.106787216796875,1.145238994140625
-0.18786853515625002,-0.07958218994140626,1.05332228515625
-0.28561263671875,-0.11144393310546875,0.8913620947265625
-0.20440236328125,-0.1778634130859375,0.848352939453125
-0.17814275390625,-0.14183513427734376,0.8938197607421875
-0.2484115234375,-0.206784072265625,0.86260740234375
-0.21996361328125,-0.09379742919921875,0.885709462890625
-0.1783858984375,-0.069533486328125,0.859658203125
-0.294608984375,-0.0317895751953125,0.757419296875
-0.20415921875,-0.0602200537109375,0.7139186083984375
-0.17425244140625,-0.00409436767578125,0.71711357421875
-0.14993798828125,0.0270321044921875,0.7930554541015625
-0.22190876953125,0.021885207519531248,0.9321593505859375
-0.22361078125,0.0025230712890624996,0.9577190771484375
-0.23357970703125,0.0417375244140625,1.0520934521484375
-0.2566784375,-0.010711806640625,0.9646005419921875
-0.17668388671875,-0.016593974609375,0.850319072265625
-0.11322316406249999,0.01183650390625,0.89504859375
-0.2722396875,0.024581201171875,0.97860923828125
-0.19346085937500002,0.04982550537109375,1.1091113037109375
-0.26761994140625,0.04590406005859375,1.101984072265625
-0.31965287109375,-0.03840701416015625,0.9985163330078125
-0.1321884375,-0.0151234326171875,0.86064126953125
-0.28998923828125,-0.11193411376953125,0.910286123046875
-0.20415921875,0.11992134033203125,1.136391396484375
-0.35855599609375,0.09345158447265625,1.1646545556640624
-0.3500459375,-0.15997181884765624,0.994829833984375
-0.17522501953125,-0.14036459228515624,0.8687515673828125
-0.27783201171875,-0.03129939453125,0.7613515625
-0.18495080078125,-0.19820591064453125,0.7124440087890624
-0.13680818359375,-0.17639287109375001,0.7512751318359375
-0.23698373046875,0.03217900146484375,0.8574463037109374
-0.2610550390625,0.10129447509765625,1.001711298828125
-0.3811684375,0.08315779052734375,1.093136474609375
-0.442440859375,0.13707766357421874,0.98057537109375
-0.23260712890625002,-0.06830803466796875,0.8372934423828124
-0.09255587890625,-0.15678564453125,0.7539785644531249
-0.36050115234375,-0.0210056005859375,0.637976728515625
-0.25108611328125,-0.07664110595703125,0.537703955078125
-0.1676875390625,-0.17247142578125,0.476753837890625
-0.199296328125,-0.159726728515625,0.513127294921875
-0.17960162109375,0.0417375244140625,0.6996641455078125
-0.298499296875,0.0358553564453125,0.921099853515625
-0.22725794921875,0.0495804150390625,1.096085673828125
-0.33181009765625,0.11501953369140624,1.2587831640625
-0.455084375,0.02580665283203125,1.130492998046875
-0.11857234375,0.08903995849609375,0.891116328125
-0.26713365234374997,0.17874302001953124,0.863098935546875
-0.41788326171875,0.0711483642578125,0.8579378369140624
-0.154557734375,-0.06928839599609375,0.853268271484375
-0.16404037109375,-0.19207865234375,0.7679872607421875
-0.11857234375,-0.25653740966796873,0.74463943359375
-0.0636216796875,-0.09477779052734375,0.828200078125
-0.30846822265625,0.06109966064453125,0.8402426416015625
-0.09887763671875,0.01551285888671875,0.7837163232421875
-0.09839134765625,0.01012087158203125,0.9213456201171875
-0.060947089843749996,0.08242251953125,1.041033955078125
-0.18300564453125,0.0035034326171875,1.2855717236328126
-0.31430369140625003,0.0829127001953125,1.591551142578125
-0.41496552734375003,0.0701680029296875,1.67855251953125
-0.50152498046875,-0.0749254736328125,1.382157998046875
-0.36366203125,0.03266918212890625,1.042017021484375
-0.407428046875,-0.12173772705078124,0.6686975537109375
-0.0305540234375,-0.17026561279296876,0.5168137939453125
0.0336361328125,-0.098944326171875,0.626179931640625
-0.25862359375,-0.12418863037109375,0.73087650390625
-0.158448046875,-0.1347275146484375,0.69745224609375
-0.1005796484375,-0.15408965087890625,0.7866655224609375
-0.3111428125,0.07384435791015626,0.953541044921875
-0.16744439453124998,0.05864875732421875,0.923065986328125
-0.07407689453124999,-0.0562986083984375,1.145238994140625
-0.45046462890625,0.204967685546875,1.4517099462890626
-0.6111831640625,0.25815228759765624,1.47210857421875
-0.63379560546875,0.20913422119140626,1.153103525390625
-0.2056180859375,0.2231043701171875,1.0137538623046876
-0.08623412109375,0.05374695068359375,1.146222060546875
-0.18981369140625,-0.2935460498046875,1.2113502099609375
-0.1589343359375,-0.03987755615234375,1.1852989501953124
-0.259596171875,-0.03301502685546875,0.7512751318359375
-0.405482890625,0.01183650390625,0.6215103662109375
-0.40086314453125,-0.07271966064453125,0.641908994140625
-0.17911533203125,-0.17222633544921875,0.628146064453125
-0.35174794921875,0.0623251123046875,0.59717947265625
-0.2620276171875,0.09933375244140626,0.4740504052734375
-0.06289224609374999,-0.13448242431640625,0.4327616162109375
-0.21510072265625,-0.00311400634765625,0.6229849658203125
-0.3904079296875,0.14933218017578126,0.9105318896484375
-0.22093619140625,-0.0803174609375,1.230765771484375
-0.22239505859375,-0.02272123291015625,1.7520367333984375
-0.59975537109375,0.0564429443359375,1.7650623632812499
-0.25011353515625,-0.0661022216796875,1.2548508984375
-0.522192265625,-0.036201201171875,1.0395593554687501
-0.23795630859375,0.0966377587890625,0.9739396728515625
-0.25351755859375,0.044188427734375,1.0874838427734375
-0.2211793359375,0.1907524462890625,1.11820466796875
-0.19224513671875,0.16403760009765625,0.9051250244140625
-0.1093328515625,-0.12541408203125,0.845403740234375
-0.08307324218750001,-0.2298225634765625,1.0112961962890625
-0.2795340234375,-0.20065681396484375,1.289749755859375
-0.403537734375,-0.046740085449218746,1.43475205078125
-0.4594609765625,-0.01585870361328125,1.3887936962890626
-0.53507892578125,-0.04526954345703125,1.107882470703125
-0.26275705078125,-0.0798272802734375,0.92355751953125
-0.09644619140624999,-0.0254172265625,0.9252778857421875
-0.240144609375,0.0868341455078125,1.04152548828125
-0.1968648828125,0.00963069091796875,1.148188193359375
-0.21607330078125,0.0789912548828125,1.2718087939453124
-0.28366748046875,0.0515411376953125,1.1626884228515626
-0.16355408203125,-0.06585713134765625,1.0009739990234374
-0.14847912109375,0.06011929931640625,0.977626171875
-0.33108066406250003,0.05276658935546875,0.91176072265625
-0.2099946875,-0.0881603515625,0.934862783203125
-0.40913005859375,0.12947986328125,1.1356540966796875
-0.51222333984375,0.0956573974609375,1.2555881982421875
-0.32159802734375,0.02360083984375,1.2233927734375
-0.3553951171875,0.096147578125,1.1209081005859376
-0.187625390625,-0.03522083984375,0.9591936767578125
-0.1015522265625,-0.1665892578125,0.9203625537109374
-0.20537494140625,-0.047965537109375,1.0228472265625
-0.4939875,-0.0190448779296875,1.0289913916015625
-0.11054857421875,-0.06585713134765625,1.1341794970703125
-0.2912049609375,-0.03938737548828125,1.1484339599609374
-0.23406599609375,0.15325362548828125,1.05332228515625
-0.20415921875,-0.14379585693359376,0.772656826171875
-0.10763083984374999,-0.0827683642578125,0.8658023681640625
-0.37752126953125,-0.063651318359375,0.888658662109375
-0.354908828125,-0.2254109375,0.8852179296875
-0.187625390625,-0.1798241357421875,1.08478041015625
-0.36585033203125,0.0137972265625,1.2044687451171874
-0.280992890625,0.03561026611328125,1.11623853515625
-0.26664736328125,-0.01046671630859375,1.083305810546875
-0.27929087890625,0.17972338134765625,1.1857904833984374
-0.4511940625,0.11698025634765626,1.0928907080078125
-0.25157240234375,0.11747043701171875,1.0535680517578125
-0.2552195703125,0.01404231689453125,0.946168046875
-0.16841697265625,-0.02149578125,0.7950215869140624
-0.11468203125,-0.12761989501953125,0.642892060546875
-0.1005796484375,-0.11144393310546875,0.61192546875
-0.2172890234375,-0.02664267822265625,0.66402798828125
-0.27029453125,-0.17908886474609376,0.636010595703125
-0.2561921484375,-0.08791526123046875,0.788877421875
-0.38481560546875,-0.15678564453125,0.813945615234375
-0.19078626953125,-0.09722869384765626,0.7792925244140625
-0.2659179296875,-0.02762303955078125,0.7729025927734375
-0.2007551953125,-0.04379900146484375,0.9992536328125
-0.403537734375,-0.037916833496093746,1.154578125
-0.32208431640625,0.079481435546875,1.213070576171875
-0.16744439453124998,-0.046740085449218746,1.1730106201171875
-0.13024328125,0.03659062744140625,1.1120605029296875
-0.14750654296875,0.0682072802734375,0.9331424169921875
-0.23017568359375,0.03806116943359375,0.878827998046875
-0.26056875,-0.0009081933593750001,1.0501273193359375
-0.26227076171875,0.1544790771484375,1.205206044921875
-0.3777644140625,-0.0055649096679687505,1.122628466796875
-0.3656071875,-0.008996174316406251,1.0648733154296874
-0.26372962890625,-0.07124911865234375,0.9009469921875
-0.2955815625,-0.11487519775390626,0.7493089990234375
-0.22628537109375,-0.13644314697265625,0.6824604833984375
-0.19321771484375,0.0740894482421875,0.8515479052734375
-0.26154132812499997,0.0348749951171875,1.0948568408203125
-0.24038775390625,-0.04281864013671875,1.1769428857421875
-0.1827625,-0.173451787109375,1.0835515771484374
-0.2255559375,-0.07664110595703125,0.89209939453125
-0.35515197265625,-0.0004180126953125,0.7060540771484375
-0.185680234375,-0.10972830078125,0.53229708984375
-0.1083602734375,-0.02076051025390625,0.4666774072265625
-0.04344068359375,0.093206494140625,0.5984083056640626
-0.0733474609375,0.0211499365234375,0.950591845703125
-0.3748466796875,-0.015368522949218751,1.1936550146484375
-0.28804408203125,0.07923634521484375,1.3465218408203126
-0.58127638671875,-0.014633251953124999,1.4413877490234375
-0.41593810546875,0.0544822216796875,1.186527783203125
-0.22142248046875002,-0.12075736572265625,0.8854636962890625
-0.2892598046875,-0.05458297607421875,0.6416632275390625
-0.12513724609375,-0.03987755615234375,0.550483818359375
0.0647586328125,0.02360083984375,0.6057813037109375
0.00810595703125,0.1495772705078125,1.0142453955078126
-0.19564916015625,0.13560712158203125,1.3735561669921874
-0.257651015625,-0.08595453857421875,1.4399131494140625
-0.1404553515625,0.0025230712890624996,1.243545634765625
-0.1832487890625,0.0133070458984375,0.8948028271484375
-0.3096839453125,-0.20310771728515625,0.931913583984375
-0.44365658203125,0.030708459472656248,1.1041959716796874
-0.35199109375,-0.118551552734375,1.164900322265625
-0.26956509765625,-0.012672529296875,1.0319405908203125
-0.09693248046875,0.03217900146484375,1.0280083251953125
-0.1676875390625,0.2162418408203125,1.099034873046875
-0.221665625,0.3025136376953125,1.033169423828125
-0.06580998046875,0.18315464599609374,0.99630443359375
-0.1399690625,0.0574233056640625,1.0643817822265624
-0.32597462890625,-0.0513968017578125,1.0034316650390624
-0.35369310546875,-0.1033559521484375,0.8623616357421875
-0.26032560546875,-0.1582561865234375,0.843929140625
-0.174981875,-0.0710040283203125,0.7751144921875
-0.0777240625,0.0829127001953125,0.955507177734375
-0.4497351953125,0.16795904541015624,1.3116229833984374
-0.40329458984375,-0.00262382568359375,1.446057314453125
-0.1530988671875,-0.1111988427734375,1.5458385546875
-0.432715078125,-0.19036302001953126,1.476532373046875
-0.25886673828125,-0.14379585693359376,1.27352916015625
-0.37946642578125,-0.20016663330078124,0.978117705078125
-0.3835998828125,-0.07320984130859375,0.7158847412109375
-0.086477265625,0.048109873046875,0.554416083984375
0.02463978515625,0.081442158203125,0.9061080908203125
-0.33108066406250003,0.11305881103515625,1.175714052734375
-0.4137498046875,0.03953171142578125,1.199307646484375
-0.34445361328125,0.09688284912109375,0.802148818359375
-0.14507509765624998,-0.202862626953125,0.6249510986328125
-0.00696900390625,-0.200901904296875,0.6677144873046875
-0.1433730859375,-0.28104644287109376,1.072000546875
-0.3913805078125,-0.02909358154296875,1.1250861328125
-0.42371873046874997,0.04345315673828125,1.0899415087890625
-0.329621796875,0.0270321044921875,1.097068740234375
-0.2022140625,0.03904153076171875,1.2064348779296874
-0.16015005859375,0.02090484619140625,1.2275708056640624
-0.16015005859375,0.19148771728515626,1.2423168017578126
-0.13097271484375,0.00570924560546875,0.9695158740234375
-0.19856689453125,0.04933532470703125,0.867031201171875
-0.299471875,0.0064445166015625,0.893573994140625
-0.3271903515625,-0.11757119140625,1.03661015625
-0.26810623046875,-0.12761989501953125,1.05332228515625
-0.22482650390625,0.021885207519531248,1.0801108447265624
-0.32111173828125,-0.0759058349609375,1.0073639306640625
-0.27296912109375,0.02237538818359375,1.154086591796875
-0.38043900390625,0.21501638916015625,1.303512685546875
-0.43174250000000003,0.306925263671875,1.353649072265625
-0.2347954296875,0.25276030029296875,1.15359505859375
0.04214619140625,0.1417343798828125,1.2172486083984375
-0.438550546875,0.15472416748046874,1.285817490234375
-0.28512634765625,-0.05360261474609375,1.16145958984375
-0.039307226562500006,-0.0955130615234375,1.1764513525390625
-0.28755779296875,-0.1273748046875,1.035135556640625
-0.1667149609375,-0.00507472900390625,0.8726838330078125
-0.11832919921875,-0.13448242431640625,0.7384952685546875
-0.1103054296875,-0.06732767333984375,0.84294607421875
-0.24330548828125,-0.1955099169921875,1.0643817822265624
-0.33326896484375,-0.0866898095703125,1.237155703125
-0.2474389453125,0.1103628173828125,1.313343349609375
-0.42809533203125,0.06060947998046875,1.16244265625
-0.28123603515625,-0.05997496337890625,0.8982435595703124
-0.11298001953125,-0.233253828125,0.7871570556640625
-0.02836572265625,-0.1494329345703125,0.7021218115234376
-0.09887763671875,-0.08007237060546875,0.5566279833984376
-0.032499179687500004,-0.029338671875,0.41334605468749996
-0.1229489453125,-0.10972830078125,0.389260927734375
-0.07504947265625,-0.09330724853515625,0.3531332373046875
-0.003808124999999999,0.0505607763671875,0.588823408203125
-0.0597313671875,0.07482471923828125,0.9886856689453125
-0.34348103515625,0.22285927978515624,1.2614865966796875
-0.44560173828125,0.3191797802734375,1.407717724609375
-0.4434134375,-0.0141430712890625,1.229291171875
-0.16355408203125,0.05913893798828125,1.106899404296875
-0.14896541015625,0.216732021484375,1.0727378466796875
-0.33472783203125,0.11158826904296874,1.049881552734375
-0.01280447265625,0.0721287255859375,1.1179589013671876
-0.097175625,0.099088662109375,1.245511767578125
-0.36439146484375,0.057913486328125,1.2496897998046874
-0.39843169921875,-0.04526954345703125,1.0604495166015624
-0.27199654296875,0.0358553564453125,0.8771076318359375
-0.21169669921875,0.0397768017578125,0.5507295849609375
-0.1492085546875,0.048109873046875,0.45561791015625
-0.14993798828125,-0.1430605859375,0.386311728515625
-0.16841697265625,-0.13717841796875,0.3796760302734375
-0.3072525,-0.0366913818359375,0.490516767578125
-0.31868029296875,-0.1278649853515625,0.514110361328125
-0.27345541015625,-0.1445311279296875,0.59619640625
-0.138996484375,0.01208159423828125,0.72202890625
-0.3344846875,-0.01879978759765625,0.864082001953125
-0.3777644140625,-0.12222790771484375,0.9759058056640625
-0.22361078125,-0.0268877685546875,0.9390408154296875
-0.22288134765625,-0.1347275146484375,0.686638515625
-0.2260422265625,-0.196980458984375,0.5802215771484375
-0.2260422265625,0.0162481298828125,0.5856284423828125
-0.10422681640625,0.010611052246093749,0.4998558984375
-0.2007551953125,-0.03350520751953125,0.6075016699218749
-0.28269490234375,0.14492055419921876,0.936828916015625
-0.3291355078125,0.1985953369140625,1.072492080078125
-0.36755234375,0.05864875732421875,0.9820499707031249
-0.29631099609375,-0.060710234375,0.89013326171875
-0.09547361328125001,-0.11536537841796875,0.90193005859375
-0.25351755859375,0.01747358154296875,0.9835245703125
-0.20440236328125,-0.01781942626953125,0.9513291455078126
-0.14361623046875,-0.2415868994140625,1.0346440234375
-0.3942982421875,0.0574233056640625,1.243545634765625
-0.286828359375,0.1485969091796875,1.1671122216796874
-0.1492085546875,0.044188427734375,1.121645400390625
-0.44317029296875,0.05276658935546875,1.1602307568359376
-0.21218298828125,-0.09428760986328125,1.0540595849609375
-0.0859909765625,-0.17639287109375001,1.022355693359375
-0.2153438671875,0.10668646240234375,0.9660751416015625
-0.201241484375,-0.05801424072265625,1.0609410498046874
-0.207076953125,-0.024436865234375,1.4423708154296875
-0.44219771484375,0.13707766357421874,1.575330546875
-0.4944737890625,0.2927100244140625,1.41410765625
-0.4273658984375,0.08903995849609375,1.323665546875
-0.384086171875,-0.0886505322265625,1.18898544921875
-0.34785763671875003,-0.0710040283203125,0.8751414990234375
-0.1161408984375,-0.2082546142578125,0.7011387451171875
-0.06386482421875,-0.23791054443359375,0.5979167724609376
-0.032499179687500004,-0.20849970458984374,0.7792925244140625
-0.2367405859375,-0.0259074072265625,1.01596576171875
-0.43538966796875,0.028502646484374998,1.1975872802734375
-0.47526537109375,0.17286085205078125,1.3553694384765624
-0.3505322265625,0.014777587890624999,1.2781987255859375
-0.34056330078125,0.143204921875,1.1292641650390625
-0.279047734375,-0.037916833496093746,0.94223578125
-0.34348103515625,-0.13056097900390626,0.7751144921875
0.0020273437500000005,-0.10311086181640625,0.6957318798828125
-0.057543066406249996,-0.0028689160156250004,0.9788550048828125
-0.15674603515625,-0.05654369873046875,1.14573052734375
0.1377019921875,0.06453092529296875,1.36593740234375
-0.23552486328125,0.1941837109375,1.872708134765625
-0.7434537890625,0.19687970458984375,1.909573125
-0.35126166015625,0.09590248779296875,1.4551506787109374
-0.2698082421875,0.1005592041015625,1.21454517578125
-0.19419029296875,0.10864718505859375,1.0275167919921875
0.0171023046875,0.032424091796875,1.039067822265625
-0.1511537109375,-0.0249270458984375,1.3750307666015624
-0.39162365234375,0.04345315673828125,1.7731726611328125
-0.34785763671875003,-0.07320984130859375,1.8449365087890626
-0.3889490625,0.056933125,1.8075799853515626
-0.20829267578125,0.0289928271484375,1.3917428955078126
-0.29971501953125,0.18168410400390625,0.9798380712890625
-0.2853694921875,-0.07419020263671874,0.7247323388671875
-0.2571647265625,-0.0494360791015625,0.580958876953125
-0.15334201171875,-0.0435539111328125,0.6082389697265624
-0.28123603515625,0.0123266845703125,0.8839890966796875
-0.2192341796875,0.09590248779296875,1.01399962890625
-0.08428896484375001,-0.02860340087890625,1.0503730859375
-0.2853694921875,0.04982550537109375,0.8891501953125
-0.2591098828125,0.00717978759765625,0.8107506494140625
-0.16063634765625,-0.14869766357421876,0.6549346240234375
-0.18859796875,-0.05311243408203125,0.7851909228515626
-0.32597462890625,0.01894412353515625,0.872929599609375
-0.2566784375,-0.12761989501953125,0.866048134765625
-0.31697828125,-0.0033590966796874996,0.6898334814453125
-0.240144609375,-0.0141430712890625,0.6279002978515625
-0.19467658203125,-0.04575972412109375,0.5826792431640625
-0.183735078125,0.091245771484375,0.6593584228515625
-0.08574783203125,0.1079119140625,0.79772501953125
-0.27637314453125,0.0887948681640625,1.0098215966796875
-0.24695265625,0.09982393310546875,1.1390948291015626
-0.2532744140625,0.13952856689453125,1.2194605078125
-0.23357970703125,0.12727405029296876,1.058729150390625
-0.1725504296875,0.08658905517578125,0.8756330322265625
-0.240144609375,-0.05262225341796875,0.832623876953125
-0.07188859375000001,0.05913893798828125,0.9169218212890625
-0.166228671875,-0.0749254736328125,0.9272440185546875
-0.39259623046875003,-0.013407800292968751,1.0265337255859375
-0.36001486328125,-0.10115013916015625,0.853268271484375
-0.1326747265625,-0.1396293212890625,0.7276815380859375
-0.1171134765625,-0.07713128662109375,0.73480876953125
-0.0286088671875,-0.13154134033203124,0.897506259765625
-0.213885,0.04443351806640625,1.1838243505859376
-0.43441708984375,0.1628121484375,1.2909785888671874
-0.3660934765625,0.07531489990234375,1.090187275390625
-0.15820490234375,0.11845079833984375,0.979100771484375
-0.26518849609375,0.01992448486328125,0.733825703125
-0.18154677734375,0.0010525292968750002,0.580958876953125
-0.08866556640625001,-0.04526954345703125,0.495432099609375
-0.09693248046875,-0.05801424072265625,0.499364365234375
-0.1073876953125,-0.11977700439453125,0.5684247802734375
-0.127325546875,0.0008074389648437498,0.762826162109375
-0.26810623046875,0.063795654296875,0.9911433349609375
-0.36463460937500003,0.03168882080078125,1.111323203125
-0.3670660546875,0.16158669677734375,1.0702801806640625
-0.2707808203125,0.1799684716796875,0.9400238818359374
-0.16258150390625,0.0378160791015625,0.822793212890625
-0.15164,0.1525183544921875,0.8078014501953125
-0.263486484375,-0.004829638671875,0.7099863427734375
-0.01669478515625,-0.06732767333984375,0.7468513330078125
-0.02009880859375,-0.12418863037109375,0.8191067138671875
-0.22482650390625,-0.03448556884765625,0.8269712451171874
-0.12708240234375,-0.0298288525390625,0.9127437890625
-0.16185207031249998,0.02776737548828125,1.074458212890625
-0.27929087890625,0.1015395654296875,1.1902142822265624
-0.2177753125,0.057668395996093746,1.315309482421875
-0.26713365234374997,0.02335574951171875,1.2688595947265624
-0.34032015625,0.11109808837890625,0.997779033203125
-0.18543708984375,0.053992041015625,0.8495817724609375
0.006647089843749999,-0.00213364501953125,0.8977520263671875
-0.17717017578125,0.0936966748046875,1.114763935546875
-0.23503857421875,0.10178465576171875,1.1005094726562499
-0.15431458984375,0.03315936279296875,0.9609140429687499
-0.17303671874999998,0.17188049072265624,0.8992266259765624
-0.16501294921875,-0.030073942871093752,0.84097994140625
-0.1258666796875,-0.026397587890625,0.8544971044921875
-0.2688356640625,0.153988896484375,0.8839890966796875
-0.36390517578125,0.02972809814453125,0.83311541015625
-0.3189234375,-0.01732924560546875,0.743164833984375
-0.21218298828125,0.134381669921875,0.721537373046875
-0.220693046875,0.1044806494140625,0.7748687255859374
-0.22385392578125,0.07090327392578125,1.0447204541015624
-0.24525064453125,0.17653720703125,1.3927259619140624
-0.3111428125,0.0691876416015625,1.4079634912109376
-0.21655958984375,0.087324326171875,1.411649990234375
-0.10301109375,0.1485969091796875,1.332021611328125
-0.401592578125,-0.0141430712890625,1.1459762939453124
-0.4020788671875,0.09688284912109375,1.0039231982421875
-0.21996361328125,0.06011929931640625,0.810996416015625
-0.30749564453125,-0.05874951171875,0.6809858837890626
-0.14604767578125,-0.0567887890625,0.7050710107421875
-0.10860341796875,-0.1004148681640625,0.742181767578125
-0.29144810546875,-0.09379742919921875,0.8893959619140624
-0.28512634765625,0.03168882080078125,0.9700074072265625
-0.090367578125,0.08953013916015624,0.9778719384765625
-0.2464663671875,0.15521434814453125,1.04742388671875
-0.2133987109375,0.165753232421875,1.1071451708984374
-0.1881116796875,0.1838899169921875,1.1951296142578125
-0.1881116796875,0.13266603759765624,1.296631220703125
-0.35904228515625003,0.103010107421875,1.1135351025390625
-0.13923962890625,0.07457962890625,1.019406494140625
-0.2221519140625,0.04786478271484375,0.9704989404296875
-0.17571130859375,0.0515411376953125,0.9469053466796875
-0.1278118359375,0.08242251953125,0.9365831494140625
-0.22336763671875,0.1015395654296875,1.0978060400390626
-0.2221519140625,0.0064445166015625,1.272054560546875
-0.31746457031249997,0.01649322021484375,1.2821309912109375
-0.24379177734375002,0.16403760009765625,1.2332234375
-0.31333111328125,-0.00777072265625,0.9980247998046875
-0.2017277734375,0.052031318359375,0.991880634765625
-0.399647421875,0.053992041015625,0.9690243408203125
-0.05511162109375,0.11256863037109376,1.1115689697265625
-0.26664736328125,0.030708459472656248,1.179646318359375
-0.3203823046875,-0.035711020507812496,1.224867373046875
-0.13413359375,0.04688442138671875,1.1135351025390625
-0.28464005859375,-0.00801581298828125,0.974185439453125
-0.23309341796875,-0.0072805419921875,0.9267524853515625
-0.1424005078125,-0.024436865234375,0.89603166015625
-0.2163164453125,-0.01585870361328125,0.9670582080078125
-0.2318776953125,-0.01487834228515625,0.9306847509765624
-0.16209521484375,0.1172253466796875,0.9002096923828125
-0.2644590625,-0.01683906494140625,0.9287186181640625
-0.26275705078125,0.0329142724609375,1.0211268603515624
-0.1477496875,0.108892275390625,0.9985163330078125
-0.34591248046875,-0.00213364501953125,0.9926179345703126
-0.152612578125,0.06624655761718751,1.0732293798828125
-0.2347954296875,0.1397736572265625,1.111814736328125
-0.1710915625,0.093206494140625,1.1449932275390624
-0.30846822265625,0.0172284912109375,1.04742388671875
-0.160393203125,-0.00409436767578125,0.9402696484374999
-0.1326747265625,-0.008751083984375,0.839996875
-0.12854126953125,-0.024436865234375,0.8363103759765624
-0.1472633984375,0.0623251123046875,0.882760263671875
-0.05997451171875,0.0682072802734375,1.039067822265625
-0.40426716796875,0.11894097900390625,1.147205126953125
-0.32694720703125,0.148106728515625,1.154086591796875
-0.2411171875,0.03266918212890625,0.9646005419921875
-0.29631099609375,0.0319339111328125,0.94223578125
-0.1258666796875,0.04198261474609375,0.8933282275390625
-0.32305689453124997,-0.07026875732421875,0.8498275390625
-0.16793068359375,-0.047965537109375,0.8348357763671875
-0.25546271484375,0.093206494140625,0.7807671240234375
-0.10471310546875,-0.02713285888671875,0.8537598046875
-0.205131796875,-0.098944326171875,0.8392595751953125
-0.06799828125,-0.008996174316406251,0.909303056640625
-0.27929087890625,0.08168724853515624,0.8820229638671875
-0.14167107421875,0.05276658935546875,0.8783364648437499
-0.21412814453125,0.1074217333984375,0.98843990234375
-0.30627992187499997,0.18217428466796876,0.965829375
-0.1589343359375,0.0329142724609375,0.8613785693359375
-0.271267109375,0.03364954345703125,0.9395323486328125
-0.14969484375,0.01404231689453125,0.9626344091796875
-0.154557734375,0.055952763671875,0.8397511083984375
-0.109819140625,-0.0396324658203125,0.901438525390625
-0.1958923046875,0.099088662109375,1.0307117578125
-0.2542469921875,0.159871064453125,1.176697119140625
-0.2411171875,0.06453092529296875,1.2388760693359375
-0.22628537109375,0.14835181884765625,1.0963314404296876
-0.1715778515625,0.075559990234375,0.9097945898437501
-0.26032560546875,-0.02468195556640625,0.9262609521484375
-0.2095083984375,0.08021670654296875,0.881777197265625
-0.15164,0.056933125,0.8574463037109374
-0.26470220703125,0.014777587890624999,0.971236240234375
-0.31868029296875,0.0030132519531249997,1.0712632470703125
-0.2231244921875,0.128499501953125,1.1484339599609374
-0.30944080078125,-0.0161037939453125,0.9095488232421876
-0.03906408203125,-0.05213207275390625,0.7969877197265625
-0.16185207031249998,0.00570924560546875,0.8262339453125
-0.226528515625,-0.1102184814453125,0.9120064892578125
-0.255705859375,-0.0700236669921875,0.993355234375
-0.2309051171875,0.01551285888671875,0.98254150390625
-0.25059982421875,-0.00409436767578125,0.9665666748046875
-0.18300564453125,-0.02370159423828125,0.9149556884765625
-0.24719580078125,0.03708080810546875,0.799199619140625
-0.232363984375,0.0922261328125,0.844420673828125
-0.18300564453125,0.118695888671875,1.0071181640625
-0.25886673828125,0.09737302978515625,1.0835515771484374
-0.12319208984375,0.12433296630859375,1.04349162109375
-0.1871391015625,0.110852998046875,0.945676513671875
-0.2177753125,0.024091020507812498,0.9272440185546875
-0.15236943359375,0.07384435791015626,0.855234404296875
-0.22677166015625,0.081442158203125,0.828200078125
-0.27880458984375,0.02433611083984375,0.9198710205078124
-0.27005138671875,0.0564429443359375,0.93142205078125
-0.20926525390625,0.08756941650390625,0.89799779296875
-0.2571647265625,0.012816865234374999,0.848352939453125
-0.11200744140625,0.0035034326171875,0.812962548828125
-0.21072412109375,0.17040994873046875,0.883251796875
-0.314060546875,0.075559990234375,0.994829833984375
-0.11006228515625,0.1044806494140625,1.198324580078125
-0.2552195703125,0.03928662109375,1.3263689794921876
-0.25497642578125,0.10202974609375,1.3942005615234374
-0.197351171875,-0.03546593017578125,1.288766689453125
-0.31965287109375,-0.01438816162109375,1.1474508935546874
-0.24233291015625,0.1113431787109375,1.0865007763671874
-0.3281629296875,-0.02664267822265625,1.0280083251953125
-0.263486484375,-0.0308092138671875,1.0933822412109375
-0.314060546875,-0.01978014892578125,1.0683140478515625
-0.142886796875,0.0642858349609375,1.02088109375
-0.1492085546875,0.01747358154296875,0.89603166015625
-0.14702025390625,0.03757098876953125,0.892590927734375
-0.13680818359375,0.01159141357421875,0.9729566064453125
-0.1579617578125,0.0010525292968750002,1.0702801806640625
-0.37849384765625,-0.016593974609375,1.10837400390625
-0.2999581640625,-0.01144707763671875,0.871455
-0.27588685546875,-0.01389798095703125,0.6642737548828125
-0.152612578125,-0.0053198193359375,0.5453227197265624
-0.15820490234375,0.1113431787109375,0.640925927734375
-0.07577890625,0.08805959716796875,0.776589091796875
-0.2542469921875,0.09688284912109375,1.0014655322265624
-0.28901666015625,-0.0210056005859375,1.1880023828125
-0.277102578125,0.1201664306640625,1.2319946044921875
-0.29509527343749997,-0.10801266845703125,0.93732044921875
-0.06532369140625,0.11305881103515625,0.894557060546875
-0.1774133203125,0.1505576318359375,0.9166760546875
-0.1851939453125,0.02286556884765625,0.9587021435546875
-0.2989855859375,0.20129133056640625,1.1430270947265626
-0.237226875,0.13462676025390624,1.10837400390625
-0.17911533203125,0.12580350830078124,0.954524111328125
-0.17522501953125,0.091245771484375,0.9795923046875
-0.21801845703125,-0.0161037939453125,1.0117877294921875
-0.249870390625,-0.022476142578125,0.8923451611328125
-0.25400384765625,-0.0249270458984375,1.093136474609375
-0.19856689453125,-0.0739451123046875,1.212087509765625
-0.432715078125,0.0319339111328125,1.27254609375
-0.1774133203125,0.1338914892578125,1.2546051318359375
-0.36001486328125,0.07139345458984375,1.0855177099609374
-0.32354318359375,0.0319339111328125,0.99237216796875
-0.1968648828125,0.05105095703125,0.9444476806640625
-0.09450103515625,-0.09428760986328125,0.9193794873046874
-0.24379177734375002,0.03266918212890625,0.97271083984375
-0.19832375,0.02335574951171875,0.8333611767578125
-0.26154132812499997,-0.095022880859375,0.817877880859375
-0.26470220703125,0.03904153076171875,0.8667854345703125
-0.21899103515625,-0.01585870361328125,0.777572158203125
-0.26324333984375,-0.0006631030273437505,0.7930554541015625
-0.2766162890625,-0.048455717773437504,0.7807671240234375
-0.11395259765625,0.1358522119140625,0.8343442431640625
-0.2416034765625,0.08854977783203125,0.74857169921875
-0.24573693359375,0.14394019287109375,0.81640328125
-0.23114826171875,0.07727562255859374,1.0444746875
-0.323786328125,0.1995756982421875,1.2393676025390625
-0.174981875,0.08756941650390625,1.166374921875
-0.269321953125,0.11011772705078125,1.1494170263671875
-0.2532744140625,0.0378160791015625,1.02088109375
-0.3048210546875,0.130460224609375,1.087729609375
-0.31576255859375,0.18952699462890624,1.2334692041015625
-0.21850474609375,0.04541387939453125,0.9990078662109375
-0.19564916015625,0.026541923828125,0.8569547705078124
-0.3009307421875,0.032424091796875,0.9228202197265625
-0.28026345703125,-0.18399067138671876,0.879811064453125
-0.038091503906250004,0.0603643896484375,1.1228742333984374
-0.44924890625,-0.16683434814453124,1.1408151953125
-0.42931105468749997,-0.13203152099609375,1.1209081005859376
-0.277102578125,0.04639424072265625,0.9051250244140625
-0.286828359375,-0.05360261474609375,0.71907970703125
-0.210967265625,0.01183650390625,0.692045380859375
-0.174009296875,0.08266760986328126,0.8736668994140625
-0.26664736328125,0.09786321044921875,1.00023669921875
-0.28123603515625,0.1564397998046875,1.1213996337890624
-0.15869119140625,0.10399046875,1.15556119140625
-0.38457246093749997,0.1172253466796875,1.2216724072265626
-0.40645546875,0.21599675048828126,1.0975602734375
-0.317950859375,0.153988896484375,0.968287041015625
-0.40523974609375,0.07384435791015626,0.912252255859375
-0.2488978125,0.0652661962890625,0.835573076171875
-0.1166271875,0.048109873046875,0.8392595751953125
-0.228473671875,-0.03252484619140625,0.8653108349609375
-0.15431458984375,0.06698182861328125,1.019406494140625
-0.25740787109375,0.019434304199218752,1.1801378515625
-0.32281375,0.17482157470703125,1.1533492919921875
-0.1278118359375,0.05423713134765625,1.0427543212890624
-0.2620276171875,0.1084020947265625,1.0471781201171875
-0.18932740234375,0.03217900146484375,1.1685868212890624
-0.33861814453125,-0.006790361328125,1.2509186328125
-0.35174794921875,0.0838930615234375,1.2162655419921875
-0.34639876953125,0.02874773681640625,0.9503460791015625
-0.09936392578125,-0.07762146728515625,0.875387265625
-0.32111173828125,-0.0009081933593750001,0.8419630078125
-0.25108611328125,0.0535018603515625,0.8309035107421875
-0.05316646484375,-0.13644314697265625,0.8731753662109375
-0.21753216796875,0.08511851318359374,1.10837400390625
-0.18543708984375,0.21305566650390625,1.245020234375
-0.28585578125,0.11207844970703125,1.256325498046875
-0.29436583984375,0.0819323388671875,1.1852989501953124
-0.338375,0.190262265625,1.118696201171875
-0.20488865234375,0.0535018603515625,1.0191607275390624
-0.27345541015625,0.1485969091796875,1.021372626953125
-0.17473873046875,0.15472416748046874,0.9955671337890625
-0.168173828125,0.16256705810546876,0.9724650732421874
-0.13826705078125,0.09884357177734375,1.2265877392578124
-0.3267040625,-0.044534272460937496,1.23813876953125
-0.3408064453125,-0.0327699365234375,1.1823497509765626
-0.2231244921875,-0.11242429443359375,0.918150654296875
-0.23066197265625,-0.0641414990234375,0.8682600341796876
-0.2211793359375,0.143204921875,0.895540126953125
-0.27345541015625,0.026541923828125,0.9419900146484375
-0.31527626953125,0.13340130859375,1.0579918505859376
-0.32086859375,0.1103628173828125,0.972219306640625
-0.1706052734375,0.048109873046875,0.886692529296875
-0.22361078125,0.0682072802734375,0.8323781103515625
-0.1550440234375,-0.06732767333984375,0.8019030517578125
-0.201241484375,-0.0268877685546875,0.906353857421875
-0.2328502734375,-0.09281706787109376,0.9206083203125
-0.34639876953125,-0.06487677001953125,0.902913125
-0.29290697265625,0.07188363525390624,0.9007012255859375
-0.2007551953125,-0.0739451123046875,0.906845390625
-0.22142248046875002,-0.0072805419921875,1.0565172509765626
-0.28464005859375,0.11060790771484375,1.0393135888671874
-0.228473671875,-0.0043394580078125,0.859166669921875
-0.26664736328125,-0.004829638671875,0.783470556640625
-0.214857578125,0.077520712890625,0.77609755859375
-0.1385101953125,0.08609887451171874,0.7055625439453125
-0.15820490234375,0.0294830078125,0.780521357421875
-0.1710915625,0.13756784423828125,1.0393135888671874
-0.3962433984375,0.07286399658203124,1.044966220703125
-0.212912421875,0.01894412353515625,0.9729566064453125
-0.28804408203125,0.08462833251953125,0.8967689599609375
-0.2396583203125,0.0868341455078125,0.8559717041015625
-0.2989855859375,-0.02713285888671875,0.719571240234375
-0.1978374609375,-0.05017135009765625,0.6846723828125
-0.14507509765624998,0.081442158203125,0.7035964111328125
-0.2853694921875,0.057668395996093746,0.784453623046875
-0.2873146484375,0.08560869384765625,0.9186421875
-0.183735078125,0.087324326171875,1.1120605029296875
-0.19248828125,0.19491898193359375,1.16735798828125
-0.3111428125,0.134381669921875,1.1410609619140626
-0.2989855859375,0.0956573974609375,1.1523662255859375
-0.356853984375,0.21183021484375,1.171781787109375
-0.4001337109375,0.2098694921875,1.1105859033203125
-0.28901666015625,0.019434304199218752,1.037101689453125
-0.23455228515625,0.14001874755859375,1.105916337890625
-0.3349709765625,-0.045024453125,0.97369390625
-0.2367405859375,-0.077376376953125,0.845403740234375
-0.13729447265625,-0.03938737548828125,0.8380307421875
-0.14580453125,-0.1327667919921875,0.9528037451171875
-0.43393080078125,-0.0670825830078125,1.1390948291015626
-0.37606240234375,-0.07051384765625,1.1051790380859374
-0.2688356640625,-0.02076051025390625,0.90389619140625
-0.2722396875,-0.14134495361328125,0.767741494140625
-0.26713365234374997,0.0231106591796875,0.729401904296875
-0.10276794921875,-0.05090662109375,0.6839350830078125
-0.10325423828125,-0.036201201171875,0.9763973388671875
-0.33035123046875,0.1035002880859375,1.1562984912109375
-0.2202067578125,-0.006790361328125,1.0742124462890625
-0.2240970703125,0.15423398681640624,1.0024485986328124
-0.15528716796875,0.179478291015625,1.0476696533203125
-0.27102396484375,0.1525183544921875,1.23027423828125
-0.40329458984375,0.20962440185546874,1.25681703125
-0.27540056640625,0.1549692578125,1.168832587890625
-0.271267109375,-0.107767578125,0.8751414990234375
-0.22142248046875002,-0.03129939453125,0.8279543115234375
-0.2133987109375,-0.06291604736328126,0.7090032763671875
-0.07991236328125,-0.11193411376953125,0.65616345703125
-0.12513724609375,-0.022476142578125,0.892590927734375
-0.22920310546875,0.175556845703125,1.0609410498046874
-0.14556138671875,-0.07443529296875,1.088221142578125
-0.4118046484375,-0.01585870361328125,1.1120605029296875
-0.39065107421875,0.04933532470703125,1.210121376953125
-0.2882872265625,-0.0690433056640625,1.1703071875
-0.1492085546875,-0.04477936279296875,1.109848603515625
-0.316005703125,0.09590248779296875,1.02088109375
-0.34202216796875,0.15570452880859376,1.008592763671875
-0.15042427734375,-0.0170841552734375,0.8970147265625
-0.27831830078124997,-0.0994345068359375,0.9638632421875
-0.32500205078125,0.199085517578125,1.2029941455078126
-0.31333111328125,-0.00997653564453125,1.07494974609375
-0.26275705078125,-0.03129939453125,0.9508376123046876
-0.04781728515625,0.13070531494140625,0.9913891015625
-0.38919220703125,0.0535018603515625,0.923065986328125
-0.10495625,-0.0646316796875,0.93338818359375
-0.28269490234375,0.19835024658203124,0.977626171875
-0.31868029296875,0.165753232421875,0.9174133544921875
-0.28512634765625,0.1628121484375,1.0732293798828125
-0.23795630859375,0.04051207275390625,1.2064348779296874
-0.30871136718750003,-0.0016434643554687498,0.9582106103515625
-0.07966921874999999,0.0515411376953125,0.78199595703125
-0.19370400390625,-0.01389798095703125,0.78002982421875
-0.15358515625,-0.0567887890625,0.723503505859375
-0.1443456640625,0.00276816162109375,0.6765620849609375
-0.19078626953125,0.04835496337890625,0.7665126611328125
-0.330594375,-0.1347275146484375,0.7178508740234375
-0.12246265625,0.00399361328125,0.90389619140625
-0.32937865234375,0.106931552734375,0.9877026025390625
-0.1628246484375,-0.00213364501953125,1.0201437939453124
-0.1521262890625,0.21060476318359375,1.1774344189453125
-0.4380642578125,0.27530861083984376,1.3649543359375
-0.42858162109375,0.2659951782226562,1.3806833984375
-0.44803318359375,0.21967310546875,1.3057245849609376
-0.346155625,-0.044044091796875,1.0201437939453124
0.01369828125,-0.04772044677734375,0.821810146484375
-0.1501811328125,-0.0180645166015625,0.7940385205078125
-0.21899103515625,-0.013162709960937501,0.8392595751953125
0.0618408984375,0.03928662109375,1.0697886474609375
-0.18446451171875,0.0966377587890625,1.3617593701171875
-0.51076447265625,0.158890703125,1.4148449560546874
-0.310170234375,0.148106728515625,1.2103671435546874
-0.19564916015625,0.014777587890624999,0.870963466796875
-0.29485212890625,0.096147578125,0.728418837890625
-0.240144609375,-0.12909043701171874,0.6497735253906249
-0.19564916015625,-0.15997181884765624,0.92159138671875
-0.18495080078125,0.0280124658203125,0.9380577490234375
-0.218747890625,-0.11561046875,0.9704989404296875
-0.12343523437500001,0.11992134033203125,0.973202373046875
-0.27734572265625,0.06649164794921875,0.8653108349609375
-0.18592337890625,0.1593808837890625,0.999745166015625
-0.164283515625,0.0544822216796875,0.977134638671875
-0.39162365234375,0.0995788427734375,0.946659580078125
-0.191515703125,0.18070374267578124,0.93338818359375
-0.21947732421875,-0.03203466552734375,0.942727314453125
-0.3660934765625,0.10595119140625,1.173747919921875
-0.52705515625,0.021885207519531248,1.087729609375
-0.12902755859375,0.15913579345703124,0.9206083203125
-0.045872128906250004,-0.0308092138671875,0.9134810888671875
-0.09425789062500001,-0.11928682373046876,1.106899404296875
-0.19175884765625,0.062080021972656246,1.16342572265625
-0.26640421875,0.00865032958984375,1.2194605078125
-0.34153587890625,0.01257177490234375,1.022355693359375
-0.26470220703125,-0.11732610107421874,1.032677890625
-0.2649453515625,-0.1038461328125,0.766758427734375
-0.07407689453124999,-0.0210056005859375,0.5158307275390625
-0.0957167578125,-0.0974737841796875,0.48658450195312497
-0.131215859375,-0.14698203125,0.5281190576171875
-0.18932740234375,0.00178780029296875,0.7021218115234376
-0.18640966796875,0.16550814208984374,0.9365831494140625
-0.2800203125,0.20374223388671875,1.20864677734375
-0.12221951171875,0.1985953369140625,1.294665087890625
-0.3378887109375,0.27677915283203125,1.0692971142578125
-0.23017568359375,0.1544790771484375,0.888658662109375
-0.06678255859375,0.18413500732421875,1.118696201171875
-0.29193439453125003,-0.016593974609375,1.34037767578125
-0.1239215234375,-0.0092412646484375,1.4549049121093751
-0.3446967578125,0.20178151123046875,1.44065044921875
-0.48547744140625,0.028257556152343752,1.178663251953125
-0.34931650390625,0.11649007568359375,0.9717277734375
-0.3524773828125,0.05080586669921875,0.8692431005859375
-0.2114535546875,0.03168882080078125,0.82721701171875
-0.09595990234375,0.0250713818359375,0.8761245654296875
-0.08769298828125,-0.0004180126953125,0.9795923046875
-0.158448046875,0.02237538818359375,1.203239912109375
-0.361716875,-0.0317895751953125,1.0869923095703125
-0.40037685546875,-0.040122646484374996,0.8033776513671875
-0.2561921484375,0.034384814453125,0.684180849609375
-0.26275705078125,-0.09085634521484375,0.69351998046875
-0.18203306640625,-0.1641383544921875,0.7534870312499999
-0.34542619140624997,-0.0729647509765625,0.8535140380859375
-0.31041337890625,-0.11585555908203125,0.858183603515625
-0.22774423828125,-0.07222947998046875,0.7257154052734375
-0.2104809765625,0.1436951025390625,0.790352021484375
-0.2980130078125,0.07776580322265625,0.702859111328125
-0.146777109375,0.15521434814453125,0.706791376953125
-0.1321884375,0.01747358154296875,0.754961630859375
-0.226528515625,-0.0298288525390625,0.9284728515625
-0.2488978125,0.00619942626953125,1.064136015625
-0.415208671875,0.10374537841796876,1.087729609375
-0.399647421875,0.21060476318359375,1.0058893310546875
-0.33424154296874997,0.17433139404296874,0.9655836083984375
-0.2328502734375,0.08217742919921875,1.0378389892578126
-0.21072412109375,0.18830154296875,1.1351625634765625
-0.26616107421875,0.04884514404296875,1.048898486328125
-0.06021765625,-0.04085791748046875,1.0112961962890625
-0.06191966796875,-0.0386521044921875,1.1577730908203125
-0.5411575390625,0.0054641552734375,1.2147909423828125
-0.22336763671875,-0.16487362548828124,1.009084296875
-0.0957167578125,0.0515411376953125,0.944693447265625
-0.3524773828125,0.038306259765625,0.9407611816406249
-0.23212083984375,0.09051050048828126,1.0245675927734375
-0.2309051171875,0.1157548046875,0.966320908203125
-0.339347578125,-0.00948635498046875,0.86850580078125
-0.2318776953125,0.14295983154296876,0.8458952734375
-0.08088494140625,-0.07443529296875,0.8780906982421874
-0.25740787109375,-0.02076051025390625,1.103950205078125
-0.24476435546875,-0.012672529296875,1.1395863623046876
-0.30944080078125,0.04320806640625,1.1091113037109375
-0.2357680078125,-0.05556333740234375,1.0688055810546875
-0.2620276171875,0.00619942626953125,1.1292641650390625
-0.20488865234375,0.05080586669921875,1.070525947265625
-0.30871136718750003,0.00619942626953125,0.992863701171875
-0.19637859375,0.0299731884765625,0.9837703369140625
-0.13583560546875,-0.02419177490234375,1.0201437939453124
-0.18470765625,0.096147578125,1.0174403613281249
-0.3578265625,0.040266982421875,0.8930824609375
-0.27199654296875,0.0436982470703125,0.8377849755859375
-0.17814275390625,-0.023456503906250002,0.780521357421875
-0.1827625,-0.10605194580078126,0.863098935546875
-0.21193984375,-0.130315888671875,0.9520664453125
-0.300444453125,0.05227640869140625,1.0565172509765626
-0.2707808203125,0.0397768017578125,0.973202373046875
-0.362689453125,0.026296833496093748,0.9616513427734374
-0.19613544921875,0.1000690234375,1.0093300634765625
-0.24306234375,0.1103628173828125,0.8903790283203125
-0.12343523437500001,0.09688284912109375,0.9115149560546875
-0.06483740234375,-0.04306373046875,1.0383305224609374
-0.15188314453125001,0.021885207519531248,1.17817171875
-0.25935302734375,0.05423713134765625,1.2253589062499999
-0.3719289453125,0.08266760986328126,1.1919346484375
-0.44706060546875,0.0897752294921875,1.0476696533203125
-0.34153587890625,0.13340130859375,0.90782845703125
-0.23844259765625,0.02237538818359375,0.758893896484375
-0.1725504296875,0.06698182861328125,0.7178508740234375
-0.11249373046875,0.03904153076171875,0.8987350927734374
-0.22190876953125,0.04982550537109375,1.07298361328125
-0.28123603515625,-0.04085791748046875,1.1626884228515626
-0.230418828125,-0.1670794384765625,1.0122792626953125
-0.1813036328125,-0.09036616455078125,0.83311541015625
-0.25594900390624997,-0.00581,0.6981895458984375
-0.14556138671875,-0.1327667919921875,0.6286375976562499
-0.1920019921875,-0.03987755615234375,0.677299384765625
-0.40669861328125,0.07041309326171875,0.83114927734375
-0.2775888671875,-0.077376376953125,0.9410069482421874
-0.19905318359375002,0.1946738916015625,1.20668064453125
-0.3330258203125,0.07065818359375,1.0461950537109375
-0.0655668359375,-0.140119501953125,0.8613785693359375
-0.026420566406250002,0.0887948681640625,1.072492080078125
-0.39259623046875003,0.10570610107421875,1.212087509765625
-0.461892421875,0.024581201171875,1.18898544921875
-0.49520322265625,0.15472416748046874,1.2821309912109375
-0.46651216796875,0.10423555908203125,1.101984072265625
-0.315033125,0.01306195556640625,0.778555224609375
-0.02909515625,0.04786478271484375,0.6038151708984375
-0.0490330078125,0.14835181884765625,0.7266984716796875
-0.05024873046875,0.159871064453125,1.0688055810546875
-0.308225078125,0.17040994873046875,1.4074719580078126
-0.55064017578125,0.2333981640625,1.514871962890625
-0.50395642578125,-0.01144707763671875,1.265173095703125
-0.33278267578125,-0.010711806640625,1.0914161083984375
-0.403537734375,-0.02223105224609375,0.9336339501953125
-0.24695265625,-0.1210024560546875,0.7714279931640625
-0.15236943359375,-0.15359947021484374,0.7414444677734375
-0.1929745703125,-0.035711020507812496,0.8520394384765625
-0.1968648828125,-0.0935523388671875,0.9090572900390625
-0.20926525390625,0.10276501708984374,0.9778719384765625
-0.21996361328125,0.17384121337890626,1.0432458544921874
-0.28269490234375,0.0373258984375,1.000728232421875
-0.32451576171875,0.19295825927734375,1.1091113037109375
-0.403537734375,0.0486000537109375,1.1779259521484375
-0.13948277343749999,-0.1847259423828125,1.22830810546875
-0.30944080078125,0.09492212646484376,1.1073909375
-0.25400384765625,0.03659062744140625,0.8004284521484375
-0.1793584765625,-0.0690433056640625,0.8343442431640625
-0.4254207421875,0.17286085205078125,1.0324321240234375
-0.16914640625,0.010611052246093749,0.946659580078125
0.0968537109375,-0.0621807763671875,1.0442289208984374
-0.0996070703125,-0.2033528076171875,1.447040380859375
-0.5139253515625,-0.06781785400390625,1.4711255078125
-0.35515197265625,-0.12222790771484375,1.1145181689453125
-0.27734572265625,-0.00654527099609375,0.9759058056640625
-0.19224513671875,0.08511851318359374,0.923065986328125
-0.2328502734375,-0.05801424072265625,0.9346170166015625
-0.1453182421875,0.0142874072265625,0.9852449365234375
-0.27540056640625,-0.01928996826171875,0.8918536279296875
-0.06848457031249999,-0.02762303955078125,0.855234404296875
-0.14215736328125,0.11943115966796874,1.0501273193359375
-0.35272052734375,0.0137972265625,1.0447204541015624
-0.16841697265625,-0.04723026611328125,0.9223286865234375
-0.1890842578125,-0.1180613720703125,0.9174133544921875
-0.251815546875,-0.060710234375,1.1037044384765624
-0.26518849609375,-0.11438501708984375,1.14573052734375
-0.366579765625,0.00791505859375,1.0240760595703124
-0.22093619140625,-0.013162709960937501,0.8775991650390624
-0.13024328125,0.02972809814453125,0.90586232421875
-0.17911533203125,0.05717821533203125,1.049881552734375
-0.1161408984375,0.0642858349609375,1.2374014697265625
-0.183735078125,0.23903524169921875,1.3492252734375
-0.360744296875,0.15815543212890626,1.2226554736328126
-0.18786853515625002,0.09002031982421875,0.993355234375
-0.19710802734375,-0.03252484619140625,0.82131861328125
-0.16209521484375,-0.09673851318359375,0.8618701025390625
-0.2668905078125,-0.0386521044921875,0.988931435546875
-0.3057936328125,-0.0332601171875,1.037101689453125
-0.331566953125,0.0037485229492187503,0.908319990234375
-0.2163164453125,-0.0582593310546875,0.7456225
-0.13729447265625,-0.120512275390625,0.7031048779296875
-0.21704587890625,-0.09796396484375,0.7581565966796875
-0.2435486328125,-0.08938580322265625,0.741198701171875
-0.2177753125,-0.008751083984375,0.7340714697265625
-0.23260712890625002,-0.05654369873046875,0.7158847412109375
-0.21218298828125,0.0035034326171875,0.8358188427734374
-0.25886673828125,-0.00409436767578125,0.9370746826171875
-0.35563826171875,0.0074248779296875,0.9459222802734375
-0.24573693359375,0.04884514404296875,0.80952181640625
-0.25838044921875,0.05815857666015625,0.741690234375
-0.195406015625,-0.00777072265625,0.7502920654296875
-0.19613544921875,0.0608545703125,0.786419755859375
-0.234309140625,-0.01389798095703125,0.8751414990234375
-0.22871681640625,-0.046004814453125,0.955507177734375
-0.38141158203125003,-0.0053198193359375,0.9646005419921875
-0.23552486328125,0.056933125,0.993355234375
-0.30627992187499997,0.10521592041015625,1.0171945947265626
-0.265431640625,-0.048945898437499996,1.0584833837890626
-0.255705859375,0.03462990478515625,1.083305810546875
-0.22968939453125,-0.016593974609375,1.01399962890625
-0.209022109375,0.01649322021484375,1.003677431640625
-0.1958923046875,0.06624655761718751,0.9886856689453125
-0.2746711328125,-0.034240478515625,1.003677431640625
-0.2007551953125,-0.0631611376953125,0.9002096923828125
-0.1511537109375,-0.11928682373046876,0.7615973291015625
-0.088422421875,-0.10580685546875,0.8387680419921875
-0.2396583203125,-0.07075893798828126,0.9953213671875
-0.35904228515625003,-0.018554697265625,1.1440101611328124
-0.34226531250000003,0.02433611083984375,1.1272980322265624
-0.25497642578125,0.022620478515625,0.97664310546875
-0.144831953125,0.09051050048828126,0.859658203125
-0.212912421875,-0.0006631030273437505,0.810996416015625
-0.18689595703125,-0.07468038330078125,0.847369873046875
-0.201241484375,0.00668960693359375,0.946168046875
-0.30992708984375,-0.13105115966796876,0.9424815478515625
-0.13510617187500001,-0.01683906494140625,0.9363373828125
-0.15139685546875,0.023845930175781252,0.933879716796875
-0.24768208984375,0.033404453125,1.136391396484375
-0.35563826171875,0.148106728515625,1.2619781298828125
-0.43636224609375,0.06355056396484375,1.24796943359375
-0.39016478515624997,0.201046240234375,1.15752732421875
-0.26761994140625,0.118695888671875,1.029237158203125
-0.18057419921875,0.00472888427734375,1.024813359375
-0.2338228515625,0.04492369873046875,1.2482152001953124
-0.34737134765625,-0.0023787353515625003,1.2747579931640625
-0.3417790234375,-0.13889405029296875,1.1631799560546874
-0.203186640625,0.05497240234375,1.00613509765625
-0.27151025390625,-0.15114856689453124,0.8584293701171875
-0.16112263671875,-0.1587463671875,0.9007012255859375
-0.160393203125,-0.051886982421875,0.923065986328125
-0.2814791796875,-0.15065838623046876,1.0343982568359376
-0.3388612890625,-0.0759058349609375,1.1533492919921875
-0.257651015625,0.044188427734375,1.1469593603515624
-0.44462916015625,-0.051886982421875,0.94125271484375
-0.0859909765625,-0.15359947021484374,0.9203625537109374
-0.2805066015625,-0.17369687744140624,0.8068183837890625
-0.25011353515625,-0.13595296630859374,0.805098017578125
-0.09158330078125,-0.051886982421875,0.80755568359375
-0.2099946875,0.0123266845703125,0.926998251953125
-0.30506419921875,-0.00311400634765625,1.0638902490234374
-0.2688356640625,0.03659062744140625,1.1282810986328125
-0.098148203125,0.011346323242187501,1.0181776611328126
-0.290718671875,0.04786478271484375,1.008592763671875
-0.20415921875,-0.06487677001953125,1.04152548828125
-0.40475345703125,0.07825598388671876,1.052830751953125
-0.2698082421875,0.09737302978515625,1.0053977978515625
-0.34542619140624997,-0.0866898095703125,0.9906518017578125
-0.16136578125,0.08462833251953125,1.26566462890625
-0.24038775390625,-0.01732924560546875,1.2683680615234374
-0.30846822265625,-0.10580685546875,1.011541962890625
-0.26227076171875,-0.00507472900390625,0.7547158642578125
-0.23698373046875,-0.12320826904296875,0.6485446923828125
-0.0033218359375,-0.11438501708984375,0.65616345703125
0.01369828125,0.0495804150390625,1.0265337255859375
-0.41545181640625,-0.09183670654296874,1.2708257275390624
-0.51270962890625,-0.008996174316406251,1.368395068359375
-0.47404964843749997,0.030463369140625002,0.86653966796875
-0.26129818359375,-0.00360418701171875,0.536720888671875
-0.11930177734375,-0.10262068115234375,0.458567109375
-0.09839134765625,-0.07026875732421875,0.5286105908203125
-0.14847912109375,0.07139345458984375,0.615366201171875
-0.2386857421875,-0.09379742919921875,0.6868842822265625
-0.352963671875,0.0946770361328125,0.831640810546875
-0.36098744140625,0.1240878759765625,0.9837703369140625
-0.18203306640625,0.0642858349609375,0.9370746826171875
-0.16112263671875,0.00570924560546875,1.167849521484375
-0.47283392578125,0.1093824560546875,1.207172177734375
-0.0791829296875,-0.15163874755859374,0.9700074072265625
-0.14799283203125,-0.15899145751953125,0.9931094677734374
-0.3894353515625,0.15374380615234376,1.0260421923828125
