ax,ay,az
-0.220693046875,-0.1484525732421875,0.72202890625
-0.15334201171875,-0.10972830078125,0.6790197509765625
-0.17522501953125,-0.08693489990234375,0.696960712890625
-0.17692703125,-0.11046357177734376,0.8200897802734375
-0.125380390625,-0.03399538818359375,1.0031858984375
-0.3505322265625,-0.00507472900390625,1.2005364794921876
-0.1978374609375,0.05227640869140625,1.245020234375
-0.292663828125,0.0250713818359375,0.9994993994140625
-0.16452666015625,0.08119706787109375,0.8544971044921875
-0.23698373046875,0.0211499365234375,0.737266435546875
-0.1978374609375,0.0172284912109375,0.854251337890625
-0.30263275390625,-0.00507472900390625,1.082322744140625
-0.25935302734375,-0.05115171142578125,1.0240760595703124
-0.185680234375,-0.114630107421875,0.913235322265625
-0.1900568359375,-0.06389640869140625,0.896523193359375
-0.12173322265625,-0.08840544189453126,0.859166669921875
-0.23163455078125,0.04786478271484375,1.0216183935546874
-0.22628537109375,-0.0415931884765625,1.013508095703125
-0.26275705078125,0.0152677685546875,0.996795966796875
-0.21412814453125,-0.02125069091796875,0.9552614111328125
-0.1803310546875,0.012816865234374999,0.8746499658203125
-0.24768208984375,0.01551285888671875,0.8943112939453125
-0.26810623046875,-0.0001729223632812504,0.9665666748046875
-0.28658521484375,-0.0798272802734375,1.026287958984375
-0.25983931640625,0.01894412353515625,1.0545511181640626
-0.203186640625,-0.0011532836914062497,1.0049062646484375
-0.25157240234375,-0.01487834228515625,0.93535431640625
-0.13000013671875,-0.0004180126953125,0.9380577490234375
-0.1949197265625,-0.00703545166015625,0.9424815478515625
-0.2659179296875,-0.013162709960937501,0.9685328076171875
-0.20148462890625,0.0037485229492187503,0.938795048828125
-0.288773515625,-0.01193725830078125,0.9439561474609375
-0.26227076171875,-0.08252327392578125,1.0373474560546876
-0.2746711328125,-0.014633251953124999,1.0167030615234376
-0.28853037109375,-0.03105430419921875,0.9818042041015624
-0.23139140625,-0.12173772705078124,0.905370791015625
-0.190543125,-0.045024453125,0.889641728515625
-0.16938955078125,-0.12124754638671875,0.905370791015625
-0.236254296875,-0.046004814453125,0.9501003125
-0.2289599609375,-0.02223105224609375,0.9931094677734374
-0.2644590625,0.0152677685546875,0.996795966796875
-0.14021220703125,-0.04134809814453125,0.9655836083984375
-0.2591098828125,0.00227798095703125,0.95796484375
-0.22385392578125,-0.05997496337890625,1.020389560546875
-0.2474389453125,0.012816865234374999,0.9695158740234375
-0.24914095703125,-0.042328459472656246,0.9532952783203125
-0.2357680078125,-0.0533575244140625,0.9559987109375
-0.29290697265625,-0.04134809814453125,0.9233117529296875
-0.13486302734375,0.04051207275390625,1.013508095703125
-0.315033125,-0.0411030078125,1.0447204541015624
-0.24525064453125,-0.00581,1.092153408203125
-0.21801845703125,0.0270321044921875,1.0491442529296875
-0.2878009375,-0.0670825830078125,0.9992536328125
-0.19029998046875,-0.018554697265625,0.984999169921875
-0.24816837890625,-0.0200252392578125,0.922082919921875
-0.2630001953125,-0.05164189208984375,0.9407611816406249
-0.2581373046875,0.00227798095703125,1.002694365234375
-0.2513292578125,-0.05213207275390625,1.02186416015625
-0.2600824609375,-0.08056255126953125,1.028745625
-0.19905318359375002,-0.0504164404296875,1.01399962890625
-0.19953947265625,-0.048455717773437504,0.93928658203125
-0.25449013671875,-0.0332601171875,0.95698177734375
-0.25449013671875,-0.110708662109375,0.9557529443359375
-0.20877896484375,0.02482629150390625,0.9803296044921875
-0.20099833984375,-0.073454931640625,0.9559987109375
-0.18106048828125,-0.1033559521484375,0.9523122119140625
-0.30457791015625,-0.04306373046875,0.9609140429687499
-0.19029998046875,-0.07051384765625,0.9203625537109374
-0.23698373046875,-0.05482806640625,0.9016842919921875
-0.19808060546875,-0.079337099609375,0.946659580078125
-0.19467658203125,0.00227798095703125,0.9717277734375
-0.21655958984375,-0.098944326171875,0.944693447265625
-0.2396583203125,0.004973974609375,0.95304951171875
-0.16136578125,0.065756376953125,0.977134638671875
-0.226528515625,-0.0200252392578125,0.993355234375
-0.20877896484375,0.030708459472656248,1.0653648486328124
-0.23892888671875,-0.05458297607421875,1.020389560546875
-0.267376796875,-0.025662316894531252,0.9724650732421874
-0.20877896484375,-0.0406128271484375,0.9813126708984374
-0.30141703125,-0.02958376220703125,0.983033037109375
-0.255705859375,-0.0798272802734375,0.9955671337890625
-0.28853037109375,-0.0013983740234375002,0.95698177734375
-0.16404037109375,0.017718671875,0.9783634716796875
-0.22871681640625,-0.06046514404296875,0.947642646484375
-0.2357680078125,0.00276816162109375,0.9803296044921875
-0.15285572265625,-0.00850599365234375,1.021372626953125
-0.22920310546875,-0.0641414990234375,1.004660498046875
-0.31333111328125,0.009140510253906251,1.0078554638671875
-0.31041337890625,-0.076396015625,0.921099853515625
-0.2980130078125,-0.07566074462890625,0.92650671875
-0.21218298828125,-0.02419177490234375,1.006626630859375
-0.28512634765625,-0.1719812451171875,0.9916348681640625
-0.2649453515625,-0.08350363525390625,1.0093300634765625
-0.14629082031250001,0.06060947998046875,1.010558896484375
-0.2834243359375,-0.08301345458984374,0.91372685546875
-0.2610550390625,-0.0592396923828125,0.93437125
-0.15358515625,0.0731090869140625,1.0137538623046876
-0.292663828125,-0.06389640869140625,0.944693447265625
-0.1560166015625,-0.03693647216796875,0.93928658203125
-0.21704587890625,-0.04821062744140625,0.9105318896484375
-0.30263275390625,-0.07370002197265625,0.8368019091796874
-0.09693248046875,0.03904153076171875,0.9321593505859375
-0.33278267578125,-0.03546593017578125,1.1440101611328124
-0.3344846875,0.07188363525390624,1.1612138232421876
-0.279047734375,0.03757098876953125,0.977134638671875
-0.33813185546875,-0.0254172265625,0.9616513427734374
-0.31722142578125,0.0505607763671875,0.9596852099609375
-0.19856689453125,-0.0710040283203125,0.8436833740234375
-0.13875333984375,-0.05090662109375,0.7942842871093749
-0.16185207031249998,-0.11340465576171875,0.7436563671875001
-0.1025248046875,-0.0700236669921875,0.86260740234375
-0.2027003515625,0.0015427099609375003,1.126560732421875
-0.35952857421875,-0.011201987304687501,1.239613369140625
-0.33642984375,0.0012976196289062499,1.2258504394531249
-0.2484115234375,0.0035034326171875,1.1120605029296875
-0.3164919921875,0.055462583007812497,0.9660751416015625
-0.22920310546875,-0.0018885546875000003,0.9926179345703126
-0.24330548828125,0.079481435546875,1.032677890625
-0.2367405859375,-0.12614935302734376,0.9164302880859375
-0.13243158203125,0.0829127001953125,1.1548238916015625
-0.32354318359375,-0.1611972705078125,1.23027423828125
-0.36390517578125,-0.224430576171875,1.024321826171875
-0.230418828125,-0.07811164794921875,0.8161575146484374
-0.17911533203125,-0.02174087158203125,0.7090032763671875
-0.213885,-0.10801266845703125,0.61979
-0.11468203125,-0.23496946044921874,0.8087845166015625
-0.12319208984375,-0.259723583984375,1.0284998583984375
-0.218747890625,-0.12369844970703125,1.111814736328125
-0.25546271484375,-0.1180613720703125,1.1017383056640626
-0.3592854296875,-0.048455717773437504,1.093136474609375
-0.45046462890625,0.02752228515625,1.0373474560546876
-0.32694720703125,0.04492369873046875,0.8451579736328125
-0.27880458984375,0.062080021972656246,0.7832247900390625
-0.08720669921875,-0.06928839599609375,0.7861739892578125
0.05065625,-0.0994345068359375,0.87637033203125
-0.06775513671875,0.04688442138671875,1.1408151953125
-0.32451576171875,-0.00458454833984375,1.254359365234375
-0.26907880859375,0.0436982470703125,1.127052265625
-0.26372962890625,0.010856142578125,1.012525029296875
-0.27515742187500003,0.04198261474609375,1.0402966552734374
-0.27807515625,-0.0268877685546875,1.1789090185546875
-0.34226531250000003,-0.13399224365234375,1.1921804150390625
-0.2775888671875,-0.07222947998046875,1.08871267578125
-0.279047734375,-0.12712971435546874,0.9193794873046874
-0.22774423828125,-0.10703230712890625,0.926998251953125
-0.2260422265625,0.0003172583007812497,0.9321593505859375
-0.25059982421875,-0.08840544189453126,0.872929599609375
-0.18203306640625,0.0633054736328125,0.9778719384765625
-0.14896541015625,0.05374695068359375,1.0314490576171875
-0.18884111328125,-0.09722869384765626,0.983033037109375
-0.1239215234375,0.07188363525390624,1.0810939111328124
-0.0466015625,-0.15457983154296875,1.00515203125
-0.16452666015625,-0.11585555908203125,1.2742664599609375
-0.4691867578125,0.12825441162109374,1.4000989599609375
-0.56206796875,-0.06781785400390625,1.232731904296875
-0.52292169921875,-0.06340622802734375,1.02383029296875
-0.3349709765625,-0.07835673828125,0.7203085400390625
-0.0743200390625,-0.1974706396484375,0.6406801611328125
-0.16841697265625,-0.19820591064453125,0.6217561328125
-0.08963814453125,-0.14330567626953125,0.6453497265625
-0.09693248046875,-0.2131564208984375,0.70629984375
-0.189570546875,-0.09967959716796874,0.9051250244140625
-0.2299325390625,-0.059729873046875,1.0545511181640626
-0.24573693359375,0.0486000537109375,1.156052724609375
-0.22579908203125,0.116735166015625,1.09854333984375
-0.28318119140625,0.0584036669921875,0.9835245703125
-0.24233291015625,0.12237224365234375,0.934862783203125
-0.28585578125,0.1035002880859375,0.9351085498046875
-0.28901666015625,0.1231075146484375,0.9616513427734374
-0.237226875,0.020659755859375,1.0599579833984376
-0.29096181640625,0.0348749951171875,1.1907058154296875
-0.174009296875,-0.095022880859375,1.1376202294921876
-0.187625390625,-0.0999246875,1.0604495166015624
-0.28220861328125,-0.1004148681640625,0.935845849609375
-0.11735662109375,-0.16070708984375,0.859166669921875
-0.17473873046875,-0.0729647509765625,0.8771076318359375
-0.25157240234375,-0.14575657958984375,0.937811982421875
-0.207076953125,-0.085219267578125,1.0157199951171876
-0.30117388671875,-0.05164189208984375,1.031203291015625
-0.24914095703125,-0.046740085449218746,1.026287958984375
-0.3033621875,0.00178780029296875,1.0004824658203124
-0.2853694921875,0.03413972412109375,1.0103131298828125
-0.27491427734375,-0.030073942871093752,0.913235322265625
-0.26032560546875,0.0338946337890625,0.9036504248046875
-0.19953947265625,-0.0001729223632812504,0.859658203125
-0.1443456640625,-0.0317895751953125,0.8132083154296875
-0.18835482421875,-0.01144707763671875,0.9650920751953125
-0.19808060546875,-0.09428760986328125,1.0597122167968749
-0.2231244921875,-0.09575815185546875,1.04545775390625
-0.2454937890625,-0.1278649853515625,0.911269189453125
-0.16063634765625,0.02923791748046875,0.9813126708984374
-0.28220861328125,0.05129604736328125,1.009575830078125
-0.30117388671875,-0.00507472900390625,1.0348897900390626
-0.26664736328125,-0.0249270458984375,1.0619241162109374
-0.29096181640625,0.0378160791015625,1.106899404296875
-0.3072525,-0.08840544189453126,0.8834975634765625
-0.17036212890625,-0.1582561865234375,0.8549886376953125
-0.19127255859375,0.0191892138671875,1.02383029296875
-0.24695265625,-0.112669384765625,1.03661015625
-0.2756437109375,-0.21340151123046874,0.87637033203125
-0.1783858984375,-0.0121823486328125,0.8879213623046875
-0.13340416015625,-0.1102184814453125,0.7620888623046875
-0.263486484375,-0.1298257080078125,0.7783094580078125
-0.1988100390625,-0.0121823486328125,0.7591396630859375
-0.0704297265625,0.06624655761718751,0.7974792529296875
-0.237226875,0.04002189208984375,0.9655836083984375
-0.2532744140625,-0.10262068115234375,1.132459130859375
-0.28755779296875,-0.03056412353515625,1.2246216064453126
-0.41545181640625,0.00227798095703125,1.1172216015625
-0.29047552734375,-0.1700205224609375,0.9385492822265625
-0.172064140625,-0.0455146337890625,0.8365561425781249
-0.2484115234375,-0.085219267578125,0.7434106005859376
-0.12635296875,-0.12173772705078124,0.8898874951171875
-0.18689595703125,0.0427178857421875,1.00515203125
-0.237226875,0.03315936279296875,1.127543798828125
-0.24281919921875,0.0417375244140625,1.196358447265625
-0.2644590625,0.0917359521484375,1.1651460888671874
-0.1997826171875,0.05668803466796875,1.0461950537109375
-0.24914095703125,0.06600146728515625,1.0388220556640624
-0.26761994140625,0.02972809814453125,1.067576748046875
-0.24622322265625,-0.01487834228515625,1.128526865234375
-0.33861814453125,0.03512008544921875,1.115747001953125
-0.32500205078125,-0.10262068115234375,0.9650920751953125
-0.18835482421875,-0.1592365478515625,0.954524111328125
-0.36730919921875,-0.03595611083984375,0.98843990234375
-0.21850474609375,-0.16144236083984376,0.9166760546875
-0.279047734375,-0.06291604736328126,0.885709462890625
-0.31089966796875,-0.1337471533203125,0.8431918408203125
-0.1715778515625,-0.2254109375,0.79575888671875
-0.002106113281250002,-0.170510703125,0.871946533203125
-0.15285572265625,-0.13717841796875,1.0806023779296874
-0.37338781249999997,-0.1327667919921875,1.1916888818359375
-0.33570041015625,-0.047965537109375,1.051847685546875
-0.28172232421875,-0.0749254736328125,0.89013326171875
-0.0743200390625,-0.06536695068359374,1.0267794921875
-0.317950859375,0.0907555908203125,1.2206893408203126
-0.4332013671875,-0.01291761962890625,1.2162655419921875
-0.142886796875,-0.036201201171875,1.05725455078125
-0.34226531250000003,0.14050892822265626,1.0299744580078125
-0.177899609375,0.05717821533203125,0.9464138134765625
-0.19759431640625,0.07874616455078125,1.022355693359375
-0.2970404296875,-0.01046671630859375,1.10247560546875
-0.32305689453124997,-0.16070708984375,1.0201437939453124
-0.2445212109375,-0.22859711181640624,0.8726838330078125
-0.12246265625,-0.1798241357421875,0.844420673828125
-0.2357680078125,-0.11757119140625,0.92552365234375
-0.3505322265625,0.0074248779296875,1.047915419921875
-0.3072525,0.09247122314453125,1.123611533203125
-0.255705859375,-0.0592396923828125,1.18898544921875
-0.338375,0.03144373046875,1.1562984912109375
-0.1521262890625,-0.012427438964843749,0.984999169921875
-0.221665625,-0.06144550537109375,0.973202373046875
-0.2406308984375,-0.0464949951171875,1.058729150390625
-0.2318776953125,-0.0327699365234375,1.1071451708984374
-0.2450075,-0.1729616064453125,1.062661416015625
-0.24184662109375,-0.09771887451171875,1.048406953125
-0.1433730859375,-0.069533486328125,1.0063808642578125
-0.2396583203125,-0.11585555908203125,0.98450763671875
-0.222638203125,-0.12369844970703125,1.0444746875
-0.27272597656249997,-0.08203309326171875,1.0948568408203125
-0.3242726171875,-0.11438501708984375,1.111323203125
-0.299471875,-0.11757119140625,1.0673309814453125
-0.21704587890625,-0.050661530761718754,0.9670582080078125
-0.21218298828125,-0.123453359375,0.986965302734375
-0.3184371484375,-0.02909358154296875,0.991880634765625
-0.22968939453125,-0.04919098876953125,1.0152284619140626
-0.23114826171875,-0.05213207275390625,1.001219765625
-0.18835482421875,0.059874208984374996,1.005643564453125
-0.25157240234375,-0.047965537109375,0.9724650732421874
-0.21510072265625,-0.0371815625,0.9407611816406249
-0.292663828125,0.0037485229492187503,0.8874298291015625
-0.32013916015625,0.028502646484374998,0.854251337890625
-0.22482650390625,-0.04526954345703125,0.9120064892578125
-0.28658521484375,-0.06585713134765625,1.0191607275390624
-0.29096181640625,-0.1376685986328125,1.1100943701171875
-0.3456693359375,-0.08423890625,1.1056705712890624
-0.288773515625,-0.04919098876953125,0.9685328076171875
-0.1866528125,-0.0915916162109375,0.84294607421875
-0.2411171875,-0.0259074072265625,0.9026673583984375
-0.20975154296875,-0.06732767333984375,1.0270252587890625
-0.32159802734375,-0.067572763671875,1.005643564453125
-0.25351755859375,0.0211499365234375,0.9395323486328125
-0.1958923046875,-0.035711020507812496,0.8262339453125
-0.18495080078125,-0.01978014892578125,0.8658023681640625
-0.27151025390625,-0.07370002197265625,0.9191337207031249
-0.30457791015625,-0.036201201171875,1.02088109375
-0.32111173828125,-0.0366913818359375,0.981066904296875
-0.3417790234375,-0.10801266845703125,0.85474287109375
-0.16136578125,-0.03938737548828125,0.830657744140625
-0.26056875,-0.0803174609375,0.8223016796875
-0.33521412109375,-0.07713128662109375,0.8353273095703125
-0.146777109375,-0.1308060693359375,0.835573076171875
-0.26518849609375,-0.05654369873046875,0.81148794921875
-0.1754681640625,-0.134237333984375,0.8397511083984375
-0.2639727734375,-0.15703073486328126,0.9321593505859375
-0.27540056640625,-0.07517056396484376,1.0575003173828126
-0.3028758984375,-0.08252327392578125,1.0201437939453124
-0.23163455078125,0.00227798095703125,1.0368559228515626
-0.26421591796875,-0.0170841552734375,0.9852449365234375
-0.279047734375,-0.00777072265625,0.9233117529296875
-0.2435486328125,0.075559990234375,0.9891772021484375
-0.33132380859375,0.020659755859375,1.016457294921875
-0.2688356640625,0.013552136230468751,1.0157199951171876
-0.22044990234375,0.026296833496093748,0.976151572265625
-0.234309140625,-0.0474753564453125,0.9501003125
-0.2406308984375,-0.02762303955078125,0.986965302734375
-0.2513292578125,0.01012087158203125,1.0314490576171875
-0.284883203125,-0.07075893798828126,0.9454307470703125
-0.30214646484375,-0.048455717773437504,0.8984893261718749
-0.19321771484375,-0.042328459472656246,0.865065068359375
-0.21461443359375,-0.0602200537109375,0.913235322265625
-0.269321953125,-0.03693647216796875,1.045949287109375
-0.3378887109375,-0.0582593310546875,1.016948828125
-0.3369161328125,0.0133070458984375,1.016457294921875
-0.32937865234375,0.0451687890625,1.0034316650390624
-0.257651015625,-0.0190448779296875,0.972219306640625
-0.187625390625,-0.029338671875,0.8933282275390625
-0.2425760546875,-0.02664267822265625,0.9282270849609375
-0.15334201171875,-0.14673694091796874,0.914218388671875
-0.294608984375,0.01845394287109375,0.96877857421875
-0.2678630859375,0.0319339111328125,0.98942296875
-0.3189234375,-0.120512275390625,0.86260740234375
-0.21607330078125,-0.09967959716796874,0.83213234375
-0.20829267578125,-0.18301031005859375,0.806081083984375
-0.33521412109375,-0.13448242431640625,0.8653108349609375
-0.23357970703125,-0.010711806640625,1.00613509765625
-0.316005703125,-0.010221625976562499,1.1228742333984374
-0.26154132812499997,-0.0396324658203125,1.1159927685546875
-0.23844259765625,-0.02419177490234375,1.11427240234375
-0.25740787109375,-0.05213207275390625,1.069542880859375
-0.23844259765625,0.02360083984375,0.936828916015625
-0.2377131640625,0.06943273193359376,0.9134810888671875
-0.28974609375,-0.01438816162109375,0.93142205078125
-0.1472633984375,-0.0494360791015625,1.08674654296875
-0.2085358203125,-0.07051384765625,1.1405694287109376
-0.29193439453125003,-0.0778665576171875,1.0869923095703125
-0.3077387890625,0.0387964404296875,0.9847534033203125
-0.2853694921875,-0.01144707763671875,0.9478884130859375
-0.27807515625,-0.0151234326171875,0.90389619140625
-0.28998923828125,-0.0435539111328125,0.9442019140625
-0.26713365234374997,-0.146001669921875,0.9478884130859375
-0.1929745703125,-0.07124911865234375,0.94911724609375
-0.23747001953125,-0.10752248779296875,0.93535431640625
-0.16938955078125,-0.11830646240234374,0.98843990234375
-0.2698082421875,-0.0906112548828125,1.0879753759765625
-0.32451576171875,-0.051886982421875,1.1489254931640625
-0.37314466796875,-0.14526639892578125,0.9606682763671874
-0.25789416015625,-0.083258544921875,0.88030259765625
-0.06775513671875,-0.07075893798828126,0.9400238818359374
-0.31308796875,0.02482629150390625,1.09657720703125
-0.44414287109375,-0.00703545166015625,1.03759322265625
-0.314060546875,-0.1347275146484375,0.926015185546875
-0.34810078125,-0.04085791748046875,0.930438984375
-0.4575158203125,-0.1523740185546875,0.74660556640625
-0.22482650390625,-0.20114699462890626,0.6510023583984375
-0.172064140625,-0.0001729223632812504,0.622247666015625
-0.19224513671875,-0.01978014892578125,0.70924904296875
-0.17425244140625,-0.0298288525390625,0.9016842919921875
-0.2571647265625,0.03928662109375,1.20078224609375
-0.46286499999999997,0.0887948681640625,1.369378134765625
-0.47040248046875,0.116735166015625,1.3214536474609375
-0.30141703125,-0.0018885546875000003,1.0663479150390625
-0.40183572265625,0.07065818359375,0.9965502001953125
-0.26227076171875,-0.02909358154296875,0.9660751416015625
-0.25205869140625,-0.076396015625,0.97271083984375
-0.2571647265625,0.05889384765625,1.054796884765625
-0.18640966796875,-0.1082577587890625,0.9926179345703126
-0.18884111328125,-0.00581,0.8820229638671875
-0.25254498046875,-0.00605509033203125,0.9542783447265625
-0.34834392578125,-0.0661022216796875,1.104933271484375
-0.37898013671874997,-0.087179990234375,1.1061621044921874
-0.3369161328125,-0.08840544189453126,1.0267794921875
-0.27515742187500003,-0.14673694091796874,0.910286123046875
-0.2513292578125,-0.11193411376953125,0.7778179248046875
-0.26372962890625,-0.18938265869140625,0.725961171875
-0.30749564453125,-0.0935523388671875,0.860149736328125
-0.31989601562500003,-0.11095375244140625,0.8775991650390624
-0.20586123046875,-0.073454931640625,0.9493630126953125
-0.304334765625,-0.11683592041015625,1.0727378466796875
-0.28634207031250003,-0.1822750390625,1.0597122167968749
-0.2182616015625,0.059874208984374996,1.00613509765625
-0.1900568359375,-0.2200189501953125,0.873912666015625
-0.0006472460937500014,-0.16046199951171874,1.0363643896484376
-0.341292734375,0.0093856005859375,1.2826225244140625
-0.54577728515625,0.03904153076171875,1.2423168017578126
-0.2357680078125,-0.0504164404296875,1.0339067236328126
-0.24719580078125,0.0231106591796875,1.062661416015625
-0.5100350390625,0.010611052246093749,1.1395863623046876
-0.33108066406250003,0.0436982470703125,0.949608779296875
-0.29096181640625,0.09394176513671874,0.8183694140625
-0.3408064453125,0.06747200927734374,0.812471015625
-0.16890326171875,0.0417375244140625,0.793301220703125
-0.03298546875,0.012816865234374999,0.7935469873046875
-0.213885,0.03757098876953125,0.959439443359375
-0.2450075,0.04394333740234375,1.0491442529296875
-0.31527626953125,-0.093062158203125,1.098051806640625
-0.23795630859375,-0.1038461328125,1.2555881982421875
-0.41350666015625,-0.0768861962890625,1.34430994140625
-0.380195859375,-0.05605351806640625,1.1735021533203125
-0.346155625,-0.08423890625,0.9272440185546875
-0.30311904296875003,-0.13007079833984375,0.7788009912109375
-0.1710915625,0.00668960693359375,0.73677490234375
-0.18081734375,-0.06438658935546875,0.827708544921875
-0.22190876953125,-0.06193568603515625,1.11820466796875
-0.2698082421875,-0.07370002197265625,1.2344522705078125
-0.33253953125,-0.17663796142578125,1.050864619140625
-0.29290697265625,-0.11046357177734376,0.812471015625
-0.21801845703125,-0.15359947021484374,0.743164833984375
-0.23747001953125,-0.15899145751953125,0.80755568359375
-0.2980130078125,-0.07468038330078125,0.9532952783203125
-0.405482890625,-0.0925719775390625,0.9842618701171875
-0.30409162109375,-0.11389483642578124,0.87440419921875
-0.3155194140625,0.03021827880859375,0.778555224609375
-0.24768208984375,-0.11144393310546875,0.7591396630859375
-0.15723232421875,0.04590406005859375,0.8771076318359375
-0.20197091796875,0.01796376220703125,1.1538408251953125
-0.33813185546875,-0.03448556884765625,1.292698955078125
-0.408400625,0.0515411376953125,1.3101483837890624
-0.37703498046875,0.0221302978515625,1.0987891064453126
-0.24816837890625,-0.02174087158203125,0.93928658203125
-0.32451576171875,-0.037916833496093746,0.886692529296875
-0.370470078125,-0.013162709960937501,0.887675595703125
-0.22142248046875002,-0.08644471923828125,0.805098017578125
-0.33326896484375,-0.08350363525390625,0.7296476708984375
-0.286828359375,-0.01095689697265625,0.7670041943359375
-0.22336763671875,-0.1229631787109375,0.75250396484375
-0.337402421875,-0.05311243408203125,0.8132083154296875
-0.36050115234375,-0.0964934228515625,0.786419755859375
-0.1287844140625,-0.0553182470703125,0.8146829150390625
-0.380195859375,-0.2337440087890625,0.8441749072265625
-0.29047552734375,-0.154824921875,1.0171945947265626
-0.2240970703125,-0.1062970361328125,1.09461107421875
-0.41447923828125,-0.049926259765625,1.00515203125
-0.2411171875,0.055952763671875,0.8982435595703124
-0.32694720703125,0.024091020507812498,0.8436833740234375
-0.24306234375,0.042227705078125,0.9685328076171875
-0.28391062499999997,0.0427178857421875,1.103950205078125
-0.36196001953125,-0.03056412353515625,1.131476064453125
-0.3388612890625,0.03413972412109375,1.0284998583984375
-0.2999581640625,-0.07026875732421875,0.938303515625
-0.27491427734375,-0.09281706787109376,0.9203625537109374
-0.31308796875,-0.1268846240234375,0.945676513671875
-0.27248283203125,-0.12958061767578125,1.008592763671875
-0.35588140625,-0.02027032958984375,1.087729609375
-0.45046462890625,-0.10899302978515625,0.9953213671875
-0.28853037109375,7.216796875000007e-05,1.0142453955078126
-0.28950294921874997,0.0721287255859375,1.0860092431640624
-0.439523125,-0.0631611376953125,0.9970417333984375
-0.18251935546875,-0.0803174609375,0.966320908203125
-0.27442798828125,0.11256863037109376,1.0378389892578126
-0.419098984375,0.0608545703125,1.1329506640625
-0.4098594921875,-0.07075893798828126,1.026287958984375
-0.2260422265625,0.03757098876953125,0.9867195361328125
-0.3748466796875,-0.1396293212890625,0.97664310546875
-0.183735078125,-0.08791526123046875,1.03366095703125
-0.19710802734375,-0.10850284912109374,0.879811064453125
-0.34810078125,-0.12614935302734376,1.003677431640625
-0.48790888671875,-0.2062938916015625,1.035135556640625
-0.1472633984375,-0.1141399267578125,0.9803296044921875
-0.405482890625,-0.08595453857421875,0.9346170166015625
-0.25400384765625,-0.03546593017578125,1.0039231982421875
-0.2056180859375,-0.0494360791015625,0.8734211328125
-0.206104375,-0.08987598388671875,1.0732293798828125
-0.22142248046875002,-0.13840386962890625,1.0668394482421875
-0.1346198828125,-0.130315888671875,0.9911433349609375
-0.3116291015625,-0.02272123291015625,1.0024485986328124
-0.30530734375,-0.147962392578125,0.9724650732421874
-0.29679728515625,0.02139502685546875,0.9872110693359375
-0.4302836328125,0.0133070458984375,1.0063808642578125
-0.25546271484375,-0.013652890625,1.0083469970703125
-0.2800203125,0.0476196923828125,1.0402966552734374
-0.3267040625,-0.0974737841796875,1.00515203125
-0.2878009375,0.0074248779296875,1.09264494140625
-0.33181009765625,-0.0876701708984375,1.001711298828125
-0.38092529296875,-0.06389640869140625,0.9532952783203125
-0.15480087890625,0.05913893798828125,1.0584833837890626
-0.37071322265625,-0.0018885546875000003,1.079865078125
-0.32281375,0.11747043701171875,1.1543323583984375
-0.26810623046875,0.06281529296875,1.0329236572265625
-0.30846822265625,0.0162481298828125,1.0083469970703125
-0.32257060546875,0.0883046875,0.99827056640625
-0.32475890625,-0.106787216796875,1.0476696533203125
-0.43052677734375,-0.013162709960937501,1.03759322265625
-0.38967849609375,-0.091101435546875,0.9105318896484375
-0.30214646484375,-0.124433720703125,0.84884447265625
-0.33181009765625,-0.17639287109375001,0.8323781103515625
-0.3709563671875,-0.09012107421875,0.8195982470703125
-0.24962724609375,-0.14967802490234375,0.72497810546875
-0.17522501953125,-0.18031431640625,0.7357918359375
-0.13632189453125,-0.10458140380859375,0.8195982470703125
-0.212912421875,-0.18252012939453124,0.910286123046875
-0.2532744140625,-0.0254172265625,1.1037044384765624
-0.3019033203125,0.024091020507812498,1.2064348779296874
-0.37217208984375,0.04835496337890625,1.21061291015625
-0.2814791796875,0.10276501708984374,1.1508916259765625
-0.23406599609375,0.114774443359375,1.0661021484375
-0.3038484765625,0.11305881103515625,1.1014925390624999
-0.36366203125,0.0451687890625,1.0806023779296874
-0.3942982421875,-0.03497574951171875,1.0324321240234375
-0.27272597656249997,-0.09477779052734375,1.0914161083984375
-0.2153438671875,-0.1013952294921875,1.00515203125
-0.21583015625000002,-0.20800952392578126,0.8869382958984375
-0.28464005859375,-0.206784072265625,0.897506259765625
-0.2406308984375,-0.19183356201171875,0.7987080859375
-0.3267040625,0.02286556884765625,0.823776279296875
-0.17619759765625,0.06060947998046875,0.8984893261718749
-0.3602580078125,0.05105095703125,0.977626171875
-0.32013916015625,0.05374695068359375,1.14573052734375
-0.22920310546875,-0.08203309326171875,1.07494974609375
-0.37581925781250003,-0.0210056005859375,1.0201437939453124
-0.31138595703125,0.1471263671875,1.0319405908203125
-0.444386015625,0.07335417724609375,0.9577190771484375
-0.39575710937499997,0.13119549560546875,0.9048792578125
-0.294608984375,-0.06977857666015624,0.97369390625
-0.19710802734375,-0.04477936279296875,1.0044147314453125
-0.24962724609375,-0.0724745703125,0.9542783447265625
-0.2649453515625,-0.0925719775390625,0.8490902392578125
-0.28269490234375,-0.0038492773437499997,0.796741953125
-0.2153438671875,-0.0964934228515625,0.7790467578125
-0.2075632421875,-0.0190448779296875,0.9641090087890625
-0.36439146484375,0.048109873046875,0.949608779296875
-0.327676640625,-0.07075893798828126,0.90389619140625
-0.2639727734375,0.08070688720703124,1.0378389892578126
-0.37849384765625,0.07531489990234375,1.0894499755859375
-0.255705859375,-0.0259074072265625,1.0452119873046875
-0.4020788671875,-0.0268877685546875,0.99433830078125
-0.24573693359375,-0.0337502978515625,0.93338818359375
-0.21947732421875,-0.10164031982421876,0.8574463037109374
-0.36220316406249997,-0.04306373046875,0.8677685009765626
-0.39405509765625,-0.059729873046875,0.8068183837890625
-0.19127255859375,-0.069533486328125,0.8132083154296875
-0.13510617187500001,-0.0803174609375,0.7891231884765625
-0.19419029296875,-0.18889247802734374,0.7969877197265625
-0.1477496875,-0.1945295556640625,0.8874298291015625
-0.2722396875,-0.18202994873046874,1.035135556640625
-0.3233000390625,0.04884514404296875,1.1361456298828125
-0.52729830078125,0.04149243408203125,1.0865007763671874
-0.3709563671875,0.05129604736328125,1.080356611328125
-0.33642984375,0.026051743164062502,1.0604495166015624
-0.42128728515625,0.0373258984375,1.0398051220703124
-0.2639727734375,0.0133070458984375,0.8967689599609375
-0.21753216796875,-0.0219859619140625,0.8102591162109375
-0.2085358203125,-0.08252327392578125,0.8053437841796875
-0.25473328125,-0.1425704052734375,0.8240220458984375
-0.2591098828125,-0.1033559521484375,0.922082919921875
-0.32451576171875,-0.057278969726562504,0.9400238818359374
-0.2600824609375,-0.0661022216796875,0.9007012255859375
-0.1355924609375,0.03266918212890625,0.9493630126953125
-0.44608802734374997,0.03119864013671875,0.941744248046875
-0.335457265625,0.11992134033203125,0.9793465380859375
-0.23066197265625,0.07261890625,1.045949287109375
-0.40280830078125,0.1113431787109375,1.1037044384765624
-0.28658521484375,0.04786478271484375,1.1174673681640626
-0.41010263671875,-0.032279755859375,1.0245675927734375
-0.2065906640625,0.01992448486328125,0.973202373046875
-0.23844259765625,-0.1013952294921875,0.853268271484375
-0.3339983984375,-0.11364974609375,0.804606484375
-0.1200312109375,-0.08350363525390625,0.7928096875
-0.2143712890625,-0.08203309326171875,0.8427003076171875
-0.255705859375,-0.0082609033203125,0.9552614111328125
-0.23795630859375,-0.02664267822265625,1.04349162109375
-0.370470078125,-0.0337502978515625,1.1329506640625
-0.41788326171875,0.15472416748046874,1.1132893359375
-0.329621796875,-0.00654527099609375,1.0083469970703125
-0.25303126953125,-0.06683749267578125,0.9690243408203125
-0.30141703125,0.0280124658203125,1.0206353271484374
-0.30555048828125,0.0505607763671875,1.0648733154296874
-0.35320681640625,-0.03546593017578125,1.0339067236328126
-0.38627447265625,0.03536517578125,1.087729609375
-0.27491427734375,-0.0881603515625,1.0884669091796875
-0.19321771484375,-0.05409279541015625,1.0857634765625
-0.23844259765625,-0.09869923583984375,1.0162115283203126
-0.27637314453125,0.012816865234374999,0.906845390625
-0.2153438671875,-0.0371815625,0.864082001953125
-0.32986494140625,0.05815857666015625,0.931913583984375
-0.30020130859375,0.0231106591796875,1.0108046630859375
-0.28026345703125,-0.092081796875,1.01989802734375
-0.3855450390625,0.0191892138671875,1.08379734375
-0.3641483203125,0.01600303955078125,0.99827056640625
-0.3408064453125,0.01551285888671875,0.9793465380859375
-0.24184662109375,0.11796061767578125,1.0383305224609374
-0.3048210546875,-0.03840701416015625,0.9822957373046874
-0.28853037109375,-0.05409279541015625,1.068559814453125
-0.20488865234375,0.00399361328125,1.0678225146484375
-0.30895451171875,-0.0317895751953125,0.9542783447265625
-0.19564916015625,-0.02468195556640625,0.9238032861328125
-0.294608984375,0.016738310546875,0.8989808593749999
-0.2542469921875,-0.06634731201171876,0.92159138671875
-0.3057936328125,-0.01732924560546875,1.0196522607421874
-0.2970404296875,7.216796875000007e-05,0.95894791015625
-0.267376796875,-0.04723026611328125,0.9245405859375
-0.35028908203125,-0.03522083984375,1.03169482421875
-0.430769921875,0.08560869384765625,1.0692971142578125
-0.34250845703125,0.04198261474609375,0.922574453125
-0.16938955078125,-0.04036773681640625,0.86260740234375
-0.27734572265625,0.028257556152343752,0.9596852099609375
-0.23357970703125,-0.04428918212890625,0.9744312060546875
-0.25351755859375,-0.12467881103515625,0.947642646484375
-0.30214646484375,0.0123266845703125,1.0216183935546874
-0.22531279296875,-0.00507472900390625,1.0031858984375
-0.29825615234375,0.02090484619140625,1.065610615234375
-0.2450075,0.0037485229492187503,1.0953483740234375
-0.3369161328125,0.0037485229492187503,0.9842618701171875
-0.23017568359375,-0.0053198193359375,0.9744312060546875
-0.27880458984375,-0.05409279541015625,0.9016842919921875
-0.35393625,-0.051886982421875,0.9267524853515625
-0.300444453125,-0.07173929931640625,0.9559987109375
-0.3281629296875,-0.0435539111328125,0.8778449316406249
-0.33472783203125,0.04443351806640625,0.926998251953125
-0.28512634765625,-0.0543378857421875,0.9301932177734376
-0.26227076171875,0.024581201171875,0.9559987109375
-0.2610550390625,-0.03546593017578125,0.9365831494140625
-0.2450075,-0.02321141357421875,0.9469053466796875
-0.22750109375,-0.0396324658203125,0.95698177734375
-0.32889236328125,0.01183650390625,0.97664310546875
-0.21266927734375,-0.0494360791015625,0.956490244140625
-0.2941226953125,0.033404453125,0.9994993994140625
-0.32281375,-0.040122646484374996,1.0157199951171876
-0.31430369140625003,-0.0308092138671875,0.932896650390625
-0.3077387890625,0.032424091796875,0.9056165576171875
-0.38189787109375,-0.03056412353515625,0.865065068359375
-0.28074974609375003,0.049090234375,0.8854636962890625
-0.2450075,-0.0553182470703125,0.92552365234375
-0.3135742578125,-0.01169216796875,1.0103131298828125
-0.28123603515625,-0.03522083984375,1.00810123046875
-0.2085358203125,-0.0239466845703125,0.8608870361328125
-0.21461443359375,0.03021827880859375,0.863098935546875
-0.26421591796875,-0.012427438964843749,0.9965502001953125
-0.302389609375,0.00987578125,1.0688055810546875
-0.27029453125,-0.03203466552734375,0.991880634765625
-0.31333111328125,0.0064445166015625,0.9587021435546875
-0.27102396484375,-0.01291761962890625,0.965337841796875
-0.3476144921875,0.026541923828125,0.9916348681640625
-0.39648654296875,-0.042083369140625,0.9606682763671874
-0.2941226953125,0.00816014892578125,0.930438984375
-0.2639727734375,-0.01634888427734375,0.9164302880859375
-0.23406599609375,-0.0788469189453125,0.964354775390625
-0.288773515625,-0.0543378857421875,0.9051250244140625
-0.2591098828125,-0.0513968017578125,0.8476156396484374
-0.28901666015625,0.040266982421875,0.89209939453125
-0.22336763671875,0.00227798095703125,0.89406552734375
-0.21996361328125,-0.0366913818359375,0.9577190771484375
-0.33764556640625,-0.038161923828125,1.11820466796875
-0.34299474609375,-0.0006631030273437505,1.0857634765625
-0.31333111328125,-0.01169216796875,0.994829833984375
-0.354908828125,-0.047965537109375,0.93535431640625
-0.308225078125,-0.0006631030273437505,0.931913583984375
-0.33375525390625,0.11158826904296874,0.9675497412109375
-0.352963671875,0.0427178857421875,0.936828916015625
-0.1258666796875,0.01159141357421875,0.954032578125
-0.2172890234375,-0.0016434643554687498,0.9990078662109375
-0.24962724609375,-0.02149578125,1.095102607421875
-0.35174794921875,-0.07860182861328124,1.0818312109375
-0.389921640625,-0.0474753564453125,1.0024485986328124
-0.26956509765625,0.0093856005859375,0.9159387548828125
-0.2688356640625,-0.083258544921875,0.8992266259765624
-0.33715927734375,0.0221302978515625,1.0267794921875
-0.32086859375,0.0348749951171875,1.0869923095703125
-0.3505322265625,0.01894412353515625,1.1086197705078125
-0.28998923828125,-0.0006631030273437505,0.97860923828125
-0.17814275390625,-0.07419020263671874,0.8441749072265625
-0.26081189453125,-0.0729647509765625,0.768724560546875
-0.2610550390625,-0.14330567626953125,0.788385888671875
-0.2970404296875,-0.0592396923828125,0.8780906982421874
-0.2644590625,-0.13595296630859374,0.9370746826171875
-0.29290697265625,-0.14330567626953125,1.1115689697265625
-0.36439146484375,-0.0523771630859375,1.1041959716796874
-0.1764407421875,-0.05482806640625,1.016457294921875
-0.20732009765625,0.0270321044921875,0.9818042041015624
-0.251815546875,0.09835339111328124,1.0191607275390624
-0.30919765625,0.01012087158203125,0.983033037109375
-0.38870591796875,0.009140510253906251,1.028254091796875
-0.45581380859375,0.085363603515625,0.9972875
-0.1414279296875,-0.0474753564453125,0.8574463037109374
-0.177899609375,-0.0464949951171875,0.8667854345703125
-0.26154132812499997,-0.07566074462890625,0.9277355517578125
-0.3583128515625,0.01159141357421875,1.0621698828125
-0.33424154296874997,-0.05997496337890625,1.135408330078125
-0.37581925781250003,0.016738310546875,1.1572815576171875
-0.26761994140625,-0.027868129882812502,0.9842618701171875
-0.29436583984375,-0.06683749267578125,0.858183603515625
-0.26081189453125,0.08266760986328126,0.7552073974609375
-0.2736985546875,-0.1033559521484375,0.606518603515625
-0.23747001953125,-0.010221625976562499,0.7060540771484375
-0.22093619140625,-0.050661530761718754,0.91176072265625
-0.2941226953125,-0.12761989501953125,1.1010010058593749
-0.23990146484375,-0.11144393310546875,1.2378930029296875
-0.44754689453125,-0.19526482666015624,1.1250861328125
-0.2445212109375,-0.110708662109375,0.9385492822265625
-0.2488978125,0.06673673828125,0.8073099169921875
-0.28196546875,0.16256705810546876,0.7227662060546876
-0.22142248046875002,0.10864718505859375,0.750046298828125
-0.1988100390625,0.0829127001953125,0.965829375
-0.23212083984375,0.0299731884765625,0.9655836083984375
-0.2250696484375,-0.104826494140625,0.941744248046875
-0.28634207031250003,-0.09012107421875,1.02186416015625
-0.3267040625,0.06355056396484375,1.1100943701171875
-0.32086859375,-0.0455146337890625,1.03562708984375
-0.3806821484375,0.030708459472656248,1.05725455078125
-0.292663828125,0.04541387939453125,1.0629071826171874
-0.314060546875,-0.03938737548828125,0.958456376953125
-0.271267109375,0.0211499365234375,0.9414984814453125
-0.26713365234374997,0.110852998046875,0.881777197265625
-0.22579908203125,-0.0435539111328125,0.780521357421875
-0.2488978125,0.0495804150390625,0.8417172412109375
-0.20683380859375,-0.0254172265625,1.0039231982421875
-0.2600824609375,-0.0724745703125,1.120662333984375
-0.32743349609375,0.0201695751953125,1.1666206884765624
-0.2639727734375,0.10031411376953125,1.1656376220703124
-0.30166017578125,-0.00605509033203125,1.1012467724609376
-0.35199109375,0.06453092529296875,1.154086591796875
-0.3267040625,0.05497240234375,1.159984990234375
-0.42201671875,0.04296297607421875,1.0304659912109375
-0.2649453515625,-0.0371815625,0.872929599609375
-0.174009296875,-0.04330882080078125,0.8451579736328125
-0.263486484375,-0.13007079833984375,0.91077765625
-0.304334765625,-0.14869766357421876,1.0078554638671875
-0.2620276171875,-0.0700236669921875,1.1071451708984374
-0.20002576171875,-0.10850284912109374,1.02383029296875
-0.27783201171875,-0.18301031005859375,0.899472392578125
-0.27296912109375,-0.06585713134765625,0.8972604931640625
-0.4040240234375,-0.08840544189453126,0.89996392578125
-0.42712275390625,-0.0161037939453125,0.8628531689453125
-0.2707808203125,-0.0121823486328125,0.796250419921875
-0.29339326171875,-0.0082609033203125,0.7689703271484375
-0.14969484375,0.030463369140625002,0.7704449267578125
-0.20197091796875,-0.10115013916015625,0.7955131201171874
-0.2299325390625,0.06698182861328125,0.9169218212890625
-0.268349375,0.02237538818359375,1.09854333984375
-0.38700390625000003,-0.12418863037109375,1.244528701171875
-0.39356880859375,0.080461796875,1.2054518115234374
-0.1326747265625,-0.00997653564453125,1.091661875
-0.2571647265625,0.055952763671875,0.902913125
-0.30457791015625,-0.05090662109375,0.9223286865234375
-0.21558701171875,0.01404231689453125,0.974185439453125
-0.35612455078125,-0.01830960693359375,1.1086197705078125
-0.21972046875,0.048109873046875,1.2103671435546874
-0.33035123046875,-0.1082577587890625,1.0712632470703125
-0.245980078125,0.06551128662109375,0.9601767431640625
-0.29922873046875,-0.1190417333984375,0.790352021484375
-0.32111173828125,0.02776737548828125,0.7576650634765625
-0.29922873046875,0.03266918212890625,0.7679872607421875
-0.17668388671875,-0.11364974609375,0.891607861328125
-0.38505875,-0.0082609033203125,1.0029401318359374
-0.226528515625,-0.00948635498046875,0.9390408154296875
-0.263486484375,-0.07762146728515625,0.77806369140625
-0.22142248046875002,-0.09918941650390625,0.7522581982421875
-0.1890842578125,-0.00605509033203125,0.8117337158203125
-0.25351755859375,-0.05409279541015625,1.052830751953125
-0.268349375,-0.057769150390625,1.2666476953124999
-0.41545181640625,0.11109808837890625,1.38166646484375
-0.3495596484375,0.1152646240234375,1.2850801904296876
-0.09012443359375,-0.045024453125,1.094119541015625
-0.330594375,0.00570924560546875,1.14671359375
-0.2873146484375,-0.00703545166015625,1.1951296142578125
-0.3515048046875,-0.09232688720703125,1.095594140625
-0.36876806640625,0.013552136230468751,1.06315294921875
-0.27296912109375,-0.07370002197265625,0.8800568310546875
-0.2552195703125,-0.0960032421875,0.7035964111328125
-0.20804953125,-0.112669384765625,0.604552470703125
-0.20464550781250002,-0.07468038330078125,0.622247666015625
-0.19029998046875,0.0427178857421875,0.7625803955078125
-0.413263515625,-0.12124754638671875,0.86359046875
-0.2250696484375,-0.12149263671875,0.8537598046875
-0.25692158203125,-0.11585555908203125,0.884726396484375
-0.36585033203125,-0.06634731201171876,0.8549886376953125
-0.26664736328125,-0.07173929931640625,0.9714820068359376
-0.30652306640625,0.03757098876953125,1.0865007763671874
-0.37995271484375,0.026051743164062502,1.1676037548828124
-0.25594900390624997,-0.01291761962890625,1.1892312158203124
-0.23455228515625,0.00276816162109375,1.18505318359375
-0.2552195703125,0.0887948681640625,1.1155012353515625
-0.2523018359375,0.11158826904296874,1.0280083251953125
-0.24379177734375002,0.0162481298828125,0.991880634765625
-0.23357970703125,0.07090327392578125,1.102967138671875
-0.39794541015625,0.11599989501953126,1.1916888818359375
-0.3194097265625,-0.0016434643554687498,1.0329236572265625
-0.26907880859375,0.08217742919921875,0.8891501953125
-0.28318119140625,0.01894412353515625,0.8456495068359375
-0.321841171875,-0.0396324658203125,0.83704767578125
-0.2610550390625,-0.063651318359375,0.85277673828125
-0.321841171875,-0.05213207275390625,0.9670582080078125
-0.3835998828125,-0.05164189208984375,1.0088385302734375
-0.3135742578125,-0.10507158447265624,0.9120064892578125
-0.22093619140625,-0.05262225341796875,0.811979482421875
-0.19637859375,-0.07468038330078125,0.778555224609375
-0.154557734375,-0.13399224365234375,0.8299204443359375
-0.22701480468750002,-0.13399224365234375,0.89799779296875
-0.3019033203125,-0.10850284912109374,1.064136015625
-0.3223274609375,-0.038161923828125,1.16932412109375
-0.27929087890625,-0.0915916162109375,1.09657720703125
-0.3028758984375,-0.03546593017578125,1.0530765185546875
-0.35126166015625,0.04394333740234375,1.064627548828125
-0.269321953125,-0.068553125,1.01203349609375
-0.2912049609375,0.064776015625,0.9818042041015624
-0.30895451171875,-0.01978014892578125,0.96681244140625
-0.2377131640625,0.00791505859375,0.904387724609375
-0.25594900390624997,0.0030132519531249997,0.8839890966796875
-0.221665625,-0.07468038330078125,0.876861865234375
-0.25254498046875,-0.0719843896484375,0.9591936767578125
-0.31722142578125,0.0191892138671875,1.0543053515625
-0.33083751953125,-0.03938737548828125,0.9940925341796875
-0.28585578125,0.0003172583007812497,0.96288017578125
-0.2133987109375,0.05864875732421875,0.9820499707031249
-0.32281375,0.04124734375,0.9759058056640625
-0.3009307421875,0.00668960693359375,1.02383029296875
-0.2824517578125,-0.0072805419921875,1.027271025390625
-0.28196546875,-0.09624833251953124,1.0083469970703125
-0.2566784375,-0.07443529296875,0.9599309765625
-0.32986494140625,-0.06585713134765625,0.872929599609375
-0.12416466796875,-0.0592396923828125,0.7625803955078125
-0.18543708984375,-0.173451787109375,0.7198170068359375
-0.28318119140625,-0.1161006494140625,0.784453623046875
-0.12610982421875,-0.1768830517578125,0.8618701025390625
-0.26616107421875,-0.2043331689453125,0.9862280029296875
-0.2347954296875,-0.046004814453125,1.0579918505859376
-0.349073359375,-0.19869609130859375,1.0071181640625
-0.22044990234375,-0.07124911865234375,0.9599309765625
-0.32451576171875,-0.022476142578125,0.78494515625
-0.24184662109375,-0.0028689160156250004,0.8240220458984375
-0.21801845703125,0.10423555908203125,0.952557978515625
-0.2450075,0.04051207275390625,1.05233921875
-0.29290697265625,0.05325677001953125,1.1184504345703126
-0.263486484375,-0.0254172265625,1.16145958984375
-0.34980279296875,0.0466393310546875,1.126560732421875
-0.32402947265625,-0.013652890625,0.999745166015625
-0.314060546875,0.03536517578125,0.931913583984375
-0.2688356640625,-0.0023787353515625003,0.883743330078125
-0.33132380859375,-0.079337099609375,0.9262609521484375
-0.312115390625,0.012816865234374999,1.0196522607421874
-0.2785614453125,0.0427178857421875,1.024813359375
-0.33472783203125,0.00276816162109375,1.0289913916015625
-0.29242068359375,-0.06487677001953125,1.0575003173828126
-0.4040240234375,0.02580665283203125,1.0299744580078125
-0.30311904296875003,-0.0435539111328125,0.9913891015625
-0.2488978125,-0.0543378857421875,0.9626344091796875
-0.32500205078125,-0.0533575244140625,0.9188879541015624
-0.36050115234375,-0.01585870361328125,0.9601767431640625
-0.30992708984375,0.0201695751953125,0.9913891015625
-0.1676875390625,-0.08546435791015625,0.980083837890625
-0.38384302734375,-0.1396293212890625,0.9759058056640625
-0.434660234375,-0.00850599365234375,0.922082919921875
-0.29242068359375,-0.151883837890625,0.812962548828125
-0.39794541015625,-0.0646316796875,0.822793212890625
-0.2211793359375,0.026541923828125,0.7694618603515625
-0.23260712890625002,-0.12761989501953125,0.73775796875
-0.26421591796875,0.05105095703125,0.9228202197265625
-0.27394169921875,0.022620478515625,0.9768888720703125
-0.2707808203125,-0.00581,1.15556119140625
-0.2878009375,0.073599267578125,1.2902412890625
-0.33472783203125,0.08315779052734375,1.2644357958984376
-0.347128203125,0.04982550537109375,1.1110774365234375
-0.2717533984375,-0.06585713134765625,1.0049062646484375
-0.30214646484375,0.11894097900390625,1.01006736328125
-0.20051205078125,-0.0013983740234375002,0.9881941357421875
-0.3126016796875,-0.013407800292968751,0.9577190771484375
-0.24719580078125,-0.06830803466796875,1.0167030615234376
-0.27637314453125,-0.13056097900390626,1.02383029296875
-0.2464663671875,-0.18055940673828125,1.0319405908203125
-0.26129818359375,-0.0651218603515625,1.056763017578125
-0.242089765625,-0.04036773681640625,1.0796193115234376
-0.2795340234375,-0.028358310546875,1.055779951171875
-0.2892598046875,0.0137972265625,1.082322744140625
-0.33472783203125,0.03536517578125,1.103950205078125
-0.22677166015625,-0.09134652587890625,1.08674654296875
-0.23066197265625,-0.027868129882812502,1.066593681640625
-0.22774423828125,-0.006790361328125,1.0688055810546875
-0.32281375,-0.107767578125,0.9685328076171875
-0.2921775390625,-0.0847290869140625,0.910286123046875
-0.2566784375,-0.0464949951171875,1.0142453955078126
-0.32548833984375003,-0.05874951171875,1.0904330419921875
-0.310170234375,-0.05899460205078125,1.0860092431640624
-0.24670951171875,0.0020328906249999995,1.0555341845703126
-0.24281919921875,0.019679394531249998,1.0309575244140625
-0.2561921484375,-0.11193411376953125,0.9756600390625
-0.2873146484375,-0.06732767333984375,0.9921264013671875
-0.2260422265625,0.028502646484374998,1.0383305224609374
-0.3033621875,0.0162481298828125,1.0442289208984374
-0.2250696484375,-0.04183827880859375,1.040050888671875
-0.249870390625,-0.06659240234375,1.0130165625
-0.30846822265625,-0.024436865234375,1.09264494140625
-0.28366748046875,0.0044837939453125,1.0132623291015626
-0.251815546875,-0.13105115966796876,0.90586232421875
-0.26859251953125,0.01257177490234375,0.93535431640625
-0.28123603515625,-0.03105430419921875,0.8884128955078126
-0.2955815625,-0.0009081933593750001,0.9754142724609375
-0.38967849609375,-0.06389640869140625,0.90782845703125
-0.21607330078125,0.010611052246093749,0.896523193359375
-0.32208431640625,-0.0567887890625,0.8687515673828125
-0.32013916015625,-0.1200220947265625,0.9439561474609375
-0.32281375,-0.06144550537109375,0.9306847509765624
-0.277102578125,-0.04968116943359375,0.841471474609375
-0.27053767578125,-0.0435539111328125,0.8200897802734375
-0.30700935546875,-0.0513968017578125,0.8567090039062499
-0.2805066015625,0.01183650390625,0.9407611816406249
-0.24695265625,-0.02958376220703125,0.9680412744140625
-0.39405509765625,-0.01438816162109375,1.03759322265625
-0.25692158203125,0.0005623486328125002,0.9650920751953125
-0.2878009375,-0.0631611376953125,0.8495817724609375
-0.2912049609375,0.00570924560546875,0.9110234228515625
-0.273212265625,-0.0425735498046875,0.9434646142578125
-0.26810623046875,-0.05213207275390625,0.947642646484375
-0.23309341796875,0.01698340087890625,0.948625712890625
-0.30798193359375,-0.048455717773437504,0.9921264013671875
-0.3048210546875,-0.03987755615234375,1.037101689453125
-0.23528171875,0.0162481298828125,0.977626171875
-0.2411171875,-0.0827683642578125,0.88816712890625
-0.3602580078125,0.0221302978515625,0.9547698779296875
-0.2260422265625,0.00521906494140625,0.9985163330078125
-0.37314466796875,-0.06046514404296875,0.89406552734375
-0.2639727734375,0.0037485229492187503,0.9719735400390626
-0.25862359375,-0.06585713134765625,0.9144641552734375
-0.245980078125,-0.09673851318359375,0.9188879541015624
-0.26178447265625,-0.04428918212890625,0.9756600390625
-0.3378887109375,-0.09918941650390625,0.9191337207031249
-0.325731484375,-0.022476142578125,0.96877857421875
-0.30555048828125,-0.06928839599609375,0.9621428759765625
-0.3009307421875,-0.04821062744140625,0.9857364697265625
-0.28391062499999997,-0.01144707763671875,1.0565172509765626
-0.31916658203125,-0.01879978759765625,1.009084296875
-0.28220861328125,-0.06879821533203125,0.965337841796875
-0.2698082421875,-0.05262225341796875,0.9955671337890625
-0.27588685546875,-0.029338671875,1.01989802734375
-0.30409162109375,-0.0935523388671875,0.954524111328125
-0.28366748046875,-0.17026561279296876,0.9179048876953125
-0.2921775390625,-0.03056412353515625,0.9537868115234375
-0.23503857421875,-0.1229631787109375,0.953541044921875
-0.28658521484375,-0.07124911865234375,0.944693447265625
-0.26227076171875,-0.08056255126953125,0.8972604931640625
-0.1968648828125,-0.059729873046875,0.875878798828125
-0.19564916015625,-0.0415931884765625,0.90586232421875
-0.2873146484375,-0.00850599365234375,0.9400238818359374
-0.2717533984375,0.004973974609375,1.0874838427734375
-0.339347578125,7.216796875000007e-05,1.02776255859375
-0.206104375,0.05178622802734375,0.9960586669921875
-0.2756437109375,-0.0006631030273437505,0.98254150390625
-0.20586123046875,-0.05850442138671875,0.996795966796875
-0.28609892578125,0.01575794921875,0.969270107421875
-0.19564916015625,-0.02321141357421875,0.9857364697265625
-0.3500459375,-0.09796396484375,1.02383029296875
-0.33570041015625,-0.026397587890625,1.0661021484375
-0.24233291015625,-0.04330882080078125,0.943710380859375
-0.29290697265625,-0.1327667919921875,0.8427003076171875
-0.3028758984375,-0.0425735498046875,0.8431918408203125
-0.212912421875,-0.12614935302734376,0.80067421875
-0.25157240234375,-0.06977857666015624,0.9763973388671875
-0.29242068359375,-0.030073942871093752,1.044966220703125
-0.28074974609375003,-0.146001669921875,0.9218371533203125
-0.191515703125,-0.01781942626953125,0.9297016845703125
-0.36293259765625,-0.0837487255859375,0.828691611328125
-0.24184662109375,-0.0513968017578125,0.8687515673828125
-0.29387955078125,0.03561026611328125,0.8844806298828125
-0.23139140625,-0.02370159423828125,0.9048792578125
-0.22725794921875,0.10987263671875,1.005643564453125
-0.422989296875,0.0505607763671875,0.9913891015625
-0.1939471484375,-0.042328459472656246,0.9818042041015624
-0.3573402734375,-0.01830960693359375,1.01006736328125
-0.32548833984375003,-0.136198056640625,0.9577190771484375
-0.23649744140625,-0.11536537841796875,0.841471474609375
-0.25254498046875,-0.0009081933593750001,0.854251337890625
-0.22093619140625,-0.028113220214843748,0.93437125
-0.34421046875,-0.09281706787109376,1.1331964306640625
-0.35466568359375,0.012816865234374999,1.2452660009765626
-0.29047552734375,0.04124734375,1.1007552392578126
-0.29436583984375,0.11771552734375,1.0889584423828125
-0.35077537109375,0.10987263671875,1.0638902490234374
-0.308225078125,0.075559990234375,0.9604225097656249
-0.3019033203125,0.0319339111328125,0.9756600390625
-0.27102396484375,-0.063651318359375,1.010558896484375
-0.31868029296875,-0.0964934228515625,0.935845849609375
-0.31697828125,-0.0690433056640625,0.8515479052734375
-0.3184371484375,-0.15948163818359376,0.8402426416015625
-0.35661083984374997,-0.1200220947265625,0.8746499658203125
-0.34445361328125,-0.16046199951171874,0.8230389794921875
-0.21801845703125,-0.167569619140625,0.7380037353515625
-0.25205869140625,-0.03129939453125,0.804606484375
-0.17960162109375,-0.10360104248046875,0.9051250244140625
-0.259596171875,-0.0170841552734375,1.08478041015625
-0.442440859375,-0.00997653564453125,1.1081282373046875
-0.20464550781250002,-0.048455717773437504,0.9395323486328125
-0.21461443359375,-0.0881603515625,0.8579378369140624
-0.24136033203125,0.008895419921875,0.9429730810546875
-0.19224513671875,0.04443351806640625,1.0914161083984375
-0.3962433984375,-0.00654527099609375,1.219952041015625
-0.2873146484375,0.10374537841796876,1.309411083984375
-0.27248283203125,0.0682072802734375,1.1798920849609376
-0.338375,-0.0121823486328125,1.002694365234375
-0.137051328125,-0.044534272460937496,0.8731753662109375
-0.26056875,0.0035034326171875,0.874895732421875
-0.30360533203125,-0.114630107421875,0.8805483642578125
-0.28464005859375,-0.15457983154296875,0.8815314306640625
-0.2289599609375,-0.1004148681640625,0.935845849609375
-0.23212083984375,-0.13595296630859374,0.9186421875
-0.232363984375,-0.05556333740234375,1.0196522607421874
-0.36220316406249997,0.01796376220703125,1.1056705712890624
-0.2707808203125,-0.02321141357421875,1.077407412109375
-0.3408064453125,-0.034240478515625,0.9493630126953125
-0.158448046875,0.0358553564453125,1.01203349609375
-0.28464005859375,-0.028113220214843748,0.993846767578125
-0.23455228515625,-0.0023787353515625003,0.9815584374999999
-0.29169125,-0.048455717773437504,0.9488714794921875
-0.30944080078125,-0.09820905517578125,1.0184234277343749
-0.23114826171875,-0.14477621826171874,1.025304892578125
-0.26227076171875,-0.098944326171875,1.034152490234375
-0.29169125,-0.0415931884765625,1.0398051220703124
-0.31138595703125,-0.12811007568359375,0.9795923046875
-0.29776986328125,0.00399361328125,0.9513291455078126
-0.28707150390625,-0.0661022216796875,0.90782845703125
-0.2785614453125,0.01649322021484375,0.8952943603515625
-0.22968939453125,-0.00458454833984375,0.90586232421875
-0.20342978515625,0.010856142578125,0.93732044921875
-0.29582470703125,-0.0229663232421875,0.9660751416015625
-0.34202216796875,-0.1317864306640625,0.883251796875
-0.267376796875,-0.09379742919921875,0.8795652978515625
-0.31770771484375,-0.01928996826171875,0.9331424169921875
-0.25205869140625,-0.089140712890625,0.852285205078125
-0.31430369140625003,-0.03938737548828125,0.8377849755859375
-0.23990146484375,0.05031568603515625,0.8884128955078126
-0.2435486328125,-0.05311243408203125,0.8471241064453126
-0.27685943359375,-0.0415931884765625,0.902913125
-0.29631099609375,0.033404453125,0.9577190771484375
-0.22774423828125,0.048109873046875,0.9646005419921875
-0.30020130859375,0.01208159423828125,0.9203625537109374
-0.30141703125,-0.0592396923828125,0.981066904296875
-0.33618669921875,0.0294830078125,0.9931094677734374
-0.31089966796875,-0.0161037939453125,0.97467697265625
-0.255705859375,-0.06928839599609375,0.8778449316406249
-0.228473671875,-0.07713128662109375,0.777572158203125
-0.267376796875,-0.03252484619140625,0.7768348583984375
-0.24136033203125,-0.0646316796875,0.747097099609375
-0.2649453515625,-0.00605509033203125,0.799199619140625
-0.26324333984375,-0.0651218603515625,0.927981318359375
-0.35977171875,-0.04772044677734375,1.0108046630859375
-0.316005703125,-0.01879978759765625,1.005643564453125
-0.214857578125,-0.038161923828125,0.912252255859375
-0.29509527343749997,-0.050661530761718754,0.85081060546875
-0.29290697265625,-0.0533575244140625,0.8616243359375
-0.1827625,0.0059543359375,0.8891501953125
-0.31965287109375,-0.0955130615234375,0.8717007666015625
-0.26640421875,0.04124734375,1.0009739990234374
-0.2668905078125,0.0182088525390625,1.04742388671875
-0.28196546875,-0.014633251953124999,1.0712632470703125
-0.18495080078125,0.01796376220703125,1.076424345703125
-0.2989855859375,0.05325677001953125,1.058729150390625
-0.2746711328125,-0.038161923828125,0.9559987109375
-0.27734572265625,0.0162481298828125,0.9847534033203125
-0.2707808203125,0.023845930175781252,0.997779033203125
-0.302389609375,-0.0719843896484375,0.9127437890625
-0.34202216796875,-0.0151234326171875,0.968287041015625
-0.23528171875,-0.04919098876953125,0.96681244140625
-0.27272597656249997,-0.02321141357421875,0.9847534033203125
-0.27199654296875,-0.0141430712890625,1.0444746875
-0.2878009375,0.0162481298828125,0.989914501953125
-0.29339326171875,-0.0229663232421875,0.96484630859375
-0.20294349609375,-0.013652890625,0.921099853515625
-0.2202067578125,-0.0729647509765625,0.9768888720703125
-0.3690112109375,-0.046249904785156254,1.0582376171875
-0.358799140625,-0.0092412646484375,0.981066904296875
-0.22823052734375,-0.1102184814453125,0.88620099609375
-0.28634207031250003,-0.1513936572265625,0.881777197265625
-0.31138595703125,-0.02517213623046875,0.9191337207031249
-0.25473328125,-0.09624833251953124,0.900455458984375
-0.333512109375,-0.0249270458984375,0.9626344091796875
-0.2488978125,0.01600303955078125,0.96681244140625
-0.2698082421875,-0.0317895751953125,0.9945840673828125
-0.199296328125,0.05521749267578125,1.048406953125
-0.24525064453125,0.0564429443359375,1.0884669091796875
-0.36390517578125,-0.0886505322265625,1.05528841796875
-0.3344846875,0.01747358154296875,1.0968229736328126
-0.27005138671875,-0.00581,0.99630443359375
-0.34493990234375,-0.10507158447265624,0.8638362353515625
-0.26640421875,-0.0504164404296875,0.835573076171875
-0.17303671874999998,-0.040122646484374996,0.8151744482421874
-0.2668905078125,-0.0006631030273437505,0.9331424169921875
-0.321841171875,0.0505607763671875,1.0582376171875
-0.27394169921875,0.0280124658203125,1.1046875048828124
-0.3189234375,-0.038161923828125,1.10640787109375
-0.27345541015625,0.0329142724609375,0.996795966796875
-0.25789416015625,-0.045024453125,0.9228202197265625
-0.2377131640625,-0.07811164794921875,1.0245675927734375
-0.3476144921875,7.216796875000007e-05,1.1071451708984374
-0.28196546875,0.0059543359375,1.0174403613281249
-0.33618669921875,-0.07713128662109375,0.9481341796875
-0.32111173828125,-0.0347306591796875,1.0191607275390624
-0.29096181640625,-0.09673851318359375,0.94518498046875
-0.2960678515625,-0.0651218603515625,0.8471241064453126
-0.23795630859375,-0.0567887890625,0.7630719287109375
-0.2503566796875,-0.045024453125,0.8014115185546875
-0.2202067578125,0.01649322021484375,0.9690243408203125
-0.23309341796875,-0.05409279541015625,1.136391396484375
-0.31916658203125,0.0544822216796875,1.257308564453125
-0.3942982421875,0.00717978759765625,1.17817171875
-0.28512634765625,0.02433611083984375,1.069542880859375
-0.32548833984375003,-0.027868129882812502,0.89504859375
-0.3106565234375,-0.0621807763671875,0.868997333984375
-0.3057936328125,-0.0646316796875,0.9646005419921875
-0.382141015625,-0.0915916162109375,0.9886856689453125
-0.21947732421875,-0.029338671875,0.981066904296875
-0.31430369140625003,-0.08840544189453126,0.9282270849609375
-0.28950294921874997,-0.059729873046875,0.9520664453125
-0.19613544921875,-0.02223105224609375,0.988931435546875
-0.352963671875,-0.0028689160156250004,0.98942296875
-0.34104958984375,-0.05752406005859375,0.8259881787109375
-0.2853694921875,-0.036201201171875,0.75250396484375
-0.28366748046875,-0.0651218603515625,0.7920723876953125
-0.29752671875000003,0.03806116943359375,0.88620099609375
-0.3339983984375,-0.013162709960937501,0.9788550048828125
-0.2474389453125,0.00276816162109375,1.043983154296875
-0.4244481640625,0.026541923828125,0.983033037109375
-0.2104809765625,-0.050661530761718754,0.9191337207031249
-0.2853694921875,-0.023456503906250002,0.90193005859375
-0.19808060546875,-0.06095532470703125,0.9881941357421875
-0.23163455078125,0.020659755859375,1.110831669921875
-0.37363095703125,-0.0386521044921875,1.11230626953125
-0.18470765625,-0.0425735498046875,1.0031858984375
-0.2960678515625,-0.013407800292968751,0.9464138134765625
-0.265431640625,-0.06340622802734375,0.977134638671875
-0.32013916015625,-0.0190448779296875,0.9945840673828125
-0.31624884765625,0.01894412353515625,1.067576748046875
-0.4088869140625,-0.012672529296875,0.9646005419921875
-0.2902323828125,-0.06144550537109375,0.83114927734375
-0.19856689453125,-0.0009081933593750001,0.82328474609375
-0.1949197265625,-0.023456503906250002,0.8348357763671875
-0.23163455078125,0.00668960693359375,0.8795652978515625
-0.33424154296874997,-0.0435539111328125,0.9754142724609375
-0.27029453125,-0.05090662109375,0.9940925341796875
-0.28585578125,-0.08546435791015625,0.956490244140625
-0.28074974609375003,-0.008996174316406251,0.97860923828125
-0.300444453125,-0.0494360791015625,0.9631259423828125
-0.33181009765625,-0.00997653564453125,0.9439561474609375
-0.27637314453125,0.0417375244140625,0.9719735400390626
-0.3213548828125,-0.026397587890625,0.965337841796875
-0.32159802734375,-0.0631611376953125,1.0211268603515624
-0.252788125,-0.02958376220703125,0.993846767578125
-0.323786328125,0.021640117187500002,0.965337841796875
-0.26227076171875,-0.0866898095703125,0.9080742236328125
-0.26129818359375,0.0280124658203125,0.922082919921875
-0.17668388671875,-0.077376376953125,0.93732044921875
-0.2800203125,-0.0308092138671875,1.0385762890625
-0.30117388671875,-0.01095689697265625,1.0599579833984376
-0.24038775390625,-0.05850442138671875,0.906845390625
-0.27296912109375,-0.00850599365234375,0.8687515673828125
-0.28391062499999997,0.014777587890624999,0.8594124365234375
-0.228473671875,-0.03105430419921875,0.9577190771484375
-0.33618669921875,0.01600303955078125,1.0363643896484376
-0.25886673828125,-0.006790361328125,1.0211268603515624
-0.3184371484375,0.01649322021484375,0.9562444775390625
-0.279047734375,0.021640117187500002,0.9434646142578125
-0.21583015625000002,-0.04821062744140625,0.9724650732421874
-0.3096839453125,-0.02762303955078125,0.9980247998046875
-0.26761994140625,-0.0288484912109375,0.9724650732421874
-0.31041337890625,-0.036201201171875,0.88620099609375
-0.29752671875000003,0.0059543359375,0.834590009765625
-0.2377131640625,-0.0170841552734375,0.9007012255859375
-0.2454937890625,-0.04306373046875,0.9611598095703124
-0.273212265625,-0.03448556884765625,0.9520664453125
-0.32257060546875,-0.04036773681640625,0.9331424169921875
-0.23819945312500002,0.0035034326171875,0.9284728515625
-0.31089966796875,0.00668960693359375,0.9097945898437501
-0.25205869140625,-0.04968116943359375,0.946168046875
-0.24330548828125,0.0044837939453125,0.9638632421875
-0.2411171875,-0.036201201171875,0.8834975634765625
-0.25935302734375,0.011346323242187501,0.9041419580078125
-0.10957599609375,-0.046004814453125,1.031203291015625
-0.30700935546875,-0.0582593310546875,1.089204208984375
-0.31041337890625,0.028502646484374998,1.0425085546875
-0.2980130078125,-0.02076051025390625,0.920116787109375
-0.39478453125,-0.06242586669921875,0.8952943603515625
-0.26081189453125,-0.04085791748046875,0.793301220703125
-0.14604767578125,-0.089140712890625,0.6318325634765625
-0.061676523437500005,-0.114630107421875,0.6726298193359375
-0.15771861328125,-0.15114856689453124,0.80755568359375
-0.25692158203125,-0.083258544921875,1.033169423828125
-0.38311359375,-0.04772044677734375,1.16539185546875
-0.3709563671875,0.0976181201171875,1.1486797265625
-0.36293259765625,0.253005390625,1.0058893310546875
-0.3019033203125,0.2569268359375,1.028254091796875
-0.26324333984375,0.14001874755859375,0.9936010009765625
-0.23163455078125,0.0789912548828125,1.043983154296875
-0.16112263671875,-0.0425735498046875,0.9016842919921875
-0.25108611328125,-0.12075736572265625,0.8210728466796875
-0.2411171875,-0.08203309326171875,0.79772501953125
-0.12635296875,-0.21536223388671874,0.8431918408203125
-0.387976484375,-0.18497103271484375,0.90782845703125
-0.4351465234375,-0.06095532470703125,0.9483799462890625
-0.3291355078125,-0.08938580322265625,0.8874298291015625
-0.2736985546875,0.1495772705078125,1.02972869140625
-0.18397822265625,0.136342392578125,0.993846767578125
-0.2474389453125,-0.030073942871093752,0.9198710205078124
-0.1706052734375,-0.030073942871093752,0.7743771923828124
-0.17230728515625,-0.04772044677734375,0.6728755859375
-0.2513292578125,-0.1739419677734375,0.63060373046875
-0.33618669921875,-0.0494360791015625,0.73087650390625
-0.206104375,0.02531647216796875,0.9282270849609375
-0.27613,-0.1592365478515625,1.0992806396484376
-0.15723232421875,-0.0371815625,1.4467946142578125
-0.537753515625,0.146146005859375,1.4993886669921874
-0.30919765625,0.0574233056640625,1.2541135986328125
-0.39818855468750003,0.07286399658203124,1.0221099267578124
-0.41788326171875,0.02335574951171875,0.8854636962890625
-0.113709453125,-0.08154291259765625,0.65419732421875
-0.03614634765625,-0.170510703125,0.5177968603515625
-0.11857234375,-0.07051384765625,0.55785681640625
-0.0821006640625,-0.0803174609375,0.7613515625
-0.2853694921875,-0.01732924560546875,1.1027213720703124
-0.3388612890625,0.05472731201171875,1.36003900390625
-0.424934453125,0.04712951171875,1.3502083398437499
-0.22823052734375,0.008405239257812499,1.12312
-0.4915560546875,-0.0778665576171875,0.969761640625
-0.160393203125,0.169674677734375,0.8773533984374999
-0.34299474609375,0.112813720703125,0.804606484375
-0.39745912109375,0.023845930175781252,0.6699263867187499
-0.29509527343749997,-0.1455114892578125,0.44185498046875
-0.06289224609374999,-0.2553119580078125,0.6667314208984375
-0.08331638671875,-0.25751777099609374,0.875878798828125
-0.3213548828125,-0.1562954638671875,1.0742124462890625
-0.45824525390625,0.04443351806640625,1.001711298828125
-0.424934453125,0.0329142724609375,1.0176861279296876
-0.191515703125,-0.12909043701171874,0.9636174755859375
-0.1958923046875,0.012816865234374999,1.143272861328125
-0.32281375,-0.00850599365234375,0.827708544921875
-0.31819400390625,0.05178622802734375,0.61094240234375
-0.27272597656249997,0.08511851318359374,0.5128815283203125
-0.16063634765625,-0.03840701416015625,0.6519854248046875
-0.20537494140625,-0.134237333984375,0.94125271484375
-0.2192341796875,-0.23398909912109375,1.3470133740234376
-0.3446967578125,-0.12933552734375,1.46817630859375
-0.38627447265625,-0.07713128662109375,1.1447474609375
-0.2659179296875,0.00717978759765625,0.9208540869140625
-0.20586123046875,0.04933532470703125,1.008592763671875
-0.40937320312500003,0.0623251123046875,1.079865078125
-0.251815546875,0.08953013916015624,1.1292641650390625
-0.29631099609375,0.0329142724609375,1.0393135888671874
-0.2299325390625,0.0740894482421875,0.8205813134765625
-0.21655958984375,-0.03448556884765625,0.714164375
-0.27637314453125,0.0010525292968750002,0.7881401220703125
-0.2484115234375,0.12531332763671876,0.9773804052734375
-0.421044140625,-0.006790361328125,1.021372626953125
-0.52340798828125,-0.0376717431640625,0.9616513427734374
-0.3267040625,-0.09771887451171875,0.6996641455078125
-0.22871681640625,-0.07124911865234375,0.59914560546875
-0.15625974609374998,0.06453092529296875,0.5703909130859375
-0.0743200390625,-0.09673851318359375,0.7807671240234375
-0.21899103515625,0.04835496337890625,0.95698177734375
-0.4273658984375,-0.00409436767578125,1.1936550146484375
-0.38967849609375,0.02433611083984375,1.3452930078125
-0.310170234375,-0.015368522949218751,1.197833046875
-0.2484115234375,0.0012976196289062499,1.0992806396484376
-0.13291787109375,0.08903995849609375,1.239613369140625
-0.392839375,0.046149150390625,1.3760138330078124
-0.45921783203125,0.0652661962890625,1.3971497607421874
-0.44900576171875,0.106931552734375,1.262223896484375
-0.339347578125,0.08462833251953125,1.087729609375
-0.30020130859375,0.042227705078125,0.9542783447265625
-0.15236943359375,-0.04821062744140625,0.8223016796875
-0.0932853125,-0.0641414990234375,0.6347817626953125
-0.0811280859375,-0.1935491943359375,0.5942302734375
-0.1774133203125,-0.25751777099609374,0.6804943505859375
-0.1706052734375,-0.2955067724609375,0.819844013671875
-0.34639876953125,-0.27271337158203124,1.043000087890625
-0.5178156640625,-0.13717841796875,1.0511103857421875
-0.39454138671875,-0.0567887890625,0.9154472216796875
-0.24816837890625,0.0012976196289062499,0.8638362353515625
-0.30603677734375,-0.05556333740234375,0.9808211376953125
-0.14799283203125,0.07090327392578125,1.103458671875
-0.2211793359375,0.23119235107421876,1.2732833935546874
-0.2542469921875,0.1584005224609375,1.3671662353515626
-0.391866796875,-0.013407800292968751,1.4109126904296876
-0.3505322265625,0.1731059423828125,1.2548508984375
-0.34007701171875,0.00619942626953125,1.0481611865234375
-0.23528171875,-0.1259042626953125,0.9223286865234375
-0.304334765625,0.0368357177734375,0.8633447021484375
-0.19856689453125,0.04737460205078125,0.8751414990234375
-0.32257060546875,-0.076396015625,1.216019775390625
-0.5158705078125,0.0750698095703125,1.44654884765625
-0.40256515625,0.1260485986328125,1.3204705810546875
-0.459947265625,0.12188206298828125,1.11623853515625
-0.3339983984375,0.06943273193359376,1.0073639306640625
-0.06678255859375,-0.065612041015625,1.032186357421875
-0.2075632421875,-0.11879664306640625,1.3003177197265625
-0.3446967578125,-0.10948321044921874,1.3391488427734375
-0.27442798828125,-0.1273748046875,1.096085673828125
-0.24622322265625,-0.11046357177734376,0.89603166015625
-0.34688505859375,-0.08619962890625,1.020389560546875
-0.520247109375,-0.00581,1.1430270947265626
-0.39794541015625,-0.0553182470703125,1.01596576171875
-0.30020130859375,-0.063651318359375,0.8023945849609375
-0.280992890625,-0.11340465576171875,0.7397241015625
-0.343237890625,-0.13889405029296875,0.7271900048828125
-0.2056180859375,-0.16781470947265625,0.74070716796875
-0.34737134765625,-0.069533486328125,0.8648193017578125
-0.37581925781250003,0.02360083984375,0.8058353173828126
-0.1939471484375,-0.047965537109375,0.8048522509765625
-0.23503857421875,0.042227705078125,0.9090572900390625
-0.143859375,0.05570767333984375,1.0506188525390625
-0.2192341796875,0.042227705078125,1.227816572265625
-0.3563676953125,0.08634396484375,1.3538948388671874
-0.2260422265625,0.077520712890625,1.3256316796875
-0.4079143359375,-0.0298288525390625,1.1565442578125
-0.31089966796875,-0.03203466552734375,1.15162892578125
-0.31746457031249997,0.02237538818359375,1.1543323583984375
-0.356853984375,-0.15016820556640625,1.0348897900390626
-0.1764407421875,-0.026397587890625,0.9763973388671875
-0.29169125,-0.19820591064453125,0.94715111328125
-0.29825615234375,-0.0915916162109375,0.9793465380859375
-0.1851939453125,0.02090484619140625,1.0304659912109375
-0.1949197265625,-0.050661530761718754,1.103458671875
-0.22190876953125,0.09884357177734375,1.1297556982421875
-0.19953947265625,0.02335574951171875,1.1010010058593749
-0.2255559375,-0.01781942626953125,0.9680412744140625
-0.290718671875,-0.08693489990234375,0.900455458984375
-0.16744439453124998,-0.0788469189453125,0.89406552734375
-0.24038775390625,-0.02321141357421875,0.948625712890625
-0.2659179296875,-0.18595139404296876,0.9061080908203125
-0.29169125,-0.10458140380859375,0.991880634765625
-0.26081189453125,-0.112669384765625,1.17915478515625
-0.24816837890625,-0.075415654296875,1.2305200048828124
-0.33715927734375,0.04639424072265625,1.122628466796875
-0.17376615234375,-0.09134652587890625,0.9324051171875
-0.2022140625,-0.08963089355468751,0.9631259423828125
-0.27345541015625,-0.02615249755859375,0.908319990234375
-0.1151683203125,-0.0739451123046875,0.8775991650390624
-0.1477496875,-0.01879978759765625,0.8638362353515625
-0.25789416015625,-0.0768861962890625,0.93928658203125
-0.25862359375,0.01575794921875,0.9351085498046875
-0.35588140625,0.04002189208984375,0.83114927734375
-0.25862359375,0.03561026611328125,0.8397511083984375
-0.23114826171875,-0.044044091796875,0.9444476806640625
-0.3446967578125,0.0231106591796875,1.0255506591796875
-0.2591098828125,0.0574233056640625,0.9410069482421874
-0.21655958984375,-0.036201201171875,0.8466325732421875
-0.17692703125,-0.08619962890625,0.8053437841796875
-0.1375376171875,0.0255615625,0.7655295947265625
-0.18932740234375,-0.0028689160156250004,0.775606025390625
-0.27418484375,-0.04968116943359375,0.8412257080078125
-0.26421591796875,-0.0974737841796875,0.8338527099609375
-0.12367837890625,0.02874773681640625,0.9896687353515625
-0.19467658203125,-0.0925719775390625,1.13196759765625
-0.40767119140625,-0.02174087158203125,1.1722733203125
-0.31527626953125,-0.00997653564453125,1.01006736328125
-0.39600025390625,-0.1445311279296875,0.6984353125
-0.2892598046875,-0.053847705078125,0.5988998388671875
-0.12659611328125,-0.07713128662109375,0.523941025390625
-0.009886738281250002,-0.0151234326171875,0.578992744140625
-0.0918264453125,-0.11757119140625,0.769707626953125
-0.25157240234375,0.0123266845703125,0.9835245703125
-0.35661083984374997,-0.0092412646484375,1.021372626953125
-0.31284482421875,0.0074248779296875,1.0049062646484375
-0.2892598046875,0.0868341455078125,0.9481341796875
-0.30798193359375,-0.0474753564453125,0.9680412744140625
-0.16160892578125,0.00423870361328125,0.9847534033203125
-0.36755234375,-0.045024453125,0.83901380859375
-0.14069849609375001,0.030708459472656248,0.781504423828125
-0.26956509765625,-0.11291447509765624,0.7330884033203124
-0.13923962890625,-0.00581,0.8751414990234375
-0.25303126953125,0.0064445166015625,0.9498545458984375
-0.37533296875,-0.0680629443359375,1.06020375
-0.2367405859375,-0.05482806640625,0.994829833984375
-0.14556138671875,0.03217900146484375,0.9680412744140625
-0.097175625,0.0201695751953125,1.079373544921875
-0.26178447265625,-0.024436865234375,1.1966042138671875
-0.298499296875,-0.0028689160156250004,1.1513831591796875
-0.25789416015625,-0.09869923583984375,0.9424815478515625
-0.23747001953125,-0.08301345458984374,0.8761245654296875
-0.2912049609375,-0.132276611328125,0.7453767333984375
-0.31527626953125,-0.09722869384765626,0.7399698681640625
-0.17084841796875,-0.0974737841796875,0.6559176904296875
-0.068970859375,-0.08252327392578125,0.787402822265625
-0.06726884765625,0.062080021972656246,1.0304659912109375
-0.1540714453125,-0.09673851318359375,1.23813876953125
-0.3057936328125,-0.010711806640625,1.4266417529296875
-0.32281375,-0.057278969726562504,1.2614865966796875
-0.2221519140625,-0.0366913818359375,1.0894499755859375
-0.3694975,0.0093856005859375,1.025304892578125
-0.339347578125,-0.12663953369140624,0.9159387548828125
-0.316005703125,-0.0121823486328125,0.88226873046875
-0.33983386718749997,-0.04968116943359375,0.8156659814453124
-0.27151025390625,0.02286556884765625,0.851793671875
-0.298499296875,-0.144040947265625,1.0078554638671875
-0.308225078125,-0.1587463671875,1.0865007763671874
-0.10957599609375,0.05521749267578125,1.121645400390625
-0.50249755859375,-0.1210024560546875,0.9813126708984374
-0.16063634765625,-0.0955130615234375,0.9837703369140625
-0.24281919921875,-0.020515419921875,1.0127707958984375
-0.27977716796875,-0.00360418701171875,1.0975602734375
-0.34542619140624997,-0.04183827880859375,1.0511103857421875
-0.40572603515625,0.099088662109375,1.216019775390625
-0.36366203125,-0.0562986083984375,1.118696201171875
-0.33229638671875,-0.09722869384765626,1.0132623291015626
-0.24233291015625,0.0182088525390625,1.0425085546875
-0.16355408203125,-0.05874951171875,1.127052265625
-0.2960678515625,-0.0190448779296875,1.2113502099609375
-0.2678630859375,-0.13742350830078126,1.1543323583984375
-0.1321884375,-0.01879978759765625,1.0540595849609375
-0.26956509765625,-0.1151202880859375,1.2206893408203126
-0.399647421875,-0.067572763671875,1.3194875146484375
-0.30506419921875,-0.0739451123046875,1.2644357958984376
-0.32597462890625,-0.0719843896484375,1.1862820166015624
-0.25838044921875,-0.0396324658203125,1.09461107421875
-0.2396583203125,0.00570924560546875,1.0216183935546874
-0.27807515625,-0.12222790771484375,0.954524111328125
-0.27418484375,0.0368357177734375,1.0339067236328126
-0.21947732421875,0.01208159423828125,1.0565172509765626
-0.24525064453125,-0.2805562622070312,1.033169423828125
-0.1783858984375,-0.10801266845703125,1.22634197265625
-0.15334201171875,-0.12761989501953125,1.2305200048828124
-0.13194529296875,-0.06781785400390625,1.4123872900390624
-0.31697828125,-0.05654369873046875,1.469650908203125
-0.30871136718750003,0.120656611328125,1.248460966796875
-0.36974064453125,0.26550499755859375,0.9936010009765625
-0.37022693359375003,0.208889130859375,0.830657744140625
-0.014506484375,0.0613447509765625,0.6598499560546875
0.0248829296875,0.07580508056640625,0.6839350830078125
-0.004537558593750001,-0.15408965087890625,0.8363103759765624
-0.08988128906250001,-0.3043300244140625,1.088221142578125
-0.35709712890625,-0.24036144775390625,1.5706609814453125
-0.4954463671875,0.08462833251953125,1.7522825
-0.63525447265625,0.083402880859375,1.583686611328125
-0.50298384765625,0.07433453857421875,1.2391218359375
-0.45168035156249997,0.0103659619140625,0.9911433349609375
-0.12513724609375,-0.20751934326171875,0.884726396484375
0.02707123046875,-0.18595139404296876,0.8171405810546875
-0.0011335351562500005,-0.12565917236328125,0.7547158642578125
-0.07456318359375,-0.2160975048828125,0.78789435546875
0.01199626953125,-0.081297822265625,0.9026673583984375
-0.234309140625,0.08903995849609375,1.175714052734375
-0.40256515625,0.05374695068359375,1.3602847705078125
-0.419098984375,-0.02909358154296875,1.2727918603515624
-0.34639876953125,0.04933532470703125,1.055779951171875
-0.36390517578125,-0.04306373046875,0.9739396728515625
-0.11298001953125,-0.2131564208984375,1.040542421875
-0.1637972265625,0.083402880859375,1.345784541015625
-0.44949205078125,-0.0097314453125,1.291715888671875
-0.399647421875,-0.220509130859375,1.0673309814453125
-0.2411171875,-0.07566074462890625,0.7483259326171875
0.005674511718750001,-0.1925688330078125,0.5345089892578125
0.0623271875,-0.20310771728515625,0.3993373583984375
0.05065625,-0.212666240234375,0.623230732421875
0.1338116796875,-0.23791054443359375,0.733334169921875
0.10147345703124999,-0.27516427490234374,1.2349438037109375
-0.45192349609375,-0.011201987304687501,1.4114042236328124
-0.6301484375,0.0701680029296875,1.276478359375
-0.5586639453125,0.111833359375,0.978117705078125
-0.0621628125,0.14001874755859375,0.705808310546875
-0.037362070312499995,0.1191860693359375,0.4376769482421875
-0.2639727734375,0.06698182861328125,0.43423621582031247
-0.28804408203125,0.0809519775390625,0.41359182128906247
-0.19759431640625,-0.0866898095703125,0.3693538330078125
-0.16404037109375,-0.23987126708984374,0.6210188330078125
-0.0694571484375,-0.247959248046875,0.7576650634765625
-0.049276152343750004,-0.304820205078125,0.8156659814453124
-0.25059982421875,0.019434304199218752,0.977626171875
-0.3787369921875,0.1780077490234375,1.056763017578125
-0.32086859375,-0.0268877685546875,1.369378134765625
-0.424934453125,0.10325519775390625,1.4802188720703124
-0.13607875,0.10864718505859375,1.0196522607421874
-0.16720125,-0.1631579931640625,0.8721922998046875
-0.42225986328125,0.0829127001953125,0.9129895556640625
-0.39575710937499997,0.14099910888671874,0.80755568359375
-0.31308796875,-0.11781628173828125,0.8343442431640625
-0.09693248046875,-0.0724745703125,0.8380307421875
-0.22142248046875002,0.08315779052734375,0.8122252490234375
0.007133378906249998,-0.1690401611328125,0.876861865234375
-0.06580998046875,-0.14869766357421876,0.9793465380859375
-0.21558701171875,-0.022476142578125,0.91176072265625
-0.190543125,-0.0259074072265625,0.8215643798828125
-0.1190586328125,-0.08227818359375,1.0830600439453124
-0.23601115234375,-0.04306373046875,1.3293181787109374
-0.5567187890625,0.10227483642578125,1.2312573046875
-0.47915568359375,0.05962911865234375,0.8431918408203125
-0.2746711328125,0.05864875732421875,0.6161035009765625
-0.27102396484375,0.09933375244140626,0.6514938916015625
-0.081614375,-0.0121823486328125,0.76823302734375
-0.15869119140625,-0.10213050048828125,0.9002096923828125
-0.37849384765625,0.09345158447265625,0.9520664453125
-0.2445212109375,-0.04526954345703125,0.7620888623046875
-0.05316646484375,-0.098944326171875,0.5460600195312499
-0.04878986328125,0.01992448486328125,0.5925099072265625
-0.16209521484375,-0.00654527099609375,0.846386806640625
-0.216802734375,-0.05213207275390625,1.1164843017578125
-0.30117388671875,-0.0960032421875,1.2236385400390626
-0.49131291015625,0.0015427099609375003,1.1518746923828125
