ax,ay,az
-0.271267109375,0.0760501708984375,0.9326508837890625
-0.23892888671875,0.06109966064453125,0.9065996240234375
-0.27540056640625,0.05423713134765625,0.95894791015625
-0.216802734375,0.06453092529296875,0.9980247998046875
-0.277102578125,0.055952763671875,0.9759058056640625
-0.22823052734375,0.03536517578125,0.9803296044921875
-0.30506419921875,0.077520712890625,0.994829833984375
-0.26761994140625,0.00668960693359375,0.987948369140625
-0.24622322265625,0.08634396484375,1.0058893310546875
-0.24476435546875,-0.0092412646484375,0.89209939453125
-0.2931501171875,0.026541923828125,0.9818042041015624
-0.19224513671875,0.06943273193359376,0.9778719384765625
-0.3524773828125,0.04345315673828125,0.9638632421875
-0.17084841796875,0.03953171142578125,0.987948369140625
-0.22336763671875,0.04492369873046875,0.9346170166015625
-0.2450075,0.044188427734375,0.95894791015625
-0.24087404296875,0.09149086181640625,0.9881941357421875
-0.25740787109375,0.03462990478515625,0.9606682763671874
-0.2800203125,0.10374537841796876,1.04152548828125
-0.2532744140625,0.06306038330078124,1.0457035205078125
-0.286828359375,0.0922261328125,0.9815584374999999
-0.23309341796875,0.04492369873046875,0.984016103515625
-0.2425760546875,0.05815857666015625,0.946168046875
-0.2328502734375,0.05105095703125,0.9685328076171875
-0.2163164453125,0.1162449853515625,0.968287041015625
-0.2678630859375,0.03217900146484375,0.94911724609375
-0.22531279296875,0.0760501708984375,1.0152284619140626
-0.22531279296875,0.09418685546875,0.9700074072265625
-0.302389609375,0.062080021972656246,0.9680412744140625
-0.23260712890625002,0.06453092529296875,0.9815584374999999
-0.2367405859375,0.05325677001953125,0.9493630126953125
-0.30409162109375,0.055952763671875,1.0221099267578124
-0.230418828125,0.06943273193359376,1.00613509765625
-0.29387955078125,0.04688442138671875,0.8918536279296875
-0.2989855859375,0.038306259765625,0.988931435546875
-0.247925234375,0.08021670654296875,0.9523122119140625
-0.2503566796875,-0.023456503906250002,0.9872110693359375
-0.19710802734375,0.026296833496093748,0.9953213671875
-0.2386857421875,-0.0097314453125,0.8505648388671875
-0.2202067578125,0.024581201171875,0.8775991650390624
-0.23406599609375,0.07139345458984375,0.9606682763671874
-0.3271903515625,0.028502646484374998,0.9709904736328125
-0.2182616015625,0.0436982470703125,1.0206353271484374
-0.26470220703125,0.095167216796875,1.0019570654296874
-0.25400384765625,0.03928662109375,0.9759058056640625
-0.23552486328125,0.1260485986328125,0.977626171875
-0.25449013671875,0.05423713134765625,0.9365831494140625
-0.294608984375,0.04051207275390625,0.954032578125
-0.15480087890625,0.077520712890625,0.99630443359375
-0.25254498046875,0.0956573974609375,1.05135615234375
-0.25473328125,0.04100225341796875,0.9862280029296875
-0.25303126953125,0.03512008544921875,0.984999169921875
-0.249870390625,0.04345315673828125,0.9478884130859375
-0.24622322265625,0.03610044677734375,0.887675595703125
-0.28561263671875,0.0162481298828125,0.8864467626953125
-0.2202067578125,0.08119706787109375,0.9650920751953125
-0.25740787109375,0.056933125,0.9611598095703124
-0.2289599609375,0.053992041015625,0.9557529443359375
-0.27029453125,0.04345315673828125,0.9614055761718749
-0.19370400390625,0.028257556152343752,0.9945840673828125
-0.25157240234375,0.04002189208984375,0.9375662158203125
-0.1988100390625,0.0633054736328125,0.9665666748046875
-0.2503566796875,0.03610044677734375,0.983033037109375
-0.24573693359375,0.0613447509765625,0.9331424169921875
-0.21655958984375,-0.010221625976562499,0.9926179345703126
-0.222638203125,0.087324326171875,1.00515203125
-0.26324333984375,0.00276816162109375,1.0179318945312499
-0.29387955078125,0.07727562255859374,0.99630443359375
-0.2542469921875,0.0329142724609375,0.95796484375
-0.27029453125,0.056933125,0.9341254833984375
-0.1958923046875,0.0750698095703125,0.979100771484375
-0.26761994140625,0.03610044677734375,0.9144641552734375
-0.226528515625,-0.00801581298828125,0.9547698779296875
-0.259596171875,0.10129447509765625,0.9616513427734374
-0.27734572265625,0.07874616455078125,1.0476696533203125
-0.1968648828125,0.12188206298828125,1.0592206835937499
-0.2800203125,0.004973974609375,0.963371708984375
-0.21607330078125,0.06551128662109375,0.9370746826171875
-0.25862359375,0.05325677001953125,0.90782845703125
-0.284883203125,0.06355056396484375,0.9670582080078125
-0.220693046875,0.0525214990234375,1.0280083251953125
-0.2707808203125,0.028257556152343752,0.9559987109375
-0.2289599609375,0.0584036669921875,0.9277355517578125
-0.2542469921875,0.019679394531249998,0.8549886376953125
-0.24476435546875,0.0451687890625,0.930930517578125
-0.25862359375,0.1000690234375,1.024813359375
-0.230418828125,0.0505607763671875,1.070525947265625
-0.2649453515625,0.1123235400390625,0.9832788037109375
-0.24038775390625,0.04982550537109375,0.9139726220703125
-0.23601115234375,0.06306038330078124,0.92650671875
-0.267376796875,0.04639424072265625,0.97271083984375
-0.23212083984375,0.06624655761718751,0.975168505859375
-0.21193984375,0.05717821533203125,0.9245405859375
-0.257651015625,-0.01169216796875,0.890624794921875
-0.23528171875,0.0289928271484375,0.9346170166015625
-0.216802734375,0.04247279541015625,0.9252778857421875
-0.34226531250000003,0.0770305322265625,0.9729566064453125
-0.2411171875,0.07090327392578125,1.0958399072265625
-0.32257060546875,0.089285048828125,1.0717547802734375
-0.20026890625,0.101049384765625,0.9886856689453125
-0.247925234375,0.0691876416015625,0.8721922998046875
-0.31430369140625003,-0.00581,0.92945591796875
-0.25862359375,0.0711483642578125,0.9913891015625
-0.2240970703125,-0.00409436767578125,0.95304951171875
-0.22701480468750002,0.10031411376953125,0.9759058056640625
-0.17084841796875,0.02678701416015625,0.901438525390625
-0.2756437109375,0.03904153076171875,0.896523193359375
-0.2095083984375,0.02139502685546875,0.903404658203125
-0.28804408203125,0.05129604736328125,0.94911724609375
-0.2649453515625,0.079481435546875,1.051847685546875
-0.3135742578125,0.09002031982421875,1.09657720703125
-0.26032560546875,0.02360083984375,1.05135615234375
-0.265431640625,0.07923634521484375,0.954032578125
-0.2445212109375,0.00987578125,0.8812856640625
-0.2255559375,0.04198261474609375,0.9134810888671875
-0.23601115234375,0.01796376220703125,0.9272440185546875
-0.22044990234375,0.052031318359375,0.9857364697265625
-0.25740787109375,0.04296297607421875,0.9837703369140625
-0.23892888671875,0.06011929931640625,0.9542783447265625
-0.22871681640625,0.04394333740234375,0.9591936767578125
-0.26956509765625,0.03021827880859375,1.013508095703125
-0.28220861328125,0.08364797119140625,1.00613509765625
-0.242089765625,0.0505607763671875,0.9717277734375
-0.304334765625,0.0417375244140625,0.9655836083984375
-0.2007551953125,0.05227640869140625,1.009084296875
-0.30020130859375,0.02752228515625,0.9532952783203125
-0.17303671874999998,0.02531647216796875,0.96681244140625
-0.2056180859375,0.022620478515625,0.8830060302734375
-0.19564916015625,0.0701680029296875,0.8667854345703125
-0.1715778515625,0.09247122314453125,0.905370791015625
-0.21510072265625,0.05864875732421875,0.9921264013671875
-0.249870390625,0.04100225341796875,1.100017939453125
-0.310170234375,0.0535018603515625,1.0818312109375
-0.2007551953125,0.0417375244140625,1.0629071826171874
-0.25497642578125,0.10766682373046875,1.013508095703125
-0.24573693359375,0.07139345458984375,0.9228202197265625
-0.26275705078125,0.04737460205078125,0.9397781152343749
-0.1676875390625,0.05423713134765625,0.867031201171875
-0.27540056640625,0.0270321044921875,0.8618701025390625
-0.19832375,0.06551128662109375,1.003677431640625
-0.37119951171875,0.042227705078125,1.042017021484375
-0.16549923828125,0.02531647216796875,1.016457294921875
-0.22288134765625,0.032424091796875,0.933879716796875
-0.21169669921875,0.01404231689453125,0.9100403564453124
-0.19905318359375002,0.07041309326171875,0.9975332666015625
-0.2182616015625,0.10864718505859375,1.0968229736328126
-0.3505322265625,0.07923634521484375,1.1489254931640625
-0.2678630859375,0.12384278564453124,1.033169423828125
-0.29874244140625,0.03855135009765625,1.008592763671875
-0.23503857421875,0.11698025634765626,1.0088385302734375
-0.2450075,-0.0028689160156250004,1.0083469970703125
-0.22093619140625,0.05521749267578125,0.9739396728515625
-0.21655958984375,0.03659062744140625,0.91077765625
-0.25449013671875,-0.02370159423828125,0.8908705615234375
-0.26421591796875,0.06404074462890624,0.98647376953125
-0.29922873046875,-0.02223105224609375,0.9134810888671875
-0.2566784375,0.01796376220703125,0.807064150390625
-0.218747890625,-0.03987755615234375,0.7928096875
-0.1803310546875,-0.034240478515625,0.802148818359375
-0.2027003515625,0.0642858349609375,0.906845390625
-0.28804408203125,0.1035002880859375,1.05332228515625
-0.33472783203125,0.09002031982421875,1.08478041015625
-0.24914095703125,0.16158669677734375,1.0471781201171875
-0.27029453125,0.1309504052734375,1.0137538623046876
-0.23819945312500002,0.1387932958984375,1.0058893310546875
-0.24330548828125,0.0221302978515625,0.993355234375
-0.187625390625,0.075559990234375,0.944693447265625
-0.19078626953125,0.0142874072265625,0.83114927734375
-0.18397822265625,0.0069346972656249995,0.7527497314453125
-0.19564916015625,0.06894255126953125,0.8363103759765624
-0.24914095703125,0.02531647216796875,0.922574453125
-0.2795340234375,0.0505607763671875,0.978117705078125
-0.244034921875,0.01894412353515625,0.908319990234375
-0.259596171875,0.09541230712890625,0.8982435595703124
-0.20464550781250002,0.02433611083984375,0.91176072265625
-0.174981875,0.04002189208984375,1.0383305224609374
-0.2843969140625,0.0721287255859375,1.0621698828125
-0.18835482421875,0.020659755859375,0.9075826904296875
-0.11395259765625,0.024581201171875,0.87637033203125
-0.13923962890625,0.04443351806640625,0.9400238818359374
-0.226528515625,-0.035711020507812496,1.0216183935546874
-0.19273142578125,0.10766682373046875,1.09461107421875
-0.3485870703125,-0.00581,1.0130165625
-0.15820490234375,0.07776580322265625,0.9075826904296875
-0.3048210546875,0.0495804150390625,0.843929140625
-0.29631099609375,0.04002189208984375,0.8682600341796876
-0.21121041015625,0.079481435546875,0.8544971044921875
-0.2411171875,-0.01193725830078125,0.8033776513671875
-0.17862904296875,0.05129604736328125,0.859658203125
-0.18470765625,0.02752228515625,0.9729566064453125
-0.25594900390624997,0.0765403515625,1.0503730859375
-0.244034921875,0.1015395654296875,1.0936280078125
-0.17230728515625,0.10178465576171875,1.04545775390625
-0.25789416015625,0.07286399658203124,1.051847685546875
-0.20683380859375,0.06355056396484375,1.0348897900390626
-0.3301080859375,0.06404074462890624,1.0176861279296876
-0.28318119140625,0.07237381591796875,0.995812900390625
-0.26275705078125,0.02041466552734375,0.8820229638671875
-0.2347954296875,0.009140510253906251,0.851302138671875
-0.26810623046875,0.07139345458984375,0.872929599609375
-0.27977716796875,0.05668803466796875,0.846386806640625
-0.27540056640625,0.05374695068359375,0.903404658203125
-0.269321953125,0.04124734375,0.8643277685546875
-0.2240970703125,0.063795654296875,0.840488408203125
-0.214857578125,0.01796376220703125,0.790352021484375
-0.24330548828125,0.0613447509765625,0.7829790234375
-0.2722396875,0.04394333740234375,0.832623876953125
-0.23139140625,0.07482471923828125,0.8446664404296875
-0.32257060546875,0.042227705078125,0.8967689599609375
-0.27418484375,0.06796218994140625,0.9277355517578125
-0.316005703125,0.0868341455078125,0.9547698779296875
-0.28464005859375,0.12237224365234375,1.0071181640625
-0.30214646484375,0.08953013916015624,1.065610615234375
-0.19953947265625,0.05815857666015625,1.0575003173828126
-0.2668905078125,-0.01781942626953125,1.0108046630859375
-0.23455228515625,0.0701680029296875,0.965337841796875
-0.17571130859375,-0.004829638671875,0.9370746826171875
-0.2333365625,0.10864718505859375,1.016948828125
-0.2921775390625,0.08560869384765625,1.12213693359375
-0.29387955078125,0.06673673828125,1.1789090185546875
-0.31041337890625,0.13854820556640626,1.206189111328125
-0.269321953125,0.09541230712890625,1.099034873046875
-0.2250696484375,0.0623251123046875,1.001219765625
-0.2756437109375,0.06673673828125,0.9481341796875
-0.2153438671875,0.02776737548828125,0.9695158740234375
-0.20440236328125,0.04443351806640625,0.9872110693359375
-0.21972046875,0.030463369140625002,0.98057537109375
-0.21169669921875,0.08070688720703124,1.0663479150390625
-0.16987583984375,0.0476196923828125,1.022355693359375
-0.27783201171875,0.03953171142578125,1.0550426513671876
-0.27248283203125,0.08070688720703124,1.1538408251953125
-0.34980279296875,0.00816014892578125,1.1631799560546874
-0.27977716796875,0.07433453857421875,1.1351625634765625
-0.3009307421875,0.1182057080078125,1.13098453125
-0.24330548828125,0.0387964404296875,1.0742124462890625
-0.2143712890625,0.05717821533203125,1.04742388671875
-0.21266927734375,0.0030132519531249997,1.1027213720703124
-0.12027435546875,0.03266918212890625,1.093136474609375
-0.1988100390625,0.032424091796875,1.1010010058593749
-0.234309140625,0.11796061767578125,1.158018857421875
-0.27418484375,-0.006790361328125,1.1690783544921874
-0.2454937890625,0.1084020947265625,1.1567900244140625
-0.30846822265625,0.04737460205078125,1.0661021484375
-0.20464550781250002,0.085363603515625,1.03169482421875
-0.255705859375,0.09443194580078125,1.0550426513671876
-0.26640421875,0.07482471923828125,1.044966220703125
-0.21801845703125,0.05521749267578125,1.0353813232421876
-0.3252451953125,0.1329111279296875,1.1005094726562499
-0.2464663671875,0.14443037353515625,1.10837400390625
-0.3145468359375,0.14001874755859375,1.0503730859375
-0.25449013671875,0.06673673828125,1.00515203125
-0.19467658203125,0.05276658935546875,0.8977520263671875
-0.16647181640625,0.05864875732421875,0.8731753662109375
-0.2411171875,0.06281529296875,0.8930824609375
-0.24038775390625,0.112813720703125,0.9872110693359375
-0.32281375,0.11599989501953126,0.9744312060546875
-0.26178447265625,0.116735166015625,0.95894791015625
-0.24379177734375002,0.0731090869140625,1.006626630859375
-0.267376796875,0.13266603759765624,1.0555341845703126
-0.1968648828125,0.07850107421875,1.0535680517578125
-0.24695265625,0.10080429443359375,1.02383029296875
-0.2202067578125,0.1084020947265625,1.0830600439453124
-0.2814791796875,0.127519140625,1.0137538623046876
-0.23698373046875,0.026296833496093748,0.9292101513671875
-0.17668388671875,0.1025199267578125,0.8820229638671875
-0.2445212109375,0.0608545703125,0.8365561425781249
-0.17327986328125,0.0848734228515625,0.885709462890625
-0.2396583203125,0.07261890625,0.91765912109375
-0.28123603515625,0.1191860693359375,1.0648733154296874
-0.30263275390625,0.1162449853515625,1.0201437939453124
-0.2488978125,0.1397736572265625,0.9842618701171875
-0.31722142578125,0.089285048828125,1.0167030615234376
-0.168173828125,0.09810830078125,0.980083837890625
-0.2566784375,0.0436982470703125,1.006626630859375
-0.168173828125,0.09026541015625,1.0117877294921875
-0.2221519140625,0.1280093212890625,0.9931094677734374
-0.2299325390625,0.10202974609375,1.0582376171875
-0.234309140625,0.14590091552734374,1.065610615234375
-0.29096181640625,0.0922261328125,1.1464678271484374
-0.2484115234375,0.08511851318359374,1.1617053564453126
-0.16938955078125,0.09418685546875,0.9356000830078125
-0.172064140625,0.0270321044921875,0.8481071728515625
-0.23892888671875,0.12163697265625,0.905370791015625
-0.2766162890625,0.127519140625,0.8515479052734375
-0.2775888671875,0.081442158203125,0.92552365234375
-0.1589343359375,0.1471263671875,1.0053977978515625
-0.2318776953125,0.0770305322265625,0.924049052734375
-0.20051205078125,0.15717507080078125,0.933879716796875
-0.1647698046875,0.13462676025390624,0.883743330078125
-0.18300564453125,0.10202974609375,0.83213234375
-0.201241484375,0.1152646240234375,0.9284728515625
-0.21607330078125,0.096147578125,1.0592206835937499
-0.23503857421875,0.136342392578125,1.145238994140625
-0.2878009375,0.12580350830078124,1.056763017578125
-0.2017277734375,0.11943115966796874,0.98057537109375
-0.2561921484375,0.1976149755859375,0.9763973388671875
-0.22944625,0.114774443359375,0.969761640625
-0.31624884765625,0.1319307666015625,1.0407881884765624
-0.21607330078125,0.1368325732421875,1.1179589013671876
-0.1988100390625,0.114774443359375,1.0108046630859375
-0.22190876953125,0.093206494140625,0.977134638671875
-0.19467658203125,0.071638544921875,0.9867195361328125
-0.259596171875,0.0780108935546875,0.8948028271484375
-0.23941517578125,0.06453092529296875,0.893573994140625
-0.21801845703125,0.07727562255859374,0.97860923828125
-0.2960678515625,0.07286399658203124,0.944693447265625
-0.29339326171875,0.108892275390625,0.95501564453125
-0.2022140625,0.1221271533203125,0.9685328076171875
-0.224583359375,0.13266603759765624,0.952557978515625
-0.21510072265625,0.1221271533203125,0.9714820068359376
-0.242089765625,0.08707923583984375,0.962388642578125
-0.18251935546875,0.0897752294921875,0.9832788037109375
-0.25983931640625,0.063795654296875,0.9803296044921875
-0.1521262890625,0.10595119140625,0.97074470703125
-0.237226875,0.10619628173828125,0.90389619140625
-0.2309051171875,0.097127939453125,0.9191337207031249
-0.24233291015625,0.08021670654296875,0.9247863525390625
-0.24962724609375,0.0495804150390625,0.9115149560546875
-0.22677166015625,0.122617333984375,0.862115869140625
-0.228473671875,0.09394176513671874,0.8146829150390625
-0.21801845703125,0.091245771484375,0.89406552734375
-0.21412814453125,0.10325519775390625,0.9218371533203125
-0.22701480468750002,0.128499501953125,0.974185439453125
-0.25205869140625,0.1466361865234375,0.943710380859375
-0.19127255859375,0.11550971435546875,0.9582106103515625
-0.2396583203125,0.108892275390625,0.900455458984375
-0.2231244921875,0.09394176513671874,0.922574453125
-0.2279873828125,0.09982393310546875,0.846386806640625
-0.22677166015625,0.134381669921875,0.9444476806640625
-0.23649744140625,0.11109808837890625,0.9208540869140625
-0.27296912109375,0.11060790771484375,1.000728232421875
-0.21801845703125,0.0976181201171875,0.9768888720703125
-0.26616107421875,0.11403917236328125,0.886692529296875
-0.24695265625,0.05962911865234375,0.9346170166015625
-0.24306234375,0.06404074462890624,0.9395323486328125
-0.1900568359375,0.07580508056640625,0.946659580078125
-0.27929087890625,0.0672269189453125,0.9749227392578125
-0.17182099609375,0.09492212646484376,0.967303974609375
-0.25254498046875,0.07923634521484375,0.9473968798828125
-0.221665625,0.095167216796875,0.946659580078125
-0.2766162890625,0.096147578125,0.92945591796875
-0.3033621875,0.0976181201171875,0.955507177734375
-0.18835482421875,0.06281529296875,0.9874568359375
-0.2707808203125,0.101049384765625,0.9542783447265625
-0.28998923828125,0.0917359521484375,0.908319990234375
-0.245980078125,0.04247279541015625,0.89996392578125
-0.201241484375,0.10472573974609375,0.89406552734375
-0.2649453515625,0.11649007568359375,0.935845849609375
-0.25497642578125,0.05374695068359375,1.0412797216796874
-0.1920019921875,0.1348718505859375,1.1086197705078125
-0.24233291015625,0.12433296630859375,1.103458671875
-0.27685943359375,0.1436951025390625,1.0732293798828125
-0.2581373046875,0.07457962890625,0.97369390625
-0.22920310546875,0.096147578125,0.9469053466796875
-0.284883203125,0.06257020263671875,0.9606682763671874
-0.24525064453125,0.0642858349609375,0.9931094677734374
-0.2454937890625,0.07090327392578125,0.998762099609375
-0.33132380859375,0.0642858349609375,1.00810123046875
-0.25594900390624997,0.0936966748046875,0.970253173828125
-0.24573693359375,0.0535018603515625,0.963371708984375
-0.22579908203125,0.053992041015625,0.9877026025390625
-0.222638203125,0.08609887451171874,0.9611598095703124
-0.21704587890625,0.0843832421875,0.950591845703125
-0.228473671875,0.0780108935546875,1.03562708984375
-0.2279873828125,0.0584036669921875,1.065610615234375
-0.26616107421875,0.02678701416015625,0.9990078662109375
-0.255705859375,0.09149086181640625,0.99040603515625
-0.25011353515625,0.05962911865234375,1.00416896484375
-0.25692158203125,0.07776580322265625,1.0904330419921875
-0.25400384765625,0.03928662109375,1.1223827001953124
-0.27345541015625,0.08634396484375,1.0860092431640624
-0.25594900390624997,0.0436982470703125,1.04545775390625
-0.2688356640625,0.0211499365234375,1.0461950537109375
-0.24622322265625,0.0294830078125,1.0604495166015624
-0.30166017578125,0.008895419921875,1.04742388671875
-0.27588685546875,0.04786478271484375,1.025304892578125
-0.3048210546875,-0.0018885546875000003,1.00220283203125
-0.22531279296875,0.03536517578125,0.965829375
-0.271267109375,0.095167216796875,1.0176861279296876
-0.32743349609375,0.059874208984374996,1.046932353515625
-0.2873146484375,0.09198104248046875,1.1037044384765624
-0.27053767578125,0.0691876416015625,1.0516019189453125
-0.22579908203125,0.0897752294921875,1.0152284619140626
-0.3349709765625,0.030708459472656248,1.064627548828125
-0.279047734375,0.0603643896484375,1.1073909375
-0.30846822265625,0.028257556152343752,1.115747001953125
-0.29242068359375,-0.0288484912109375,1.0761785791015626
-0.21558701171875,-0.0190448779296875,0.954032578125
-0.20391607421875,0.04247279541015625,0.8967689599609375
-0.22871681640625,0.033404453125,0.8422087744140625
-0.25449013671875,0.05129604736328125,0.9970417333984375
-0.2756437109375,0.040266982421875,1.0697886474609375
-0.349073359375,0.071638544921875,1.13098453125
-0.23260712890625002,0.0544822216796875,1.0565172509765626
-0.29728357421875,0.07384435791015626,0.98843990234375
-0.26227076171875,0.022620478515625,0.9709904736328125
-0.24768208984375,0.0608545703125,0.95108337890625
-0.25935302734375,-0.00654527099609375,0.96877857421875
-0.237226875,0.04712951171875,1.0464408203125
-0.27005138671875,0.0348749951171875,1.1086197705078125
-0.265431640625,0.08805959716796875,1.13589986328125
-0.28901666015625,0.0015427099609375003,1.135408330078125
-0.23503857421875,0.07580508056640625,1.0943653076171875
-0.24038775390625,0.0436982470703125,1.0869923095703125
-0.22482650390625,0.12580350830078124,1.1169758349609376
-0.302389609375,-0.006790361328125,1.0486527197265625
-0.143859375,0.11403917236328125,1.0575003173828126
-0.23455228515625,0.0074248779296875,1.136391396484375
-0.299471875,0.053992041015625,1.0992806396484376
-0.207076953125,0.05815857666015625,1.0422627880859374
-0.263486484375,0.1074217333984375,1.048406953125
-0.29144810546875,0.0037485229492187503,1.0383305224609374
-0.26032560546875,-0.0004180126953125,1.047915419921875
-0.333512109375,0.008895419921875,1.06315294921875
-0.29922873046875,-0.03301502685546875,0.9901602685546875
-0.284883203125,0.03144373046875,0.946168046875
-0.23406599609375,-0.042328459472656246,0.965337841796875
-0.29290697265625,-0.02762303955078125,1.0353813232421876
-0.298499296875,0.00816014892578125,1.095102607421875
-0.2921775390625,0.0584036669921875,1.0604495166015624
-0.2668905078125,0.05913893798828125,1.0516019189453125
-0.3038484765625,0.08854977783203125,1.069542880859375
-0.29096181640625,0.055462583007812497,1.0457035205078125
-0.2814791796875,0.108892275390625,1.052830751953125
-0.222638203125,0.06158984130859375,1.055779951171875
-0.1861665234375,0.0976181201171875,0.9994993994140625
-0.29752671875000003,0.02531647216796875,0.9990078662109375
-0.21023783203125002,0.064776015625,0.946659580078125
-0.2736985546875,0.0378160791015625,0.9026673583984375
-0.25449013671875,0.010611052246093749,0.8825144970703125
-0.28950294921874997,-0.0033590966796874996,0.8775991650390624
-0.2099946875,0.03953171142578125,0.911269189453125
-0.29631099609375,0.0231106591796875,0.9798380712890625
-0.24865466796875,0.0037485229492187503,1.0594664501953126
-0.2800203125,0.09933375244140626,1.008592763671875
-0.26227076171875,0.0309535498046875,0.981066904296875
-0.20975154296875,0.14492055419921876,1.03661015625
-0.2027003515625,0.020659755859375,1.0117877294921875
-0.14896541015625,0.02972809814453125,1.0697886474609375
-0.25157240234375,0.05178622802734375,1.1440101611328124
-0.28950294921874997,0.04737460205078125,1.1132893359375
-0.2722396875,0.02286556884765625,0.977626171875
-0.253760703125,0.0373258984375,0.862115869140625
-0.2435486328125,-0.00605509033203125,0.8780906982421874
-0.21655958984375,-0.0043394580078125,0.8898874951171875
-0.2425760546875,-0.01683906494140625,0.970253173828125
-0.16525609375,0.0436982470703125,1.042017021484375
-0.30117388671875,0.04149243408203125,0.9709904736328125
-0.18349193359375,0.0338946337890625,0.9670582080078125
-0.2153438671875,0.02237538818359375,0.95698177734375
-0.2240970703125,-0.0018885546875000003,1.0530765185546875
-0.2328502734375,0.03855135009765625,1.0078554638671875
-0.24476435546875,0.00816014892578125,0.99237216796875
-0.1287844140625,0.13707766357421874,0.947642646484375
-0.267376796875,0.0535018603515625,0.9287186181640625
-0.19564916015625,0.12923477294921876,0.9842618701171875
-0.2707808203125,0.04247279541015625,0.972219306640625
-0.2255559375,0.0760501708984375,0.9734481396484375
-0.28974609375,0.030463369140625002,0.927981318359375
-0.22774423828125,0.022620478515625,0.9154472216796875
-0.2464663671875,0.026051743164062502,0.9070911572265625
-0.26907880859375,0.04590406005859375,0.9026673583984375
-0.23406599609375,0.036345537109375,0.8852179296875
-0.221665625,0.05423713134765625,0.866048134765625
-0.237226875,0.06673673828125,0.9105318896484375
-0.20391607421875,0.05570767333984375,0.9341254833984375
-0.19321771484375,0.08168724853515624,0.9363373828125
-0.20975154296875,0.05276658935546875,0.922574453125
-0.18470765625,0.09345158447265625,0.956490244140625
-0.29631099609375,0.05276658935546875,0.973202373046875
-0.24573693359375,0.05570767333984375,0.9980247998046875
-0.23017568359375,-0.01144707763671875,0.9599309765625
-0.18470765625,0.044188427734375,0.8458952734375
-0.172064140625,0.0133070458984375,0.8159117480468749
-0.27272597656249997,0.0456589697265625,0.84294607421875
-0.27588685546875,0.0417375244140625,0.926015185546875
-0.24087404296875,0.034384814453125,0.9301932177734376
-0.17862904296875,0.0525214990234375,0.9186421875
-0.183735078125,0.0103659619140625,0.8891501953125
-0.245980078125,0.095167216796875,0.9164302880859375
-0.24719580078125,0.11354899169921875,0.876861865234375
-0.298499296875,0.04124734375,0.818860947265625
-0.2192341796875,0.07629526123046874,0.7719195263671875
-0.1881116796875,0.073599267578125,0.7591396630859375
-0.19953947265625,0.09051050048828126,0.7311222705078125
-0.2630001953125,0.093206494140625,0.801165751953125
-0.2450075,0.0294830078125,0.8245135791015625
-0.26032560546875,-0.04330882080078125,0.8262339453125
-0.15042427734375,0.0255615625,0.828691611328125
-0.19321771484375,0.1123235400390625,0.9193794873046874
-0.29922873046875,0.05497240234375,1.0346440234375
-0.14021220703125,0.155949619140625,1.040050888671875
-0.27831830078124997,0.12825441162109374,1.0132623291015626
-0.2425760546875,0.12972495361328126,0.97467697265625
-0.2454937890625,0.1064413720703125,0.95894791015625
-0.255705859375,0.14688127685546876,0.971236240234375
-0.189570546875,0.08609887451171874,1.02088109375
-0.203186640625,0.091245771484375,0.980083837890625
-0.23747001953125,0.0789912548828125,0.986965302734375
-0.25059982421875,0.11256863037109376,0.9488714794921875
-0.20099833984375,0.015022678222656249,0.8928366943359375
-0.24622322265625,0.06355056396484375,0.9144641552734375
-0.22239505859375,0.05472731201171875,0.986965302734375
-0.3106565234375,0.02041466552734375,0.9906518017578125
-0.20002576171875,0.17090012939453125,1.0149826953125
-0.27029453125,0.111833359375,0.9913891015625
-0.23066197265625,0.11305881103515625,1.023338759765625
-0.2892598046875,0.1084020947265625,1.0417712548828124
-0.27151025390625,0.0530116796875,1.0184234277343749
-0.19613544921875,0.04149243408203125,0.9233117529296875
-0.22920310546875,0.06109966064453125,0.859658203125
-0.18300564453125,0.128499501953125,0.868997333984375
-0.25983931640625,0.022620478515625,0.892590927734375
-0.259596171875,0.13609730224609376,1.1164843017578125
-0.3033621875,0.1289896826171875,1.0235845263671874
-0.33253953125,0.03413972412109375,0.9196252539062499
-0.19856689453125,0.04982550537109375,0.7788009912109375
-0.2309051171875,0.02531647216796875,0.68762158203125
-0.14580453125,0.10766682373046875,0.9223286865234375
-0.29825615234375,0.13560712158203125,1.0948568408203125
-0.302389609375,0.15570452880859376,1.214053642578125
-0.257651015625,0.2025167822265625,1.153103525390625
-0.23892888671875,0.14884199951171875,1.0525849853515625
-0.2503566796875,0.06355056396484375,1.0771616455078126
-0.206104375,0.11305881103515625,1.106899404296875
-0.38821962890625,-0.0082609033203125,1.0575003173828126
-0.16841697265625,0.06060947998046875,1.0110504296875
-0.2717533984375,0.01894412353515625,0.846386806640625
-0.2309051171875,0.0407571630859375,0.94518498046875
-0.22044990234375,0.044188427734375,1.0791277783203126
-0.32791978515625,0.09884357177734375,1.0973145068359376
-0.28196546875,0.103010107421875,1.165883388671875
-0.29533841796875,0.09296140380859375,1.0663479150390625
-0.17692703125,0.09835339111328124,1.001219765625
-0.2386857421875,0.10668646240234375,0.9822957373046874
-0.17862904296875,0.071638544921875,0.9852449365234375
-0.21558701171875,0.11011772705078125,0.9837703369140625
-0.308225078125,0.08560869384765625,1.0334151904296875
-0.27102396484375,0.06281529296875,1.0663479150390625
-0.28609892578125,0.03953171142578125,1.0412797216796874
-0.2722396875,0.07923634521484375,1.041033955078125
-0.24938410156250002,0.10987263671875,1.0759328125
-0.18884111328125,0.16893940673828126,1.103950205078125
-0.3344846875,0.10962754638671875,0.99630443359375
-0.27685943359375,0.0387964404296875,0.942727314453125
-0.20440236328125,0.05129604736328125,0.924049052734375
-0.2231244921875,-0.00311400634765625,0.94715111328125
-0.24038775390625,0.0878145068359375,1.1010010058593749
-0.3057936328125,0.1221271533203125,1.171781787109375
-0.2639727734375,0.0897752294921875,1.0747039794921875
-0.179844765625,0.12923477294921876,1.04742388671875
-0.32062544921875,0.09639266845703125,1.0560257177734376
-0.2688356640625,0.0044837939453125,1.008592763671875
-0.2099946875,0.00865032958984375,0.92552365234375
-0.22725794921875,0.03953171142578125,0.921099853515625
-0.22190876953125,0.0069346972656249995,0.973202373046875
-0.23212083984375,0.0074248779296875,0.9818042041015624
-0.18592337890625,0.13903838623046874,1.0444746875
-0.2912049609375,0.16893940673828126,1.0668394482421875
-0.226528515625,0.108892275390625,1.04939001953125
-0.242089765625,0.059874208984374996,0.997779033203125
-0.2620276171875,0.07923634521484375,0.9813126708984374
-0.25594900390624997,0.05815857666015625,0.954524111328125
-0.2386857421875,0.059874208984374996,0.9282270849609375
-0.21704587890625,0.1005592041015625,0.96484630859375
-0.29242068359375,0.03855135009765625,0.9717277734375
-0.25594900390624997,0.053992041015625,0.99827056640625
-0.27807515625,0.05815857666015625,0.9886856689453125
-0.17182099609375,0.0868341455078125,0.967303974609375
-0.158448046875,0.10595119140625,0.9638632421875
-0.2250696484375,0.13021513427734374,1.0700344140625
-0.35077537109375,0.05423713134765625,1.119187734375
-0.2357680078125,0.0711483642578125,1.0857634765625
-0.3252451953125,0.05717821533203125,1.02972869140625
-0.20464550781250002,0.0397768017578125,0.9842618701171875
-0.17960162109375,0.10399046875,0.9744312060546875
-0.28634207031250003,0.026051743164062502,0.923065986328125
-0.20804953125,0.01110123291015625,1.0737209130859375
-0.24525064453125,0.0623251123046875,0.9520664453125
-0.23844259765625,0.03512008544921875,0.923065986328125
-0.1939471484375,0.05325677001953125,0.9120064892578125
-0.2488978125,0.1289896826171875,0.8948028271484375
-0.20586123046875,0.089285048828125,0.921099853515625
-0.23941517578125,0.1035002880859375,1.0346440234375
-0.2775888671875,0.07776580322265625,1.0825685107421874
-0.29096181640625,0.04443351806640625,0.920116787109375
-0.18227621093750002,0.1574201611328125,0.87243806640625
-0.2644590625,0.073599267578125,0.90586232421875
-0.17814275390625,0.146146005859375,0.9852449365234375
-0.300444453125,0.09737302978515625,1.1066536376953124
-0.251815546875,0.01649322021484375,0.93338818359375
-0.17960162109375,0.0701680029296875,1.0189149609375
-0.255705859375,0.0603643896484375,0.9166760546875
-0.185680234375,0.06257020263671875,0.953541044921875
-0.249870390625,0.12041152099609376,0.956490244140625
-0.3067662109375,0.08462833251953125,1.01989802734375
-0.236254296875,0.06453092529296875,1.0570087841796876
-0.21947732421875,0.0819323388671875,1.009084296875
-0.218747890625,0.0054641552734375,0.9677955078125
-0.18057419921875,0.13266603759765624,0.9945840673828125
-0.27540056640625,0.0799716162109375,1.01006736328125
-0.32548833984375003,0.0201695751953125,1.0201437939453124
-0.23990146484375,0.11305881103515625,0.93437125
-0.2834243359375,-0.0200252392578125,0.922082919921875
-0.18835482421875,0.11207844970703125,1.0255506591796875
-0.288773515625,0.03708080810546875,0.907336923828125
-0.20440236328125,0.09835339111328124,0.999745166015625
-0.22920310546875,0.0593840283203125,0.925032119140625
-0.22044990234375,0.09394176513671874,0.9065996240234375
-0.1944334375,0.132420947265625,0.9808211376953125
-0.31187224609374997,0.09051050048828126,1.0339067236328126
-0.24914095703125,0.09394176513671874,1.0417712548828124
-0.2746711328125,0.09149086181640625,0.9287186181640625
-0.1744955859375,0.069677822265625,0.9324051171875
-0.24768208984375,0.04786478271484375,0.875387265625
-0.2464663671875,0.07457962890625,0.9311762841796875
-0.2814791796875,0.06502110595703126,0.90782845703125
-0.222638203125,0.06158984130859375,0.9481341796875
-0.245980078125,0.104970830078125,0.934862783203125
-0.269321953125,0.036345537109375,0.98647376953125
-0.19613544921875,0.06355056396484375,0.9685328076171875
-0.302389609375,0.06673673828125,0.946659580078125
-0.2411171875,0.069677822265625,0.9537868115234375
-0.26470220703125,0.04443351806640625,1.0216183935546874
-0.24573693359375,0.05815857666015625,0.9660751416015625
-0.2649453515625,0.13413657958984376,0.9872110693359375
-0.2620276171875,0.079481435546875,0.959439443359375
-0.21072412109375,0.0721287255859375,0.996795966796875
-0.25205869140625,0.03462990478515625,0.9940925341796875
-0.23795630859375,0.05325677001953125,1.001711298828125
-0.271267109375,0.010856142578125,0.8810398974609375
-0.1851939453125,-0.010221625976562499,0.823776279296875
-0.1735230078125,0.05031568603515625,0.993355234375
-0.32475890625,0.01453249755859375,1.0073639306640625
-0.29776986328125,0.0427178857421875,0.94223578125
-0.17571130859375,0.07384435791015626,0.9021758251953125
-0.2766162890625,0.05472731201171875,0.941744248046875
-0.2279873828125,0.11796061767578125,1.0545511181640626
-0.27637314453125,0.05031568603515625,0.983033037109375
-0.1530988671875,0.13413657958984376,0.9709904736328125
-0.205131796875,0.048109873046875,0.980083837890625
-0.21218298828125,0.0427178857421875,1.0235845263671874
-0.21972046875,-0.04870080810546875,0.972219306640625
-0.296554140625,0.0848734228515625,0.927981318359375
-0.22628537109375,0.017718671875,0.95796484375
-0.26251390625,0.0711483642578125,0.911269189453125
-0.2114535546875,0.0035034326171875,1.0511103857421875
-0.273212265625,-0.0023787353515625003,1.1597392236328126
-0.2260422265625,0.053992041015625,1.0810939111328124
-0.201241484375,0.01845394287109375,0.8812856640625
-0.24938410156250002,0.05227640869140625,0.862115869140625
-0.187625390625,0.0231106591796875,0.953541044921875
-0.25740787109375,0.03144373046875,1.0157199951171876
-0.2406308984375,0.05619785400390625,1.0919076416015625
-0.23528171875,0.02041466552734375,0.990897568359375
-0.21072412109375,0.09933375244140626,0.9144641552734375
-0.236254296875,0.08462833251953125,0.862115869140625
-0.251815546875,0.0721287255859375,0.9931094677734374
-0.3194097265625,0.036345537109375,0.993846767578125
-0.2085358203125,0.04051207275390625,0.933879716796875
-0.20780638671875,0.03561026611328125,0.95304951171875
-0.29193439453125003,0.075559990234375,1.056763017578125
-0.26640421875,0.06673673828125,1.0818312109375
-0.26616107421875,0.04639424072265625,1.0850261767578124
-0.2318776953125,0.0368357177734375,1.057746083984375
-0.2163164453125,0.05497240234375,0.9134810888671875
-0.218747890625,0.0486000537109375,0.8694888671875
-0.244034921875,0.0319339111328125,0.918150654296875
-0.30311904296875003,0.06355056396484375,1.0245675927734375
-0.240144609375,0.05227640869140625,1.0068723974609375
-0.2450075,0.03021827880859375,0.9975332666015625
-0.2834243359375,0.018699033203125,0.9955671337890625
-0.271267109375,0.13854820556640626,1.02972869140625
-0.23357970703125,0.08315779052734375,1.036118623046875
-0.3203823046875,0.0584036669921875,1.07691587890625
-0.23795630859375,0.0819323388671875,1.0599579833984376
-0.26154132812499997,0.0142874072265625,0.8628531689453125
-0.2056180859375,0.07041309326171875,0.8195982470703125
-0.1900568359375,0.04541387939453125,0.8613785693359375
-0.2882872265625,0.07237381591796875,1.0860092431640624
-0.31478998046875,0.083402880859375,1.1474508935546874
-0.29144810546875,0.0436982470703125,1.0609410498046874
-0.25011353515625,0.0221302978515625,0.9759058056640625
-0.28220861328125,-0.0332601171875,0.93437125
-0.174981875,0.01012087158203125,0.9650920751953125
-0.29169125,0.016738310546875,0.9999909326171875
-0.2878009375,-0.00458454833984375,0.9385492822265625
-0.19759431640625,0.03536517578125,0.8815314306640625
-0.23747001953125,0.05423713134765625,0.9324051171875
-0.1871391015625,0.0652661962890625,1.08871267578125
-0.2620276171875,0.0010525292968750002,1.128526865234375
-0.22968939453125,0.03462990478515625,1.052830751953125
-0.30627992187499997,0.063795654296875,0.9188879541015624
-0.17522501953125,0.057913486328125,0.880794130859375
-0.21947732421875,0.0064445166015625,0.9080742236328125
-0.2221519140625,0.02874773681640625,0.993355234375
-0.27515742187500003,-0.00801581298828125,0.985982236328125
-0.25546271484375,0.10472573974609375,0.9921264013671875
-0.30555048828125,0.07850107421875,0.9744312060546875
-0.27807515625,0.08070688720703124,1.100017939453125
-0.2231244921875,0.046149150390625,1.054796884765625
-0.22142248046875002,0.02531647216796875,1.064136015625
-0.209022109375,0.01306195556640625,1.0658563818359374
-0.30020130859375,0.0535018603515625,0.9572275439453125
-0.1589343359375,0.06011929931640625,0.8633447021484375
-0.28804408203125,0.02286556884765625,0.925032119140625
-0.21072412109375,0.0603643896484375,0.973202373046875
-0.16598552734375,0.008405239257812499,1.06020375
-0.3612305859375,0.0574233056640625,1.0486527197265625
-0.232363984375,0.13536203125,0.9557529443359375
-0.23163455078125,0.0995788427734375,0.9041419580078125
-0.187625390625,0.06109966064453125,1.0068723974609375
-0.28609892578125,0.017718671875,1.0457035205078125
-0.24038775390625,-0.00213364501953125,0.992863701171875
-0.2411171875,0.03462990478515625,0.9429730810546875
-0.22093619140625,0.0250713818359375,0.8702261669921875
-0.16744439453124998,0.04712951171875,0.903404658203125
-0.21801845703125,0.00987578125,0.8908705615234375
-0.2931501171875,0.06796218994140625,0.882760263671875
-0.236254296875,0.0270321044921875,0.9046334912109375
-0.22579908203125,0.0255615625,0.920116787109375
-0.24427806640625,-0.030319033203124998,0.957473310546875
-0.2873146484375,0.01404231689453125,0.9120064892578125
-0.22823052734375,0.03021827880859375,0.9011927587890625
-0.25303126953125,0.01404231689453125,0.90782845703125
-0.19224513671875,0.021640117187500002,0.952557978515625
-0.2722396875,0.00963069091796875,0.97074470703125
-0.24379177734375002,0.08168724853515624,0.9975332666015625
-0.18786853515625002,0.0887948681640625,0.9606682763671874
-0.29144810546875,0.02752228515625,0.8572005371093749
-0.20099833984375,0.04394333740234375,0.926015185546875
-0.31187224609374997,-0.0308092138671875,0.8731753662109375
-0.18106048828125,0.08021670654296875,0.89603166015625
-0.27442798828125,0.0466393310546875,0.9198710205078124
-0.30141703125,0.0878145068359375,0.930930517578125
-0.1803310546875,0.055952763671875,0.9007012255859375
-0.24184662109375,-0.0028689160156250004,0.8274627783203125
-0.121490078125,0.03144373046875,0.8505648388671875
-0.18835482421875,0.04149243408203125,0.8267254785156251
-0.23066197265625,0.09051050048828126,0.918150654296875
-0.269321953125,0.06673673828125,1.001711298828125
-0.26640421875,0.11207844970703125,0.9820499707031249
-0.27345541015625,0.0530116796875,0.987948369140625
-0.2717533984375,0.07065818359375,0.989914501953125
-0.2172890234375,0.0721287255859375,0.978117705078125
-0.25497642578125,0.0255615625,0.9206083203125
-0.216802734375,0.0037485229492187503,0.9449392138671875
-0.27151025390625,-0.00458454833984375,0.92159138671875
-0.23139140625,0.026541923828125,0.9139726220703125
-0.25011353515625,-0.03129939453125,0.8267254785156251
-0.16452666015625,-0.03595611083984375,0.8159117480468749
-0.19419029296875,-0.00948635498046875,0.810996416015625
-0.27491427734375,0.03119864013671875,0.947642646484375
-0.22579908203125,0.08266760986328126,1.0661021484375
-0.29363640625,0.11060790771484375,1.06020375
-0.2561921484375,0.062080021972656246,1.0275167919921875
-0.26324333984375,0.0008074389648437498,1.0029401318359374
-0.25084296875,0.07065818359375,1.058729150390625
-0.279047734375,0.07923634521484375,1.005643564453125
-0.2367405859375,0.022620478515625,0.8731753662109375
-0.1793584765625,0.04247279541015625,0.8874298291015625
-0.232363984375,0.055462583007812497,0.9414984814453125
-0.2532744140625,0.0603643896484375,1.1268064990234374
-0.27345541015625,0.136342392578125,1.045949287109375
-0.2338228515625,0.06624655761718751,0.9088115234375
-0.2513292578125,0.06404074462890624,0.8815314306640625
-0.28269490234375,-0.01046671630859375,0.8544971044921875
-0.2464663671875,-0.01953505859375,0.944693447265625
-0.24816837890625,0.03928662109375,0.990897568359375
-0.25740787109375,-0.04772044677734375,0.9815584374999999
-0.2542469921875,0.0530116796875,1.0058893310546875
-0.2250696484375,0.00717978759765625,1.02776255859375
-0.29776986328125,0.11747043701171875,1.050864619140625
-0.2503566796875,0.024581201171875,1.0865007763671874
-0.2367405859375,0.05815857666015625,1.0417712548828124
-0.2630001953125,-0.0121823486328125,1.049881552734375
-0.249870390625,0.01257177490234375,1.074458212890625
-0.1715778515625,-0.02370159423828125,0.9501003125
-0.29339326171875,0.03315936279296875,0.93437125
-0.2104809765625,-0.00801581298828125,0.8520394384765625
-0.263486484375,-0.045024453125,0.9717277734375
-0.2766162890625,0.0211499365234375,1.015474228515625
-0.2902323828125,0.0358553564453125,1.0255506591796875
-0.23649744140625,0.0686974609375,0.9400238818359374
-0.20464550781250002,0.0613447509765625,0.91372685546875
-0.22579908203125,-0.0004180126953125,1.0176861279296876
-0.28172232421875,0.01600303955078125,1.075441279296875
-0.29582470703125,0.0191892138671875,1.158510390625
-0.30117388671875,0.03021827880859375,1.1093570703125
-0.2722396875,-0.02468195556640625,0.966320908203125
-0.18981369140625,0.026296833496093748,0.8987350927734374
-0.25303126953125,0.08217742919921875,1.0226014599609374
-0.28366748046875,0.09639266845703125,1.01006736328125
-0.1764407421875,0.08756941650390625,1.0110504296875
-0.3631757421875,0.00423870361328125,1.060695283203125
-0.30846822265625,-0.012427438964843749,1.0398051220703124
-0.23747001953125,0.009140510253906251,0.9174133544921875
-0.189570546875,-0.0411030078125,0.8702261669921875
-0.17717017578125,-0.12933552734375,0.8648193017578125
-0.23747001953125,-0.08497417724609375,0.8825144970703125
-0.26227076171875,0.028257556152343752,0.955507177734375
-0.27515742187500003,0.02090484619140625,0.9729566064453125
-0.22871681640625,0.10815700439453126,1.0457035205078125
-0.17765646484375,0.0142874072265625,0.946659580078125
-0.24038775390625,0.04002189208984375,0.9886856689453125
-0.28950294921874997,-0.0063001806640625,1.0073639306640625
-0.26178447265625,0.011346323242187501,1.01596576171875
-0.177899609375,-0.02027032958984375,0.9768888720703125
-0.2503566796875,0.0025230712890624996,0.98057537109375
-0.22871681640625,0.024581201171875,0.9793465380859375
-0.2882872265625,0.0037485229492187503,0.9080742236328125
-0.1589343359375,0.06453092529296875,0.9945840673828125
-0.26567478515625,0.05423713134765625,1.08379734375
-0.27296912109375,0.01992448486328125,1.0766701123046876
-0.2561921484375,0.03217900146484375,0.9591936767578125
-0.2328502734375,-0.03350520751953125,0.840488408203125
-0.1112780078125,-0.0219859619140625,0.8122252490234375
-0.265431640625,0.040266982421875,0.83114927734375
-0.1929745703125,0.09884357177734375,0.9690243408203125
-0.2955815625,0.0008074389648437498,1.0211268603515624
-0.31187224609374997,0.015022678222656249,1.043000087890625
-0.17571130859375,0.0044837939453125,0.94223578125
-0.190543125,0.06698182861328125,0.8537598046875
-0.26761994140625,0.04933532470703125,0.8279543115234375
-0.2328502734375,0.06109966064453125,0.8761245654296875
-0.25157240234375,0.06060947998046875,0.8849721630859375
-0.2318776953125,-0.045024453125,0.9397781152343749
-0.244034921875,0.010611052246093749,0.9439561474609375
-0.2163164453125,-0.0308092138671875,0.9002096923828125
-0.20391607421875,0.02041466552734375,0.89996392578125
-0.2892598046875,0.06281529296875,0.9405154150390624
-0.3019033203125,-0.01193725830078125,0.9675497412109375
-0.20926525390625,0.06796218994140625,0.9277355517578125
-0.2873146484375,0.05913893798828125,0.8481071728515625
-0.18081734375,0.020659755859375,0.816894814453125
-0.1764407421875,-0.01978014892578125,0.8567090039062499
-0.218747890625,0.05497240234375,1.035135556640625
-0.3184371484375,-0.0994345068359375,1.0589749169921876
-0.29728357421875,0.05570767333984375,1.0461950537109375
-0.1978374609375,-0.00507472900390625,0.9488714794921875
-0.2600824609375,0.0686974609375,0.914709921875
-0.1929745703125,0.05913893798828125,0.9464138134765625
-0.2454937890625,0.03561026611328125,0.8957858935546875
-0.2406308984375,0.0074248779296875,0.9591936767578125
-0.3067662109375,0.00325834228515625,0.952557978515625
-0.2192341796875,-0.035711020507812496,0.9228202197265625
-0.23844259765625,-0.01683906494140625,0.97271083984375
-0.218747890625,0.02433611083984375,0.9532952783203125
-0.21704587890625,0.0829127001953125,0.929947451171875
-0.29874244140625,0.0137972265625,0.954032578125
-0.21753216796875,0.034384814453125,1.004660498046875
-0.28415376953125,-0.013407800292968751,1.015474228515625
-0.308225078125,0.012816865234374999,1.058729150390625
-0.27272597656249997,0.0015427099609375003,1.0270252587890625
-0.2766162890625,-0.04821062744140625,0.962388642578125
-0.201241484375,0.011346323242187501,0.94321884765625
-0.26640421875,-0.03914228515625,0.8893959619140624
-0.24573693359375,0.00619942626953125,0.9100403564453124
-0.21315556640625,0.0037485229492187503,0.952557978515625
-0.21412814453125,-0.02468195556640625,0.9980247998046875
-0.2192341796875,-0.01389798095703125,1.067576748046875
-0.30555048828125,-0.03693647216796875,1.044966220703125
-0.32402947265625,0.010611052246093749,1.03169482421875
-0.2785614453125,0.00963069091796875,0.93142205078125
-0.24427806640625,0.05105095703125,0.9464138134765625
-0.31868029296875,0.011346323242187501,1.021372626953125
-0.25400384765625,-0.00752563232421875,1.095594140625
-0.30895451171875,-0.035711020507812496,1.0653648486328124
-0.2211793359375,0.00791505859375,1.0914161083984375
-0.3855450390625,0.017718671875,1.1164843017578125
-0.23601115234375,-0.04330882080078125,1.0132623291015626
-0.2386857421875,-0.0376717431640625,0.9196252539062499
-0.23747001953125,-0.04870080810546875,0.9478884130859375
-0.2182616015625,-0.03105430419921875,1.06806828125
-0.36439146484375,0.010611052246093749,1.1484339599609374
-0.34493990234375,0.03413972412109375,1.232731904296875
-0.2795340234375,-0.00213364501953125,1.091170341796875
-0.259596171875,-0.03399538818359375,0.9641090087890625
-0.27807515625,-0.04772044677734375,0.89209939453125
-0.24087404296875,-0.065612041015625,0.841471474609375
-0.2240970703125,-0.075415654296875,0.9085657568359375
-0.286828359375,0.0133070458984375,0.9085657568359375
-0.29776986328125,-0.05115171142578125,0.93535431640625
-0.2989855859375,0.00987578125,1.0614325830078124
-0.28804408203125,-0.03448556884765625,1.102967138671875
-0.24476435546875,-0.0415931884765625,1.1449932275390624
-0.1988100390625,-0.08742508056640624,1.0751955126953125
-0.2192341796875,0.01453249755859375,1.041033955078125
-0.34931650390625,0.01845394287109375,1.25583396484375
-0.3573402734375,-0.024436865234375,1.289749755859375
-0.27029453125,0.0338946337890625,1.2344522705078125
-0.31187224609374997,-0.02370159423828125,1.1690783544921874
-0.25473328125,-0.059484782714843754,1.0461950537109375
-0.27296912109375,-0.06242586669921875,0.9837703369140625
-0.24719580078125,-0.083258544921875,0.93338818359375
-0.228473671875,-0.075415654296875,0.9454307470703125
-0.2027003515625,-0.048945898437499996,0.9614055761718749
-0.2163164453125,-0.10213050048828125,0.969270107421875
-0.23990146484375,0.0025230712890624996,1.034152490234375
-0.321841171875,-0.040122646484374996,1.1307387646484375
-0.277102578125,0.04051207275390625,1.0442289208984374
-0.19905318359375002,0.0466393310546875,0.902913125
-0.269321953125,0.016738310546875,0.897506259765625
-0.22750109375,0.02237538818359375,0.9503460791015625
-0.27491427734375,0.0005623486328125002,1.032186357421875
-0.2707808203125,-0.0006631030273437505,1.11525546875
-0.290718671875,0.0789912548828125,1.149171259765625
-0.27540056640625,0.07923634521484375,1.1204165673828126
-0.2250696484375,0.036345537109375,1.0395593554687501
-0.23114826171875,0.00619942626953125,0.9675497412109375
-0.20342978515625,-0.0219859619140625,0.9670582080078125
-0.3242726171875,0.0035034326171875,1.0343982568359376
-0.2411171875,0.0005623486328125002,1.0933822412109375
-0.31187224609374997,0.0299731884765625,1.079373544921875
-0.2775888671875,-0.1504132958984375,0.8323781103515625
-0.08574783203125,-0.057278969726562504,0.8102591162109375
-0.34931650390625,0.0211499365234375,1.02383029296875
-0.27005138671875,-0.12271808837890624,1.056271484375
-0.22385392578125,0.04492369873046875,1.023338759765625
-0.2153438671875,-0.014633251953124999,0.92945591796875
-0.31965287109375,-0.06781785400390625,0.941744248046875
-0.18227621093750002,-0.0651218603515625,0.8913620947265625
-0.22725794921875,-0.057769150390625,0.908319990234375
-0.27345541015625,-0.05115171142578125,0.8815314306640625
-0.20488865234375,-0.0055649096679687505,0.92748978515625
-0.27613,-0.02664267822265625,0.91077765625
-0.2464663671875,-0.0523771630859375,0.9704989404296875
-0.2873146484375,0.0030132519531249997,0.968287041015625
-0.27977716796875,0.0250713818359375,0.938303515625
-0.21218298828125,0.0299731884765625,0.920116787109375
-0.25303126953125,0.01575794921875,0.918150654296875
-0.22968939453125,0.00423870361328125,0.9375662158203125
-0.29290697265625,0.0191892138671875,0.946168046875
-0.30409162109375,0.061834931640625,1.03562708984375
-0.3038484765625,0.0201695751953125,1.040542421875
-0.2873146484375,0.0074248779296875,0.9611598095703124
-0.23260712890625002,0.014777587890624999,0.883743330078125
-0.2620276171875,-0.049926259765625,0.8304119775390625
-0.22701480468750002,-0.03154448486328125,0.9164302880859375
-0.2416034765625,-0.0710040283203125,0.9985163330078125
-0.24695265625,-0.0043394580078125,1.0216183935546874
-0.27880458984375,-0.0425735498046875,0.965829375
-0.2172890234375,-0.046004814453125,0.8407341748046875
-0.27685943359375,-0.05115171142578125,0.8333611767578125
-0.27807515625,-0.049926259765625,0.8913620947265625
-0.259596171875,0.03168882080078125,1.0550426513671876
-0.25862359375,-0.046004814453125,1.08281427734375
-0.17717017578125,0.06600146728515625,1.097068740234375
-0.265431640625,-0.02664267822265625,0.92945591796875
-0.255705859375,-0.0175743359375,0.9501003125
-0.24184662109375,0.010856142578125,0.8746499658203125
-0.30214646484375,-0.0798272802734375,0.9085657568359375
-0.2007551953125,0.03904153076171875,0.983033037109375
-0.33083751953125,-0.04919098876953125,0.9503460791015625
-0.24427806640625,-0.037916833496093746,1.0260421923828125
-0.2970404296875,-0.02909358154296875,0.9803296044921875
-0.292663828125,-0.0332601171875,0.9503460791015625
-0.23892888671875,0.01845394287109375,0.9670582080078125
-0.2367405859375,0.0093856005859375,0.985982236328125
-0.268349375,0.0012976196289062499,1.03759322265625
-0.24087404296875,0.02090484619140625,1.073475146484375
-0.30020130859375,0.00521906494140625,1.06511908203125
-0.257651015625,-0.01879978759765625,0.9950756005859375
-0.21315556640625,0.0289928271484375,0.9773804052734375
-0.29169125,-0.06683749267578125,0.93732044921875
-0.2659179296875,-0.01732924560546875,1.0142453955078126
-0.31333111328125,-0.0719843896484375,1.0176861279296876
-0.28464005859375,-0.0298288525390625,1.0599579833984376
-0.27442798828125,-0.03742665283203125,1.015474228515625
-0.31478998046875,0.03144373046875,0.95501564453125
-0.23892888671875,-0.00703545166015625,0.9965502001953125
-0.32208431640625,-0.0366913818359375,0.975168505859375
-0.2377131640625,-0.0229663232421875,1.0565172509765626
-0.26178447265625,-0.0009081933593750001,1.0565172509765626
-0.249870390625,0.03512008544921875,1.0171945947265626
-0.23528171875,-0.0170841552734375,0.9520664453125
-0.252788125,-0.01683906494140625,0.931913583984375
-0.27151025390625,-0.02370159423828125,0.976151572265625
-0.32062544921875,-0.057769150390625,1.080356611328125
-0.2581373046875,0.01649322021484375,1.168832587890625
-0.2931501171875,-0.02762303955078125,1.077407412109375
-0.2581373046875,-0.035711020507812496,1.035135556640625
-0.24938410156250002,-0.01144707763671875,0.9591936767578125
-0.2581373046875,-0.07051384765625,0.9459222802734375
-0.24670951171875,-0.0018885546875000003,1.004660498046875
-0.28634207031250003,-0.02958376220703125,1.1096028369140625
-0.27005138671875,0.04345315673828125,1.1676037548828124
-0.2279873828125,-0.03056412353515625,1.064627548828125
-0.252788125,-0.02664267822265625,1.0073639306640625
-0.26664736328125,-0.05801424072265625,0.9813126708984374
-0.32791978515625,-0.08963089355468751,0.9478884130859375
-0.237226875,-0.0455146337890625,1.0132623291015626
-0.27977716796875,-0.05482806640625,1.053813818359375
-0.247925234375,-0.01830960693359375,1.0520934521484375
-0.1939471484375,-0.04919098876953125,1.01203349609375
-0.3408064453125,-0.01928996826171875,1.0147369287109376
-0.2523018359375,-0.02737794921875,1.072492080078125
-0.24695265625,-0.04968116943359375,1.0024485986328124
-0.201241484375,0.04541387939453125,1.064627548828125
-0.20975154296875,-0.029338671875,1.02579642578125
-0.3072525,-0.00752563232421875,0.969761640625
-0.24330548828125,-0.03497574951171875,0.9965502001953125
-0.34226531250000003,-0.04870080810546875,0.946659580078125
-0.1949197265625,0.01894412353515625,0.9442019140625
-0.252788125,0.015022678222656249,0.97369390625
-0.2591098828125,-0.03301502685546875,1.0267794921875
-0.218747890625,-0.020515419921875,1.0117877294921875
-0.290718671875,-0.07811164794921875,1.001219765625
-0.2318776953125,-0.0386521044921875,1.010558896484375
-0.2488978125,-0.0464949951171875,0.953541044921875
-0.27199654296875,-0.04772044677734375,1.032677890625
-0.2396583203125,-0.05213207275390625,1.0491442529296875
-0.26056875,-0.04183827880859375,0.964354775390625
-0.240144609375,-0.02468195556640625,1.012525029296875
-0.15236943359375,0.01257177490234375,0.987948369140625
-0.28804408203125,-0.04772044677734375,0.8815314306640625
-0.25789416015625,-0.06340622802734375,0.977626171875
-0.24038775390625,-0.02958376220703125,0.9803296044921875
-0.35101851562499997,-0.01561361328125,0.9636174755859375
-0.2231244921875,-0.00311400634765625,0.96681244140625
-0.24306234375,-0.0729647509765625,0.847369873046875
-0.25983931640625,-0.052867343750000004,0.931913583984375
-0.2484115234375,0.0074248779296875,1.0009739990234374
-0.31333111328125,-0.0141430712890625,0.9351085498046875
-0.2824517578125,0.00399361328125,0.97860923828125
-0.23114826171875,-0.0072805419921875,0.9532952783203125
-0.3019033203125,-0.013407800292968751,0.9700074072265625
-0.30700935546875,-0.02272123291015625,1.0857634765625
-0.31673513671875,0.00423870361328125,1.0184234277343749
-0.32208431640625,-0.0513968017578125,0.995812900390625
-0.23114826171875,0.00325834228515625,1.0014655322265624
-0.29971501953125,-0.03350520751953125,0.875387265625
-0.27029453125,-0.04477936279296875,0.92650671875
-0.26372962890625,0.0427178857421875,0.9166760546875
-0.2746711328125,-0.10262068115234375,0.943710380859375
-0.29363640625,0.02090484619140625,1.073475146484375
-0.32864921874999997,-0.00703545166015625,0.9532952783203125
-0.26713365234374997,-0.1131595654296875,0.9186421875
-0.28707150390625,0.01208159423828125,0.9252778857421875
-0.277102578125,-0.07124911865234375,0.8171405810546875
-0.2022140625,-0.01046671630859375,0.9481341796875
-0.21558701171875,0.021885207519531248,1.01989802734375
-0.35855599609375,-0.03252484619140625,1.008592763671875
-0.21121041015625,0.019679394531249998,1.0221099267578124
-0.2523018359375,0.02286556884765625,0.9744312060546875
-0.294608984375,-0.05899460205078125,1.0014655322265624
-0.27272597656249997,0.05521749267578125,1.1054248046875
-0.2581373046875,-0.1200220947265625,0.958456376953125
-0.197351171875,0.023845930175781252,0.9675497412109375
-0.28196546875,-0.06487677001953125,0.98942296875
-0.263486484375,-0.052867343750000004,1.0314490576171875
-0.26470220703125,0.03119864013671875,1.0395593554687501
-0.2960678515625,-0.05874951171875,1.09854333984375
-0.22142248046875002,-0.011201987304687501,1.0700344140625
-0.2581373046875,-0.03203466552734375,1.0206353271484374
-0.27272597656249997,-0.0004180126953125,1.06118681640625
-0.273212265625,-0.03546593017578125,1.027271025390625
-0.24525064453125,0.0010525292968750002,0.984016103515625
-0.25084296875,-0.055808427734375,0.942727314453125
-0.24330548828125,-0.10065995849609374,0.906845390625
-0.2095083984375,-0.0504164404296875,0.9768888720703125
-0.2172890234375,-0.03914228515625,1.0267794921875
-0.32013916015625,-0.02958376220703125,1.0078554638671875
-0.22774423828125,-0.01193725830078125,1.0078554638671875
-0.18495080078125,0.01600303955078125,0.98057537109375
-0.24427806640625,0.01404231689453125,0.950591845703125
-0.22968939453125,-0.02223105224609375,0.9169218212890625
-0.21607330078125,-0.06095532470703125,1.025304892578125
-0.21655958984375,0.01575794921875,1.136391396484375
-0.30214646484375,-0.04477936279296875,1.0486527197265625
-0.2659179296875,0.0133070458984375,0.9945840673828125
-0.247925234375,-0.02517213623046875,0.936828916015625
-0.26056875,0.0231106591796875,1.040050888671875
-0.2649453515625,-0.023456503906250002,1.0717547802734375
-0.26324333984375,-0.044044091796875,1.0707717138671875
-0.25789416015625,0.00325834228515625,1.038084755859375
-0.26251390625,-0.052867343750000004,0.9297016845703125
-0.242089765625,-0.0317895751953125,0.96681244140625
-0.21461443359375,0.01404231689453125,0.9351085498046875
-0.29776986328125,-0.04036773681640625,0.9410069482421874
-0.2566784375,0.0025230712890624996,0.95796484375
-0.23990146484375,-0.0562986083984375,0.9179048876953125
-0.26081189453125,-0.06046514404296875,0.879811064453125
-0.23649744140625,-0.016593974609375,0.9110234228515625
-0.30798193359375,-0.03399538818359375,0.9370746826171875
-0.2610550390625,0.01698340087890625,0.9346170166015625
-0.27613,-0.0288484912109375,0.9375662158203125
-0.2649453515625,-0.0651218603515625,0.9363373828125
-0.21850474609375,-0.05997496337890625,0.949608779296875
-0.24670951171875,-0.02468195556640625,0.85081060546875
-0.22239505859375,-0.015368522949218751,0.88423486328125
-0.27588685546875,-0.0023787353515625003,0.9129895556640625
-0.234309140625,-0.02517213623046875,0.9813126708984374
-0.30944080078125,-0.0170841552734375,1.010558896484375
-0.25692158203125,0.016738310546875,1.00220283203125
-0.20488865234375,-0.044044091796875,0.866048134765625
-0.2722396875,-0.03595611083984375,0.8461410400390625
-0.21996361328125,-0.05311243408203125,0.9537868115234375
-0.22190876953125,-0.0396324658203125,1.01203349609375
-0.282938046875,-0.03252484619140625,0.9768888720703125
-0.27929087890625,-0.00409436767578125,0.9616513427734374
-0.17619759765625,-0.0543378857421875,0.858183603515625
-0.179844765625,-0.027868129882812502,0.8564632373046875
-0.242089765625,0.01257177490234375,0.937811982421875
-0.2600824609375,-0.04428918212890625,1.0235845263671874
-0.3096839453125,0.013552136230468751,1.048406953125
-0.28026345703125,-0.02762303955078125,0.977134638671875
-0.2766162890625,-0.0082609033203125,0.9616513427734374
-0.2853694921875,-0.0371815625,0.94715111328125
-0.16720125,-0.03105430419921875,0.998762099609375
-0.2941226953125,0.00399361328125,1.05528841796875
-0.32086859375,-0.03129939453125,1.1290183984375
-0.232363984375,0.00399361328125,1.0314490576171875
-0.28950294921874997,-0.0308092138671875,0.98254150390625
-0.24476435546875,-0.03522083984375,0.9680412744140625
-0.3067662109375,-0.09796396484375,0.8579378369140624
-0.21461443359375,-0.04575972412109375,0.9075826904296875
-0.26907880859375,-0.04036773681640625,0.9247863525390625
-0.2484115234375,-0.0347306591796875,0.963371708984375
-0.2338228515625,0.00570924560546875,1.006626630859375
-0.3301080859375,-0.0651218603515625,0.97664310546875
-0.2231244921875,0.00325834228515625,0.9097945898437501
-0.2318776953125,-0.044044091796875,0.8967689599609375
-0.21850474609375,-0.0371815625,0.9572275439453125
-0.23917203125,0.01183650390625,1.0240760595703124
-0.28853037109375,0.03315936279296875,1.0678225146484375
-0.26859251953125,0.0466393310546875,1.003677431640625
-0.28391062499999997,-0.00777072265625,0.9306847509765624
-0.27880458984375,-0.00605509033203125,0.9129895556640625
-0.21412814453125,-0.01144707763671875,0.9520664453125
-0.24938410156250002,-0.03301502685546875,1.0304659912109375
-0.2542469921875,0.06011929931640625,0.9862280029296875
-0.3135742578125,0.03806116943359375,1.0353813232421876
-0.23844259765625,0.08119706787109375,1.1091113037109375
-0.27515742187500003,0.052031318359375,1.0658563818359374
-0.1910294140625,-0.0180645166015625,1.09657720703125
-0.372415234375,0.00865032958984375,1.125577666015625
-0.25546271484375,0.0020328906249999995,1.0857634765625
-0.2970404296875,-0.0553182470703125,0.9183964208984375
-0.265431640625,-0.08350363525390625,0.94321884765625
-0.18689595703125,-0.0371815625,1.0648733154296874
-0.29776986328125,-0.051886982421875,1.054796884765625
-0.2435486328125,-0.0011532836914062497,1.019406494140625
-0.2795340234375,-0.042328459472656246,0.9734481396484375
-0.2746711328125,0.00227798095703125,0.9724650732421874
-0.2513292578125,0.00399361328125,1.002694365234375
-0.31138595703125,-0.02272123291015625,0.998762099609375
-0.25862359375,-0.01193725830078125,0.948625712890625
-0.22361078125,-0.06389640869140625,0.9262609521484375
-0.2333365625,0.009140510253906251,0.9410069482421874
-0.18981369140625,-0.0239466845703125,1.025304892578125
-0.3067662109375,0.0436982470703125,1.1012467724609376
-0.2396583203125,0.01796376220703125,1.1027213720703124
-0.23892888671875,0.048109873046875,1.0653648486328124
-0.2620276171875,-0.028113220214843748,1.0461950537109375
-0.26129818359375,0.02482629150390625,1.003677431640625
-0.29971501953125,-0.028113220214843748,0.9562444775390625
-0.268349375,-0.00507472900390625,0.8849721630859375
-0.25983931640625,-0.029338671875,0.908319990234375
-0.253760703125,0.01404231689453125,1.020389560546875
-0.2921775390625,-0.02762303955078125,1.1002637060546876
-0.3106565234375,0.026296833496093748,1.0457035205078125
-0.2279873828125,0.05227640869140625,1.012525029296875
-0.31722142578125,-0.02860340087890625,1.04349162109375
-0.3189234375,-0.0001729223632812504,1.0516019189453125
-0.25108611328125,-0.0180645166015625,1.05528841796875
-0.26324333984375,0.02482629150390625,1.0186691943359376
-0.22823052734375,-0.05115171142578125,0.9611598095703124
-0.2513292578125,0.024091020507812498,0.9252778857421875
-0.22385392578125,-0.0327699365234375,0.9808211376953125
-0.23017568359375,0.0005623486328125002,0.9813126708984374
-0.22823052734375,-0.02909358154296875,0.9695158740234375
-0.22093619140625,-0.0151234326171875,1.0098215966796875
-0.31746457031249997,0.00521906494140625,1.0791277783203126
-0.286828359375,0.011346323242187501,1.0570087841796876
-0.32451576171875,-0.00262382568359375,1.0147369287109376
-0.27880458984375,-0.01879978759765625,0.9636174755859375
-0.26470220703125,-0.0406128271484375,0.9729566064453125
-0.25838044921875,-0.014633251953124999,1.0152284619140626
-0.20294349609375,-0.02149578125,1.00810123046875
-0.2843969140625,-0.0386521044921875,1.02383029296875
-0.2566784375,0.052031318359375,1.046932353515625
-0.30603677734375,0.02580665283203125,1.0245675927734375
-0.2099946875,0.06796218994140625,1.04349162109375
-0.23552486328125,0.02752228515625,1.0206353271484374
-0.2474389453125,0.0221302978515625,1.0184234277343749
-0.19710802734375,-0.0011532836914062497,1.049881552734375
-0.268349375,0.05374695068359375,1.0162115283203126
-0.244034921875,-0.0016434643554687498,1.04152548828125
-0.19175884765625,-0.0063001806640625,1.01399962890625
-0.25594900390624997,0.015022678222656249,1.0535680517578125
-0.27588685546875,0.01551285888671875,1.06315294921875
-0.2834243359375,0.01183650390625,1.05725455078125
-0.273212265625,0.02776737548828125,0.9921264013671875
-0.2488978125,-0.02272123291015625,0.9360916162109375
-0.27515742187500003,0.03168882080078125,0.9616513427734374
-0.2639727734375,-0.0180645166015625,0.9459222802734375
-0.2411171875,-0.0053198193359375,0.9407611816406249
-0.2221519140625,0.02360083984375,0.8785822314453124
-0.2133987109375,-0.076396015625,0.9247863525390625
-0.16525609375,-0.02419177490234375,0.921099853515625
-0.2843969140625,-0.0376717431640625,0.950591845703125
-0.2464663671875,0.04296297607421875,1.01399962890625
-0.2299325390625,0.0191892138671875,0.984999169921875
-0.31041337890625,0.021640117187500002,1.0235845263671874
-0.19613544921875,0.0012976196289062499,1.0189149609375
-0.2805066015625,0.0221302978515625,1.0206353271484374
-0.2688356640625,0.0211499365234375,1.0425085546875
-0.20440236328125,0.05472731201171875,0.997779033203125
-0.30068759765624997,-0.025662316894531252,0.974185439453125
-0.210967265625,0.0373258984375,1.0393135888671874
-0.24670951171875,0.004973974609375,0.9363373828125
-0.2255559375,0.0530116796875,0.9459222802734375
-0.26664736328125,-0.0043394580078125,0.959439443359375
-0.2600824609375,-0.00605509033203125,0.9041419580078125
-0.2338228515625,0.0008074389648437498,0.9262609521484375
-0.27515742187500003,-0.034240478515625,0.8773533984374999
-0.21850474609375,-0.0151234326171875,0.93535431640625
-0.28026345703125,-0.0009081933593750001,0.95108337890625
-0.2766162890625,0.04149243408203125,0.9675497412109375
-0.244034921875,0.00963069091796875,0.96288017578125
-0.26470220703125,0.0074248779296875,0.95108337890625
-0.2484115234375,0.02286556884765625,1.02088109375
-0.27831830078124997,-0.00507472900390625,1.0309575244140625
-0.24865466796875,0.042227705078125,1.0230929931640624
-0.23163455078125,-0.00507472900390625,0.9660751416015625
-0.257651015625,0.00791505859375,0.9306847509765624
-0.2450075,-0.0043394580078125,0.9166760546875
-0.28366748046875,-0.01879978759765625,0.924049052734375
-0.228473671875,0.017718671875,0.9559987109375
-0.298499296875,0.026051743164062502,0.931913583984375
-0.259596171875,0.04639424072265625,0.9469053466796875
-0.22482650390625,0.0123266845703125,0.95698177734375
-0.294608984375,0.01183650390625,0.95108337890625
-0.24184662109375,0.0201695751953125,0.954524111328125
-0.2668905078125,0.01894412353515625,0.965337841796875
-0.27613,0.04835496337890625,1.0053977978515625
-0.2853694921875,0.0137972265625,1.0294829248046875
-0.234309140625,0.0020328906249999995,0.9906518017578125
-0.26056875,-0.010221625976562499,0.928964384765625
-0.23066197265625,-0.040122646484374996,0.899472392578125
-0.218747890625,0.0525214990234375,0.926998251953125
-0.2484115234375,0.0182088525390625,0.9419900146484375
-0.23747001953125,0.0368357177734375,0.99827056640625
-0.2766162890625,0.05889384765625,1.041033955078125
-0.27685943359375,0.03144373046875,1.0294829248046875
-0.27515742187500003,0.02776737548828125,1.0339067236328126
-0.2542469921875,0.02752228515625,0.97271083984375
-0.21558701171875,0.03806116943359375,1.0073639306640625
-0.28974609375,0.02678701416015625,0.99630443359375
-0.23139140625,-0.0009081933593750001,1.06315294921875
-0.2620276171875,-0.01634888427734375,1.048898486328125
-0.25594900390624997,0.0133070458984375,1.0683140478515625
-0.2581373046875,0.0069346972656249995,1.0255506591796875
-0.29242068359375,-0.07026875732421875,0.9768888720703125
-0.20804953125,0.0005623486328125002,0.98450763671875
-0.27807515625,-0.04330882080078125,1.0044147314453125
-0.2406308984375,0.00521906494140625,1.0594664501953126
-0.22579908203125,-0.008996174316406251,1.0334151904296875
-0.29776986328125,-0.0009081933593750001,0.9685328076171875
-0.19759431640625,-0.00605509033203125,0.9994993994140625
-0.26956509765625,0.026051743164062502,0.9395323486328125
-0.244034921875,0.026051743164062502,0.98450763671875
-0.21801845703125,-0.01438816162109375,1.0083469970703125
-0.284883203125,0.0740894482421875,1.039067822265625
-0.2085358203125,-0.035711020507812496,0.968287041015625
-0.2746711328125,0.04198261474609375,1.023338759765625
-0.19321771484375,0.008405239257812499,0.9591936767578125
-0.34299474609375,-0.03399538818359375,0.9724650732421874
-0.2202067578125,0.03364954345703125,1.0501273193359375
-0.26129818359375,0.04394333740234375,1.0427543212890624
-0.3057936328125,-0.02615249755859375,1.0481611865234375
-0.20732009765625,0.05325677001953125,1.09067880859375
-0.30846822265625,-0.0239466845703125,0.955507177734375
-0.29387955078125,-0.0464949951171875,0.91077765625
-0.218747890625,-0.04183827880859375,0.9139726220703125
-0.25594900390624997,0.0003172583007812497,0.9363373828125
-0.2377131640625,-0.05115171142578125,0.9493630126953125
-0.2882872265625,-0.02762303955078125,0.95501564453125
-0.228473671875,7.216796875000007e-05,1.0112961962890625
-0.263486484375,0.00963069091796875,0.943710380859375
-0.2600824609375,-0.03889719482421875,0.9813126708984374
-0.2445212109375,0.03021827880859375,1.03366095703125
-0.234309140625,-0.02370159423828125,0.9655836083984375
-0.26761994140625,0.024581201171875,1.00416896484375
-0.22968939453125,-0.05213207275390625,1.034152490234375
-0.2338228515625,0.023845930175781252,1.00613509765625
-0.27734572265625,-0.03693647216796875,0.9587021435546875
-0.26518849609375,-0.0009081933593750001,1.04545775390625
-0.2182616015625,0.06551128662109375,1.0103131298828125
-0.29631099609375,-0.0249270458984375,0.933879716796875
-0.24281919921875,0.028257556152343752,1.053813818359375
-0.24184662109375,-0.00777072265625,1.00023669921875
-0.26421591796875,-0.01438816162109375,0.9061080908203125
-0.2766162890625,-0.01438816162109375,0.964354775390625
-0.25011353515625,-0.0121823486328125,0.926998251953125
-0.27345541015625,-0.04723026611328125,0.93732044921875
-0.26056875,-0.04968116943359375,0.9886856689453125
-0.22044990234375,-0.0670825830078125,0.984016103515625
-0.2921775390625,-0.0259074072265625,0.9744312060546875
-0.25862359375,-0.0332601171875,0.9444476806640625
-0.2231244921875,-0.07320984130859375,0.9031588916015625
-0.28366748046875,0.01894412353515625,0.97369390625
-0.19808060546875,-0.0690433056640625,0.9626344091796875
-0.3194097265625,-0.00777072265625,1.02186416015625
-0.2581373046875,-0.0092412646484375,1.0815854443359374
-0.28901666015625,-0.0288484912109375,1.0638902490234374
-0.2834243359375,-0.012672529296875,1.04349162109375
-0.34810078125,0.0054641552734375,0.98450763671875
-0.32013916015625,0.02482629150390625,0.9282270849609375
-0.30117388671875,-0.081297822265625,0.8569547705078124
-0.20245720703125,-0.10997339111328125,0.82328474609375
-0.21510072265625,-0.0249270458984375,0.8500733056640625
-0.2484115234375,-0.04526954345703125,0.9164302880859375
-0.2630001953125,-0.01953505859375,1.11230626953125
-0.31770771484375,-0.00850599365234375,1.111323203125
-0.341292734375,-0.01830960693359375,0.972219306640625
-0.32986494140625,-0.02958376220703125,0.9272440185546875
-0.28196546875,-0.047965537109375,0.9483799462890625
-0.27394169921875,-0.0592396923828125,0.9677955078125
-0.25983931640625,-0.073454931640625,0.9631259423828125
-0.206104375,0.01698340087890625,0.977626171875
-0.24719580078125,0.00325834228515625,0.9999909326171875
-0.26810623046875,-0.05899460205078125,1.1017383056640626
-0.30020130859375,-0.0298288525390625,1.157035791015625
-0.3690112109375,-0.07860182861328124,1.0742124462890625
-0.249870390625,-0.024436865234375,1.00515203125
-0.26713365234374997,-0.032279755859375,0.985982236328125
-0.292663828125,-0.03522083984375,1.0245675927734375
-0.294608984375,-0.008751083984375,1.1327048974609375
-0.2999581640625,-0.036201201171875,1.141306728515625
-0.2766162890625,-0.00703545166015625,1.0545511181640626
-0.27272597656249997,-0.09820905517578125,1.0329236572265625
-0.21899103515625,-0.01978014892578125,1.01203349609375
-0.21996361328125,-0.1023755908203125,0.941744248046875
-0.2357680078125,-0.08227818359375,1.0184234277343749
-0.23357970703125,-0.0435539111328125,1.08871267578125
-0.28318119140625,-0.09404251953125001,1.0314490576171875
-0.25011353515625,-0.025662316894531252,1.0122792626953125
-0.2795340234375,-0.0567887890625,1.07888201171875
-0.2873146484375,-0.00360418701171875,1.02776255859375
-0.2484115234375,-0.01169216796875,0.9992536328125
-0.29533841796875,0.01306195556640625,1.060695283203125
-0.168173828125,-0.00409436767578125,1.0621698828125
-0.23941517578125,0.020659755859375,1.0545511181640626
-0.29752671875000003,-0.0567887890625,1.0614325830078124
-0.32500205078125,-0.03203466552734375,1.0896957421875
-0.20732009765625,-0.0170841552734375,1.0476696533203125
-0.263486484375,0.01183650390625,0.986965302734375
-0.2668905078125,0.00987578125,0.9793465380859375
-0.28269490234375,-0.004829638671875,1.0820769775390624
-0.31722142578125,-0.01953505859375,1.15949345703125
-0.30627992187499997,0.0211499365234375,1.159001923828125
-0.230418828125,-0.03154448486328125,1.0919076416015625
-0.26956509765625,-0.02664267822265625,1.0201437939453124
-0.26713365234374997,-0.0001729223632812504,1.019406494140625
-0.20804953125,-0.06095532470703125,1.0071181640625
-0.25838044921875,-0.0817880029296875,0.957473310546875
-0.2902323828125,-0.0866898095703125,0.9267524853515625
-0.20804953125,-0.09134652587890625,0.8658023681640625
-0.23819945312500002,-0.04428918212890625,0.880794130859375
-0.32475890625,-0.03203466552734375,0.9129895556640625
-0.244034921875,0.019679394531249998,1.0009739990234374
-0.31697828125,-0.014633251953124999,0.9940925341796875
-0.21899103515625,-0.06046514404296875,0.9670582080078125
-0.22823052734375,-0.038161923828125,0.972219306640625
-0.29363640625,-0.11536537841796875,0.9955671337890625
-0.228473671875,-0.0200252392578125,0.997779033203125
-0.27685943359375,-0.051886982421875,0.9360916162109375
-0.26664736328125,-0.018554697265625,0.938795048828125
-0.1988100390625,-0.0023787353515625003,0.9867195361328125
-0.310170234375,0.0010525292968750002,1.040542421875
-0.28561263671875,-0.02517213623046875,1.0550426513671876
-0.29193439453125003,0.008895419921875,0.9631259423828125
-0.249870390625,-0.03448556884765625,0.8923451611328125
-0.1939471484375,-0.06193568603515625,0.9336339501953125
-0.26956509765625,-0.0366913818359375,1.0363643896484376
-0.2722396875,-0.05213207275390625,1.0751955126953125
-0.30020130859375,0.0037485229492187503,0.985982236328125
-0.20975154296875,-0.04723026611328125,1.00515203125
-0.26227076171875,-0.02737794921875,0.9808211376953125
-0.222638203125,-0.048945898437499996,0.9402696484374999
-0.237226875,-0.013162709960937501,0.9351085498046875
-0.29922873046875,-0.046249904785156254,0.8815314306640625
-0.22677166015625,-0.0915916162109375,0.8984893261718749
-0.29631099609375,-0.1317864306640625,0.9324051171875
-0.27418484375,-0.08546435791015625,0.9646005419921875
-0.28318119140625,-0.08154291259765625,0.9287186181640625
-0.29776986328125,-0.063651318359375,0.8984893261718749
-0.257651015625,-0.0513968017578125,0.9356000830078125
-0.2843969140625,-0.0631611376953125,0.950591845703125
-0.26154132812499997,-0.046004814453125,0.9677955078125
-0.2411171875,-0.06928839599609375,1.0592206835937499
-0.268349375,-0.034240478515625,1.02186416015625
-0.23844259765625,-0.0121823486328125,1.010558896484375
-0.2445212109375,-0.0097314453125,0.9709904736328125
-0.26859251953125,-0.01291761962890625,0.93535431640625
-0.2552195703125,-0.057769150390625,0.95698177734375
-0.2921775390625,-0.01683906494140625,1.026287958984375
-0.23698373046875,-0.01144707763671875,0.98450763671875
-0.33618669921875,-0.03448556884765625,0.9886856689453125
-0.2416034765625,-0.04698517578125,0.9891772021484375
-0.26056875,-0.05262225341796875,0.9852449365234375
-0.26956509765625,-0.0592396923828125,0.9542783447265625
-0.232363984375,-0.02370159423828125,0.9759058056640625
-0.31868029296875,-0.1161006494140625,0.959439443359375
-0.2688356640625,-0.0474753564453125,0.9677955078125
-0.277102578125,-0.08546435791015625,0.9547698779296875
-0.24233291015625,-0.03301502685546875,0.9407611816406249
-0.244034921875,-0.046249904785156254,0.934862783203125
-0.24768208984375,-0.07615092529296875,0.9601767431640625
-0.249870390625,-0.00507472900390625,0.9921264013671875
-0.25084296875,-0.09477779052734375,0.9768888720703125
-0.268349375,-0.046004814453125,1.033169423828125
-0.253760703125,-0.03987755615234375,0.970253173828125
-0.29825615234375,-0.07664110595703125,0.9572275439453125
-0.26810623046875,-0.03105430419921875,0.9267524853515625
-0.28707150390625,-0.05850442138671875,0.9002096923828125
-0.2377131640625,-0.022476142578125,0.885709462890625
-0.2503566796875,-0.0567887890625,0.9375662158203125
-0.26032560546875,-0.0327699365234375,0.9867195361328125
-0.228473671875,7.216796875000007e-05,0.9990078662109375
-0.2649453515625,-0.03938737548828125,0.988931435546875
-0.2639727734375,0.03144373046875,0.98843990234375
-0.2649453515625,-0.057278969726562504,0.9709904736328125
-0.25351755859375,-0.01585870361328125,0.97074470703125
-0.24962724609375,-0.05409279541015625,1.0280083251953125
-0.27418484375,0.01208159423828125,1.0184234277343749
-0.23844259765625,-0.02762303955078125,0.9980247998046875
-0.26032560546875,-0.05801424072265625,0.9360916162109375
-0.22823052734375,-0.03938737548828125,0.9842618701171875
-0.3033621875,-0.01438816162109375,0.9749227392578125
-0.26251390625,-0.13129625,0.9665666748046875
-0.23698373046875,-0.013162709960937501,0.9665666748046875
-0.3271903515625,-0.0808076416015625,0.9709904736328125
-0.29387955078125,-0.0376717431640625,1.015474228515625
-0.296554140625,-0.07124911865234375,0.9744312060546875
-0.268349375,-0.06928839599609375,0.8871840625
-0.27540056640625,-0.04281864013671875,0.8407341748046875
-0.2017277734375,-0.05213207275390625,0.8820229638671875
-0.26178447265625,-0.057769150390625,0.9724650732421874
-0.230418828125,-0.05874951171875,1.0127707958984375
-0.30555048828125,-0.06046514404296875,0.9773804052734375
-0.216802734375,-0.06095532470703125,0.912252255859375
-0.28220861328125,-0.03105430419921875,0.8874298291015625
-0.27005138671875,-0.08056255126953125,0.915201455078125
-0.2552195703125,-0.03522083984375,0.9478884130859375
-0.267376796875,-0.07517056396484376,0.9636174755859375
-0.24038775390625,0.01208159423828125,0.9670582080078125
-0.2707808203125,-0.059729873046875,0.9717277734375
-0.29242068359375,-0.0121823486328125,1.0058893310546875
-0.23649744140625,-0.07517056396484376,0.9208540869140625
-0.252788125,-0.025662316894531252,0.91372685546875
-0.19662173828125,-0.0562986083984375,0.9429730810546875
-0.3126016796875,-0.0141430712890625,0.922574453125
-0.2591098828125,-0.069533486328125,1.0044147314453125
-0.25838044921875,-0.00777072265625,0.9360916162109375
-0.27807515625,-0.06928839599609375,0.9090572900390625
-0.21801845703125,-0.008751083984375,0.948625712890625
-0.31333111328125,-0.05115171142578125,0.95304951171875
-0.2795340234375,0.0054641552734375,1.03169482421875
-0.2766162890625,-0.05115171142578125,1.0353813232421876
-0.2610550390625,-0.03252484619140625,1.0579918505859376
-0.27807515625,-0.06732767333984375,0.968287041015625
-0.28585578125,-0.0288484912109375,0.95108337890625
-0.222638203125,-0.03399538818359375,0.9481341796875
