ax,ay,az
-0.40062,-0.0435539111328125,0.70924904296875
-0.25692158203125,-0.035711020507812496,0.647315859375
-0.16404037109375,0.0466393310546875,0.6927826806640625
-0.18008791015625,0.1740863037109375,0.842454541015625
-0.05365275390625,0.230457080078125,0.96288017578125
-0.280992890625,0.07678544189453125,1.3529117724609374
-0.4594609765625,0.10521592041015625,1.4256586865234375
-0.617504921875,0.11109808837890625,1.1400778955078126
-0.26275705078125,0.00816014892578125,0.95501564453125
-0.16306779296875,-0.17810850341796874,0.85081060546875
-0.23455228515625,-0.15457983154296875,0.8815314306640625
-0.4049966015625,-0.13889405029296875,0.8053437841796875
-0.0996070703125,-0.036201201171875,0.6910623144531249
-0.02009880859375,0.0044837939453125,0.62273919921875
-0.04878986328125,-0.0612004150390625,0.6296206640625
-0.09255587890625,-0.1376685986328125,0.853268271484375
-0.24768208984375,-0.045024453125,1.158510390625
-0.25254498046875,-0.11340465576171875,1.15556119140625
-0.3967296875,-0.00409436767578125,1.18505318359375
-0.4837754296875,-0.05703387939453125,1.2025026123046876
-0.43830740234375,0.10815700439453126,1.0781447119140626
-0.47259078125,0.0838930615234375,0.9606682763671874
-0.44171142578125,0.0672269189453125,1.043000087890625
-0.17692703125,0.017718671875,0.89504859375
-0.02787943359375,-0.12149263671875,0.934862783203125
-0.04781728515625,-0.15997181884765624,0.893573994140625
-0.138996484375,-0.2540865063476562,0.72301197265625
-0.10519939453125,-0.21536223388671874,0.8166490478515624
-0.265431640625,-0.19207865234375,1.046932353515625
-0.343237890625,-0.08007237060546875,1.1533492919921875
-0.11225058593750001,-0.1533543798828125,1.3135891162109374
-0.41982841796875,0.020659755859375,1.3912513623046876
-0.40645546875,0.28241623046875,1.4305740185546876
-0.4935012109375,0.19099753662109376,1.4266417529296875
-0.48547744140625,0.21501638916015625,1.38953099609375
-0.3388612890625,0.1329111279296875,0.9901602685546875
-0.04271125,-0.02713285888671875,0.763809228515625
-0.1229489453125,-0.03399538818359375,0.647807392578125
-0.22579908203125,0.021640117187500002,0.63650212890625
-0.13778076171875,0.01551285888671875,0.71711357421875
-0.17571130859375,-0.2366850927734375,0.873912666015625
-0.23406599609375,-0.234234189453125,1.1867735498046874
-0.2678630859375,-0.2866835205078125,1.2312573046875
-0.36341888671875,-0.27418391357421873,1.0751955126953125
-0.2124261328125,0.05031568603515625,1.0560257177734376
-0.43344451171875,0.13903838623046874,1.08674654296875
-0.52681201171875,0.034384814453125,1.213070576171875
-0.29533841796875,-0.13546278564453124,1.177680185546875
-0.31235853515625,-0.1337471533203125,1.061678349609375
-0.113709453125,0.06060947998046875,0.8800568310546875
-0.055354765624999996,-0.16193254150390626,0.7104778759765625
0.0151571484375,-0.01095689697265625,0.7153932080078125
-0.33035123046875,0.02580665283203125,0.9169218212890625
-0.333512109375,-0.16634416748046876,1.1213996337890624
-0.11735662109375,-0.10065995849609374,1.28335982421875
-0.27613,0.02139502685546875,1.3199790478515625
-0.30117388671875,0.02752228515625,0.973202373046875
-0.20197091796875,0.0289928271484375,0.8871840625
-0.30846822265625,0.08119706787109375,0.7930554541015625
-0.40694175781249997,0.091245771484375,0.8161575146484374
-0.38627447265625,0.032424091796875,0.9267524853515625
-0.13729447265625,0.03708080810546875,1.0181776611328126
-0.17133470703125,-0.1935491943359375,1.0339067236328126
-0.08963814453125,-0.11242429443359375,0.9754142724609375
-0.15674603515625,-0.1170810107421875,1.1666206884765624
-0.2912049609375,-0.0641414990234375,1.0594664501953126
-0.35101851562499997,0.06600146728515625,1.0707717138671875
-0.34639876953125,0.0584036669921875,0.8989808593749999
-0.12902755859375,-0.0347306591796875,0.76626689453125
-0.29776986328125,0.1152646240234375,0.8859552294921875
-0.37606240234375,0.10987263671875,0.7328426367187499
-0.21121041015625,-0.13448242431640625,0.6519854248046875
-0.07577890625,0.12629368896484375,0.9262609521484375
-0.3038484765625,0.02237538818359375,1.0771616455078126
-0.4254207421875,-0.0945327001953125,1.250427099609375
-0.27613,0.017718671875,1.213070576171875
-0.3116291015625,-0.19428446533203125,0.97271083984375
-0.15042427734375,0.015022678222656249,0.90586232421875
-0.2357680078125,-0.16070708984375,0.872929599609375
-0.35709712890625,-0.0631611376953125,1.103950205078125
-0.52438056640625,-0.15850127685546875,1.137374462890625
-0.35417939453125,-0.0592396923828125,0.810013349609375
-0.10957599609375,0.03757098876953125,0.6141373681640625
0.012239414062499999,-0.14624676025390626,0.53426322265625
-0.1414279296875,-0.1347275146484375,0.596687939453125
-0.33813185546875,-0.10262068115234375,0.7842078564453125
-0.370470078125,-0.00752563232421875,0.989914501953125
-0.33618669921875,0.04247279541015625,1.099034873046875
-0.15334201171875,0.08903995849609375,1.2138078759765625
-0.191515703125,0.014777587890624999,1.1862820166015624
-0.15528716796875,0.050070595703125,1.071509013671875
-0.29047552734375,0.0270321044921875,1.0211268603515624
-0.39940427734375,0.00816014892578125,1.068559814453125
-0.2800203125,0.04443351806640625,1.0516019189453125
-0.32257060546875,-0.03693647216796875,1.127543798828125
-0.3262177734375,0.00521906494140625,1.0267794921875
-0.21607330078125,-0.0411030078125,0.890624794921875
-0.27637314453125,0.0133070458984375,0.69941837890625
-0.21461443359375,-0.068553125,0.5192714599609375
-0.19662173828125,-0.02370159423828125,0.5325428564453125
-0.13437673828125,-0.11732610107421874,0.5993913720703125
-0.1579617578125,-0.12860025634765626,0.8038691845703125
-0.181789921875,-0.05850442138671875,1.037101689453125
-0.33083751953125,-0.081297822265625,1.1159927685546875
-0.374360390625,0.00227798095703125,1.1277895654296874
-0.3427516015625,0.0608545703125,1.13098453125
-0.315033125,-0.00777072265625,1.041033955078125
-0.37995271484375,0.08315779052734375,1.03661015625
-0.35612455078125,0.0446786083984375,0.9641090087890625
-0.203186640625,-0.03252484619140625,0.72301197265625
-0.09109701171875,-0.11364974609375,0.6534600244140625
-0.21412814453125,-0.01732924560546875,0.717605107421875
-0.2532744140625,-0.065612041015625,0.6741044189453125
-0.11930177734375,-0.146001669921875,0.78002982421875
-0.28074974609375003,-0.05409279541015625,1.0565172509765626
-0.35588140625,-0.10115013916015625,1.156052724609375
-0.12416466796875,-0.065612041015625,1.213562109375
-0.2454937890625,0.0897752294921875,1.2929447216796874
-0.44730375,0.09002031982421875,1.1779259521484375
-0.29971501953125,-0.048455717773437504,1.116730068359375
-0.29047552734375,-0.022476142578125,1.166866455078125
-0.27613,-0.0001729223632812504,1.0540595849609375
-0.20780638671875,-0.0494360791015625,0.9400238818359374
-0.23941517578125,-0.011201987304687501,0.8557259375
-0.29874244140625,0.03144373046875,0.757419296875
-0.16185207031249998,0.02237538818359375,0.6728755859375
-0.1900568359375,-0.01978014892578125,0.6696806201171875
-0.13923962890625,-0.0994345068359375,0.7672499609375
-0.11152115234375,-0.05115171142578125,1.001711298828125
-0.36147373046875,-0.17614778076171875,1.095594140625
-0.2834243359375,-0.06095532470703125,1.229291171875
-0.43344451171875,-0.015368522949218751,1.3258774462890626
-0.28318119140625,0.011346323242187501,1.284342890625
-0.40280830078125,0.026541923828125,1.20078224609375
-0.37119951171875,-0.02958376220703125,1.0481611865234375
-0.2532744140625,-0.0121823486328125,1.020389560546875
-0.18835482421875,-0.1092381201171875,0.9213456201171875
-0.181789921875,-0.18252012939453124,0.862115869140625
-0.1910294140625,-0.15507001220703126,0.9501003125
-0.1851939453125,-0.06585713134765625,1.0221099267578124
-0.13826705078125,0.0329142724609375,1.1297556982421875
-0.3145468359375,0.10987263671875,1.305478818359375
-0.3271903515625,0.0922261328125,1.33841154296875
-0.32694720703125,0.0280124658203125,1.3052330517578126
-0.426879609375,0.010611052246093749,1.168832587890625
-0.23844259765625,-0.03987755615234375,1.0284998583984375
-0.2644590625,-0.08595453857421875,0.81935248046875
-0.27880458984375,-0.15261910888671876,0.7483259326171875
-0.1861665234375,-0.21193096923828125,0.6981895458984375
-0.12246265625,-0.23129310546875,0.71907970703125
-0.0626491015625,-0.151883837890625,0.8692431005859375
-0.28974609375,-0.081297822265625,0.9827872705078124
-0.21193984375,-0.0504164404296875,1.0840431103515624
-0.3038484765625,-0.00605509033203125,1.139340595703125
-0.4011062890625,0.17384121337890626,1.0700344140625
-0.15625974609374998,-0.04330882080078125,0.8756330322265625
-0.12902755859375,-0.0474753564453125,0.875387265625
-0.2834243359375,-0.0298288525390625,0.8785822314453124
-0.21558701171875,-0.1004148681640625,0.893573994140625
-0.236254296875,-0.00458454833984375,1.0265337255859375
-0.378250703125,-0.02223105224609375,1.052830751953125
-0.296554140625,-0.0298288525390625,1.0938737744140625
-0.30263275390625,0.0035034326171875,1.1449932275390624
-0.2532744140625,0.0525214990234375,1.004660498046875
-0.22385392578125,-0.04698517578125,0.8365561425781249
-0.22677166015625,-0.01830960693359375,0.7930554541015625
-0.09255587890625,-0.154824921875,0.8360646093749999
-0.2333365625,-0.19477464599609376,0.973202373046875
-0.23066197265625,-0.15997181884765624,0.9016842919921875
-0.154557734375,-0.04281864013671875,0.7670041943359375
-0.21072412109375,0.06624655761718751,0.699909912109375
-0.31868029296875,-0.1249239013671875,0.71121517578125
-0.2221519140625,0.14148928955078124,0.8972604931640625
-0.1239215234375,0.04296297607421875,1.157035791015625
-0.44608802734374997,-0.17124597412109374,1.3052330517578126
-0.3923530859375,0.0946770361328125,1.3543863720703124
-0.17303671874999998,-0.02223105224609375,1.164900322265625
-0.37557611328125,0.0922261328125,0.99237216796875
-0.3967296875,0.10913736572265625,0.9454307470703125
-0.31989601562500003,0.02041466552734375,0.890624794921875
-0.40767119140625,-0.006790361328125,0.909303056640625
-0.2474389453125,-0.08252327392578125,0.7746229589843749
-0.16525609375,-0.1553151025390625,0.688113115234375
-0.23455228515625,-0.1121792041015625,0.5890691748046875
-0.18592337890625,-0.1901179296875,0.6559176904296875
-0.33181009765625,-0.18301031005859375,1.053813818359375
-0.368524921875,-0.036201201171875,1.2469863671875
-0.38287044921875,-0.07517056396484376,1.2241300732421876
-0.38432931640625,0.077520712890625,1.4158280224609374
-0.27005138671875,0.11550971435546875,1.3563525048828124
-0.34421046875,0.1397736572265625,1.299580419921875
-0.25983931640625,0.06600146728515625,1.2172486083984375
-0.32354318359375,-0.12933552734375,0.9100403564453124
-0.2153438671875,-0.1445311279296875,0.8515479052734375
-0.28707150390625,-0.07517056396484376,0.9272440185546875
-0.2347954296875,-0.15850127685546875,0.956490244140625
-0.25935302734375,-0.20457825927734374,0.842454541015625
-0.20975154296875,-0.0308092138671875,0.94223578125
-0.267376796875,-0.0006631030273437505,1.087729609375
-0.35563826171875,-0.053847705078125,1.103950205078125
-0.21947732421875,0.0211499365234375,1.045949287109375
-0.2153438671875,0.03413972412109375,1.179646318359375
-0.3135742578125,-0.16634416748046876,1.1513831591796875
-0.28172232421875,-0.13252170166015625,1.058729150390625
-0.27637314453125,-0.17761832275390624,0.8242678125
-0.20732009765625,-0.18104958740234375,0.702859111328125
-0.2552195703125,-0.157766005859375,0.68565544921875
-0.3057936328125,0.00227798095703125,0.6704179199218749
-0.14629082031250001,0.04443351806640625,0.646824326171875
-0.072861171875,0.06281529296875,0.68958771484375
-0.07213173828125,0.16085142578125,0.9267524853515625
-0.25205869140625,0.18266446533203126,1.0629071826171874
-0.1103054296875,0.05864875732421875,1.11820466796875
-0.1744955859375,0.040266982421875,1.347750673828125
-0.50298384765625,-0.0308092138671875,1.4536760791015624
-0.277102578125,-0.04085791748046875,1.3086737841796876
-0.2445212109375,-0.13350206298828124,1.244528701171875
-0.30506419921875,0.050070595703125,1.0267794921875
-0.1968648828125,-0.16070708984375,0.9547698779296875
-0.22677166015625,-0.14967802490234375,0.9808211376953125
-0.382141015625,-0.13742350830078126,1.0919076416015625
-0.253760703125,-0.02664267822265625,1.0063808642578125
-0.2309051171875,-0.222469853515625,0.875387265625
-0.030067734375000002,-0.15654055419921875,0.796250419921875
-0.15139685546875,-0.02468195556640625,0.69745224609375
-0.13778076171875,-0.09134652587890625,0.600620205078125
-0.09304216796875,-0.01830960693359375,0.84097994140625
-0.23917203125,-0.0327699365234375,1.0850261767578124
-0.448276328125,-0.00507472900390625,1.261240830078125
-0.28609892578125,-0.1464918505859375,1.079373544921875
-0.31187224609374997,-0.12614935302734376,0.945676513671875
-0.14702025390625,-0.0411030078125,0.9442019140625
-0.312115390625,-0.161687451171875,0.9245405859375
-0.3164919921875,-0.03914228515625,1.17325638671875
-0.20488865234375,0.02972809814453125,1.1919346484375
-0.32548833984375003,0.08953013916015624,1.1037044384765624
-0.36439146484375,-0.01389798095703125,0.803131884765625
-0.035903203125000005,-0.18423576171875,0.726452705078125
-0.17036212890625,-0.04330882080078125,0.7178508740234375
-0.26518849609375,-0.19281392333984376,0.6249510986328125
-0.2240970703125,-0.233253828125,0.5959506396484375
-0.2065906640625,-0.2602137646484375,0.5669501806640624
-0.30117388671875,-0.1415900439453125,0.6785282177734375
-0.2639727734375,-0.06144550537109375,0.9267524853515625
-0.32354318359375,-0.11487519775390626,1.043983154296875
-0.38578818359375,0.146146005859375,1.016457294921875
-0.35393625,0.20962440185546874,0.9046334912109375
-0.255705859375,0.11796061767578125,0.846386806640625
-0.29874244140625,0.10913736572265625,0.8839890966796875
-0.29509527343749997,-0.0837487255859375,0.8476156396484374
-0.15577345703125,-0.0009081933593750001,0.8220559130859375
-0.1803310546875,-0.06683749267578125,0.7306307373046875
-0.16258150390625,-0.09036616455078125,0.81148794921875
-0.18592337890625,-0.0808076416015625,0.95698177734375
-0.43441708984375,-0.10703230712890625,1.0948568408203125
-0.26324333984375,0.0878145068359375,1.3814206982421875
-0.3660934765625,0.024091020507812498,1.23224037109375
-0.28074974609375003,-0.0053198193359375,1.0088385302734375
-0.31697828125,0.15300853515625001,0.99630443359375
-0.3811684375,-0.110708662109375,1.0093300634765625
-0.2561921484375,-0.026397587890625,0.9972875
-0.24719580078125,-0.045024453125,0.930438984375
-0.22774423828125,-0.03522083984375,0.80067421875
-0.15480087890625,0.0074248779296875,0.6760705517578125
-0.18397822265625,-0.089140712890625,0.7429190673828125
-0.33181009765625,0.010611052246093749,0.7121982421874999
-0.2892598046875,-0.095022880859375,0.564246748046875
-0.02739314453125,-0.0141430712890625,0.651739658203125
-0.0529233203125,-0.233253828125,0.9803296044921875
-0.38481560546875,0.0373258984375,1.2855717236328126
-0.4993366796875,0.06845237060546874,1.3506998730468749
-0.44924890625,-0.03203466552734375,1.3828952978515625
-0.42177357421875,0.18854663330078125,1.185544716796875
-0.11468203125,0.11501953369140624,0.851302138671875
-0.06337853515625,-0.23987126708984374,0.9503460791015625
-0.32111173828125,-0.17639287109375001,1.1282810986328125
-0.12708240234375,-0.05017135009765625,1.019406494140625
-0.19346085937500002,-0.23447927978515626,0.93142205078125
-0.25692158203125,-0.092081796875,0.917167587890625
-0.27005138671875,-0.05874951171875,0.9606682763671874
-0.24816837890625,0.01796376220703125,1.2079094775390624
-0.4682141796875,0.12825441162109374,1.2924531884765624
-0.37071322265625,0.1182057080078125,1.117713134765625
-0.28634207031250003,0.085363603515625,1.179646318359375
-0.2610550390625,0.09786321044921875,1.1250861328125
-0.26640421875,-0.14967802490234375,1.095102607421875
-0.30530734375,-0.01389798095703125,1.1835785839843749
-0.28561263671875,0.0682072802734375,1.138357529296875
-0.28609892578125,-0.03497574951171875,1.05233921875
-0.0529233203125,-0.05752406005859375,1.040542421875
-0.22579908203125,0.01110123291015625,1.0444746875
-0.18835482421875,-0.02027032958984375,1.111814736328125
-0.41642439453125,-0.1386489599609375,0.9292101513671875
-0.29752671875000003,-0.0567887890625,0.87440419921875
-0.42055785156250003,-0.14894275390625,0.9159387548828125
-0.24330548828125,-0.124433720703125,1.0284998583984375
-0.32111173828125,-0.0768861962890625,0.9596852099609375
-0.36828177734375,0.09737302978515625,1.18308705078125
-0.44608802734374997,0.0289928271484375,1.1449932275390624
-0.28196546875,0.16648850341796875,1.009084296875
-0.1540714453125,0.01159141357421875,0.7861739892578125
-0.22288134765625,-0.050661530761718754,0.6957318798828125
-0.2377131640625,0.10374537841796876,0.8854636962890625
-0.15869119140625,0.01649322021484375,0.920116787109375
-0.31527626953125,0.0025230712890624996,0.9547698779296875
-0.17814275390625,0.04688442138671875,0.8333611767578125
-0.022530253906250002,0.05864875732421875,0.6917996142578124
-0.26713365234374997,-0.122472998046875,0.77019916015625
-0.26859251953125,-0.1445311279296875,0.8004284521484375
-0.01572220703125,-0.04330882080078125,1.0629071826171874
-0.38505875,-0.17761832275390624,1.1784174853515625
-0.36366203125,-0.075415654296875,1.127052265625
-0.15164,0.0378160791015625,1.0968229736328126
-0.3709563671875,-0.092081796875,0.9827872705078124
-0.31308796875,0.0495804150390625,0.9793465380859375
-0.42663646484375,-0.17835359375,1.0184234277343749
-0.294608984375,-0.15310928955078124,0.9599309765625
-0.01572220703125,-0.08007237060546875,0.8667854345703125
0.03776958984375,-0.1759026904296875,1.001711298828125
-0.2099946875,-0.12860025634765626,1.2138078759765625
-0.21801845703125,0.00276816162109375,0.997779033203125
-0.26616107421875,0.1157548046875,0.8392595751953125
-0.37119951171875,0.16207687744140625,0.806081083984375
-0.29047552734375,0.23070217041015625,0.8368019091796874
-0.22871681640625,0.14835181884765625,1.094119541015625
-0.3203823046875,-0.0023787353515625003,1.2634527294921876
-0.19321771484375,-0.0092412646484375,1.3248943798828126
-0.21850474609375,-0.077376376953125,1.169815654296875
-0.29752671875000003,-0.0337502978515625,1.1513831591796875
-0.4312562109375,-0.10752248779296875,1.053813818359375
-0.49131291015625,-0.09183670654296874,1.0014655322265624
-0.47234763671875,0.00521906494140625,0.900455458984375
-0.2912049609375,0.20227169189453126,0.879811064453125
-0.22239505859375,0.18952699462890624,0.860149736328125
-0.22385392578125,0.038306259765625,0.7908435546875
-0.17473873046875,0.06060947998046875,0.7498005322265625
-0.13680818359375,-0.0817880029296875,0.6696806201171875
-0.23917203125,-0.06634731201171876,0.7434106005859376
-0.18470765625,-0.09330724853515625,0.7561904638671875
-0.28974609375,-0.19673536865234376,0.6470700927734375
-0.292663828125,-0.28349734619140626,0.653705791015625
-0.22823052734375,-0.2749191845703125,0.9110234228515625
-0.27929087890625,-0.24869451904296874,1.23813876953125
-0.31527626953125,-0.05801424072265625,1.3799460986328125
-0.3155194140625,0.00987578125,1.2393676025390625
-0.34883021484375,0.0740894482421875,1.09067880859375
-0.1783858984375,0.1446754638671875,1.0167030615234376
-0.22823052734375,0.0289928271484375,0.999745166015625
-0.25108611328125,0.0686974609375,1.0904330419921875
-0.22823052734375,0.10521592041015625,1.02579642578125
-0.3223274609375,-0.10507158447265624,0.9931094677734374
-0.2007551953125,0.0427178857421875,0.95894791015625
-0.29509527343749997,0.15227326416015624,0.921099853515625
-0.28561263671875,-0.08154291259765625,0.7920723876953125
0.01758859375,-0.18742193603515625,0.883743330078125
-0.08307324218750001,-0.03448556884765625,1.2147909423828125
-0.40280830078125,0.008405239257812499,1.485379970703125
-0.40694175781249997,0.02041466552734375,1.3676577685546876
-0.354908828125,0.07850107421875,1.18505318359375
-0.347128203125,0.0142874072265625,1.0702801806640625
-0.23819945312500002,0.06992291259765625,1.217002841796875
-0.29679728515625,-0.0592396923828125,1.2418252685546876
-0.2250696484375,0.0123266845703125,1.0778989453125
-0.0607039453125,-0.14330567626953125,0.89013326171875
-0.205131796875,-0.18350049072265626,0.9245405859375
-0.3009307421875,-0.21536223388671874,0.9587021435546875
-0.36487775390625,-0.2386458154296875,0.8589209033203125
-0.1205175,-0.20653898193359374,0.7711822265625
-0.013047617187499999,0.038306259765625,0.9999909326171875
-0.34007701171875,0.02041466552734375,1.13983212890625
-0.43733482421875003,0.10962754638671875,1.3059703515625
-0.44025255859375,0.19050735595703125,1.2904870556640624
-0.5703348828125,0.06060947998046875,1.1051790380859374
-0.14021220703125,-0.13252170166015625,0.98942296875
-0.07577890625,-0.25090033203125,1.076424345703125
-0.22361078125,-0.183255400390625,0.963371708984375
-0.2921775390625,-0.267566474609375,0.8112421826171875
-0.22288134765625,-0.2869286108398437,0.73874103515625
-0.16112263671875,-0.25874322265625,0.6981895458984375
-0.22579908203125,-0.063651318359375,0.816894814453125
-0.3641483203125,-0.08203309326171875,0.9709904736328125
-0.43636224609375,0.01012087158203125,0.849336005859375
-0.31089966796875,0.02923791748046875,0.6396970947265626
-0.15285572265625,0.03413972412109375,0.5143561279296875
-0.09206958984375,0.07482471923828125,0.5276275244140625
0.0010547656249999988,0.124578056640625,0.789368955078125
-0.23309341796875,0.1427147412109375,1.1612138232421876
-0.34396732421875,-0.0406128271484375,1.5426435888671874
-0.42055785156250003,-0.028358310546875,1.732621171875
-0.51805880859375,0.0897752294921875,1.5077447314453125
-0.19273142578125,-0.05311243408203125,0.85277673828125
-0.1229489453125,-0.153844560546875,0.655180390625
-0.17765646484375,-0.12909043701171874,0.6092220361328125
-0.138996484375,-0.1033559521484375,0.5467973193359374
-0.23601115234375,-0.12418863037109375,0.5792385107421875
-0.292663828125,-0.1092381201171875,0.6121712353515625
-0.16914640625,0.0025230712890624996,0.6357648291015625
-0.13583560546875,-0.0141430712890625,0.89996392578125
-0.22288134765625,0.05668803466796875,1.123611533203125
-0.31478998046875,0.09002031982421875,1.1626884228515626
-0.2143712890625,0.03536517578125,1.253376298828125
-0.408400625,0.0838930615234375,1.2477236669921874
-0.3826273046875,-0.08938580322265625,0.971236240234375
-0.31673513671875,-0.09134652587890625,0.813945615234375
-0.397702265625,-0.0999246875,0.7252238720703125
-0.31624884765625,-0.1013952294921875,0.5787469775390625
-0.16160892578125,-0.0553182470703125,0.525907158203125
0.01491400390625,-0.09771887451171875,0.5993913720703125
0.04068732421875,-0.05017135009765625,0.7613515625
-0.25157240234375,-0.18252012939453124,0.972219306640625
-0.3067662109375,-0.275409365234375,1.1762055859375
-0.43538966796875,-0.2406065380859375,1.3413607421875
-0.53070232421875,-0.273448642578125,1.26959689453125
-0.356853984375,-0.01634888427734375,1.137374462890625
-0.44511544921875,-0.0259074072265625,0.9891772021484375
-0.268349375,-0.07320984130859375,0.80067421875
-0.1385101953125,-0.12663953369140624,0.6886046484375
-0.20415921875,0.01257177490234375,0.7733941259765625
-0.228473671875,0.10668646240234375,0.8746499658203125
-0.0422249609375,0.11894097900390625,0.9537868115234375
-0.20391607421875,0.17580193603515626,1.2000449462890626
-0.4701593359375,0.22383964111328125,1.309411083984375
-0.43757796875,0.114774443359375,1.1376202294921876
-0.45435494140625,0.1157548046875,1.0501273193359375
-0.3592854296875,0.096147578125,0.9193794873046874
-0.22968939453125,0.02776737548828125,0.679265517578125
-0.020341953125,0.116735166015625,0.7635634619140625
-0.02715,-0.18546121337890625,0.9808211376953125
-0.174981875,-0.1827652197265625,1.0496357861328125
-0.48255970703125,-0.01953505859375,1.305478818359375
-0.27491427734375,0.0486000537109375,1.2941735546875
-0.42031470703125,0.0495804150390625,1.1604765234375
-0.41788326171875,0.06404074462890624,1.088221142578125
-0.2357680078125,-0.05899460205078125,1.04939001953125
-0.25011353515625,-0.02860340087890625,0.9783634716796875
-0.16306779296875,-0.065612041015625,0.8186151806640625
-0.10033650390625,-0.18595139404296876,0.7901062548828125
-0.0762651953125,-0.20997024658203126,0.8603955029296875
-0.2756437109375,-0.11928682373046876,1.1440101611328124
-0.3048210546875,-0.049926259765625,1.337920009765625
-0.32889236328125,-0.01978014892578125,1.4750577734374999
-0.349073359375,0.143204921875,1.341852275390625
-0.3485870703125,0.14639109619140625,1.2015195458984376
-0.1229489453125,-0.09526797119140624,1.2634527294921876
-0.29387955078125,-0.1200220947265625,1.2233927734375
-0.240144609375,-0.0190448779296875,1.1661291552734374
-0.12659611328125,-0.1876670263671875,1.1926719482421875
-0.12951384765625001,-0.14673694091796874,1.3553694384765624
-0.1579617578125,0.00791505859375,1.5814747119140624
-0.44122513671875,0.0005623486328125002,1.6360348974609376
-0.471618203125,0.03168882080078125,1.371344267578125
-0.5324043359375,-0.08889562255859375,1.10247560546875
-0.4118046484375,0.03021827880859375,0.8564632373046875
-0.2279873828125,-0.07762146728515625,0.584399609375
0.03047525390625,-0.00581,0.47331310546875
0.014427714843749998,0.03536517578125,0.594721806640625
-0.18203306640625,-0.1572758251953125,0.663536455078125
-0.29679728515625,-0.0857094482421875,0.916184521484375
-0.3962433984375,-0.11389483642578124,1.2194605078125
-0.300444453125,-0.100905048828125,1.2251131396484376
-0.26664736328125,-0.05482806640625,1.1415524951171876
-0.30360533203125,-0.008751083984375,1.0216183935546874
-0.3339983984375,-0.06928839599609375,0.844420673828125
-0.31381740234375,-0.011201987304687501,0.7085117431640625
-0.27685943359375,-0.0180645166015625,0.84491220703125
-0.26372962890625,-0.09918941650390625,0.9547698779296875
-0.36633662109375,-0.0298288525390625,1.1336879638671875
-0.3267040625,0.049090234375,1.186527783203125
-0.42615017578125003,-0.0288484912109375,1.2482152001953124
-0.32694720703125,-0.00507472900390625,1.167849521484375
-0.22190876953125,-0.1043363134765625,1.046932353515625
-0.2707808203125,-0.1053166748046875,0.750046298828125
-0.2085358203125,-0.1308060693359375,0.529347890625
-0.14945169921875,-0.15359947021484374,0.4322700830078125
-0.18081734375,-0.1582561865234375,0.42342248535156246
-0.20026890625,-0.06928839599609375,0.56572134765625
-0.179844765625,-0.04698517578125,0.8913620947265625
-0.31041337890625,0.0985984814453125,1.34234380859375
-0.4468174609375,0.179478291015625,1.52716029296875
-0.5187882421875,0.1093824560546875,1.3868275634765626
-0.22750109375,0.14884199951171875,1.1317218310546875
-0.26640421875,-0.00948635498046875,0.7797840576171875
-0.2163164453125,-0.07713128662109375,0.6485446923828125
-0.16258150390625,-0.20555862060546876,0.6416632275390625
-0.1200312109375,-0.25874322265625,0.6033236376953125
-0.11443888671875,-0.26732138427734375,0.617332333984375
-0.0966893359375,-0.2435476220703125,0.7173593408203125
-0.19832375,-0.07835673828125,0.7679872607421875
-0.25108611328125,-0.012672529296875,0.7635634619140625
-0.387976484375,-0.04134809814453125,0.814928681640625
-0.3631757421875,0.0373258984375,0.820335546875
-0.16793068359375,0.04786478271484375,0.927981318359375
-0.339347578125,-0.011201987304687501,1.1297556982421875
-0.39794541015625,-0.06487677001953125,1.16735798828125
-0.1851939453125,-0.13350206298828124,1.0339067236328126
-0.24136033203125,-0.2249207568359375,0.8766160986328125
-0.1375376171875,-0.09428760986328125,0.7389868017578125
-0.21169669921875,-0.045024453125,0.706791376953125
-0.37703498046875,-0.10752248779296875,0.7316138037109375
-0.3344846875,-0.00507472900390625,0.926015185546875
-0.30409162109375,-0.09869923583984375,0.8800568310546875
-0.2022140625,0.06551128662109375,0.93437125
-0.09206958984375,0.08021670654296875,1.104933271484375
-0.28609892578125,0.064776015625,1.121645400390625
-0.17036212890625,-0.0866898095703125,1.13983212890625
-0.27783201171875,-0.01046671630859375,1.2172486083984375
-0.40475345703125,-0.0259074072265625,1.2206893408203126
-0.42469130859375,-0.04821062744140625,1.16145958984375
-0.44535859375,-0.0190448779296875,1.1312302978515625
-0.31989601562500003,-0.04870080810546875,0.8844806298828125
-0.265431640625,-0.0386521044921875,0.6578838232421875
-0.22531279296875,-0.0866898095703125,0.527873291015625
-0.10714455078125,-0.0935523388671875,0.5745689453125
-0.14750654296875,0.05889384765625,0.796250419921875
-0.189570546875,0.02237538818359375,1.0407881884765624
-0.2775888671875,0.06011929931640625,1.4143534228515624
-0.5178156640625,0.132420947265625,1.5458385546875
-0.52511,0.13364639892578126,1.4010820263671875
-0.31916658203125,-0.0866898095703125,1.070525947265625
-0.2036729296875,-0.1013952294921875,0.805098017578125
-0.1453182421875,-0.1729616064453125,0.678282451171875
-0.170118984375,-0.2249207568359375,0.6303579638671875
-0.13243158203125,-0.2450181640625,0.59914560546875
-0.0568136328125,-0.2141367822265625,0.6672229541015625
-0.05073501953125,-0.25653740966796873,0.9410069482421874
-0.109819140625,-0.247959248046875,1.2649273291015626
-0.20634751953125,0.04002189208984375,1.43868431640625
-0.47672423828125,0.06281529296875,1.4620321435546875
-0.53167490234375,0.11771552734375,1.31088568359375
-0.42031470703125,0.1731059423828125,1.0589749169921876
-0.32257060546875,0.10276501708984374,0.855234404296875
-0.15236943359375,0.02041466552734375,0.6549346240234375
-0.070916015625,-0.0582593310546875,0.497889765625
-0.06629626953125001,-0.11242429443359375,0.48609296874999997
-0.10301109375,-0.2200189501953125,0.6195442333984374
-0.1550440234375,-0.25604722900390625,0.872929599609375
-0.199296328125,0.0584036669921875,1.1931634814453125
-0.269321953125,0.1436951025390625,1.4148449560546874
-0.356853984375,0.14197947021484375,1.36593740234375
-0.2970404296875,0.09982393310546875,1.351682939453125
-0.2610550390625,0.10619628173828125,1.2273250390625
-0.28998923828125,0.20398732421875,1.190460048828125
-0.17279357421875,0.10129447509765625,1.253376298828125
-0.2955815625,0.05521749267578125,1.26369849609375
-0.41034578125,0.03904153076171875,1.0255506591796875
-0.4351465234375,-0.16977543212890625,0.9139726220703125
-0.18300564453125,-0.1038461328125,0.8790737646484375
-0.133161015625,-0.07320984130859375,0.8613785693359375
-0.14750654296875,-0.11389483642578124,0.8692431005859375
-0.1788721875,-0.22810693115234376,0.839996875
-0.2552195703125,-0.12173772705078124,1.0171945947265626
-0.3349709765625,-0.08987598388671875,1.2113502099609375
-0.2882872265625,0.02360083984375,1.3413607421875
-0.40232201171875,0.02580665283203125,1.2074179443359374
-0.448276328125,-0.23987126708984374,0.9100403564453124
-0.3660934765625,-0.186196484375,0.9031588916015625
-0.207076953125,-0.13301188232421876,0.761843095703125
-0.2347954296875,-0.17516741943359376,0.6571465234375
-0.37119951171875,-0.17614778076171875,0.6908165478515624
-0.37946642578125,-0.09404251953125001,0.8240220458984375
-0.21315556640625,0.0054641552734375,1.091170341796875
-0.30311904296875003,0.03757098876953125,1.20471451171875
-0.32889236328125,0.01992448486328125,1.1656376220703124
-0.3111428125,-0.03914228515625,1.0525849853515625
-0.16160892578125,0.0201695751953125,0.994829833984375
-0.09523046875,-0.1974706396484375,0.9599309765625
-0.37995271484375,-0.0646316796875,1.1290183984375
-0.50736044921875,-0.07222947998046875,1.006626630859375
-0.1813036328125,-0.04575972412109375,0.88030259765625
-0.3126016796875,0.0012976196289062499,0.8633447021484375
-0.26470220703125,0.0093856005859375,1.07298361328125
-0.15528716796875,0.0348749951171875,1.1071451708984374
-0.29242068359375,-0.0866898095703125,1.0609410498046874
-0.3291355078125,0.011346323242187501,1.01203349609375
-0.27540056640625,-0.008996174316406251,1.0683140478515625
-0.3719289453125,-0.008751083984375,1.13098453125
-0.3485870703125,0.06992291259765625,1.0806023779296874
-0.20877896484375,0.00619942626953125,0.985982236328125
-0.224583359375,-0.071494208984375,0.80362341796875
-0.19467658203125,-0.13644314697265625,1.0162115283203126
-0.33035123046875,-0.044044091796875,1.2312573046875
-0.30530734375,0.0093856005859375,1.157035791015625
-0.12465095703125,-0.1474722119140625,0.97860923828125
-0.36755234375,-0.012672529296875,1.026287958984375
-0.2824517578125,-0.0612004150390625,1.0582376171875
-0.3252451953125,-0.1744321484375,0.84097994140625
-0.2756437109375,-0.0097314453125,0.79182662109375
-0.20026890625,-0.0543378857421875,0.7679872607421875
-0.2260422265625,-0.13693332763671875,0.8368019091796874
-0.2644590625,-0.0347306591796875,0.8952943603515625
-0.17960162109375,-0.03129939453125,0.806081083984375
-0.26227076171875,-0.05090662109375,0.804114951171875
-0.3680386328125,-0.0494360791015625,0.805098017578125
-0.0723748828125,0.106931552734375,1.0511103857421875
-0.30506419921875,0.09884357177734375,1.162934189453125
-0.36755234375,0.205948046875,1.284834423828125
-0.29922873046875,0.03462990478515625,1.355615205078125
-0.2347954296875,-0.100905048828125,1.3032669189453125
-0.40378087890625003,-0.01732924560546875,1.024813359375
-0.29387955078125,-0.14575657958984375,0.871946533203125
-0.23795630859375,-0.05801424072265625,1.0464408203125
-0.29485212890625,-0.1474722119140625,0.883743330078125
-0.0976619140625,-0.1337471533203125,0.8092760498046875
-0.1803310546875,-0.0239466845703125,1.154086591796875
-0.45970412109375003,-0.0739451123046875,1.1130435693359375
-0.35369310546875,-0.147962392578125,0.93338818359375
-0.30360533203125,-0.011201987304687501,1.0894499755859375
-0.37946642578125,-0.02762303955078125,1.0265337255859375
-0.2571647265625,-0.15261910888671876,0.7547158642578125
-0.24306234375,-0.010711806640625,0.7006472119140625
-0.22774423828125,-0.0376717431640625,0.6834435498046875
-0.17522501953125,-0.11193411376953125,0.5861199755859375
-0.237226875,-0.13350206298828124,0.81345408203125
-0.35563826171875,-0.071494208984375,1.0162115283203126
-0.358799140625,-0.03154448486328125,0.901438525390625
-0.15966376953125,0.0672269189453125,0.833606943359375
-0.21072412109375,0.0373258984375,1.0919076416015625
-0.39891798828125,-0.06683749267578125,1.1017383056640626
-0.30652306640625,-0.0808076416015625,1.056763017578125
-0.26470220703125,0.0868341455078125,1.1189419677734376
-0.2095083984375,-0.10188541015625,1.107882470703125
-0.2503566796875,-0.155805283203125,0.981066904296875
-0.21412814453125,-0.1621776318359375,0.9921264013671875
-0.22288134765625,-0.13644314697265625,0.8879213623046875
-0.16914640625,-0.0533575244140625,0.6952403466796875
-0.1180860546875,-0.09428760986328125,0.781504423828125
-0.277102578125,-0.0082609033203125,1.090187275390625
-0.259596171875,-0.010221625976562499,1.3361996435546875
-0.3967296875,0.071638544921875,1.4472861474609375
-0.2960678515625,0.099088662109375,1.4920156689453126
-0.183735078125,0.11845079833984375,1.437209716796875
-0.4896108984375,0.20570295654296875,1.2044687451171874
-0.41350666015625,0.1368325732421875,1.1302472314453125
-0.31965287109375,-0.011201987304687501,0.9709904736328125
-0.20197091796875,-0.11977700439453125,0.8466325732421875
-0.2095083984375,-0.21193096923828125,0.8353273095703125
-0.28853037109375,-0.25604722900390625,0.8176321142578125
-0.39745912109375,-0.24477307373046875,0.8171405810546875
-0.3262177734375,0.05717821533203125,0.820335546875
-0.2630001953125,0.021640117187500002,0.6942572802734375
-0.12367837890625,0.0069346972656249995,0.63846826171875
-0.15066742187499998,-0.1170810107421875,0.7881401220703125
-0.358799140625,-0.10188541015625,0.9532952783203125
-0.34493990234375,-0.0210056005859375,1.172764853515625
-0.327676640625,-0.16781470947265625,1.242562568359375
-0.41058892578125,-0.10801266845703125,1.13983212890625
-0.20586123046875,-0.026397587890625,0.9100403564453124
-0.22774423828125,-0.27516427490234374,0.6834435498046875
-0.19175884765625,-0.1759026904296875,0.6549346240234375
-0.2309051171875,-0.0881603515625,0.613400068359375
-0.2542469921875,-0.15678564453125,0.7173593408203125
-0.2488978125,-0.04723026611328125,0.905370791015625
-0.21655958984375,-0.025662316894531252,1.0339067236328126
-0.19564916015625,0.06698182861328125,1.1656376220703124
-0.3612305859375,0.195164072265625,1.19095158203125
-0.252788125,0.22432982177734376,0.984999169921875
-0.23649744140625,-0.050661530761718754,0.9621428759765625
-0.1988100390625,-0.03399538818359375,1.1794005517578126
-0.07115916015625,-0.14918784423828124,1.2010280126953126
-0.23212083984375,-0.02419177490234375,1.14769666015625
-0.41350666015625,0.0848734228515625,1.119679267578125
-0.49812095703125,-0.08423890625,0.9124980224609375
-0.35272052734375,-0.12614935302734376,0.8102591162109375
-0.1929745703125,-0.004829638671875,0.7561904638671875
-0.08283009765625,-0.02149578125,0.6886046484375
-0.015235917968750002,-0.0759058349609375,0.875387265625
-0.15091056640625,-0.0749254736328125,1.0923991748046875
-0.18106048828125,0.08021670654296875,1.2430541015625
-0.30895451171875,0.06011929931640625,1.2076637109375
-0.3189234375,0.143204921875,0.9734481396484375
-0.27783201171875,0.17825283935546876,0.820335546875
-0.2377131640625,-0.013652890625,0.8717007666015625
-0.16452666015625,-0.042328459472656246,0.9631259423828125
-0.34980279296875,-0.09722869384765626,1.012525029296875
-0.42809533203125,-0.0759058349609375,1.1459762939453124
-0.2299325390625,-0.15212892822265625,1.06118681640625
-0.3641483203125,-0.0798272802734375,1.0226014599609374
-0.30166017578125,0.0515411376953125,0.950591845703125
-0.06386482421875,-0.022476142578125,0.7979707861328125
-0.240144609375,-0.071494208984375,0.8515479052734375
-0.42955419921875,-0.08350363525390625,0.9532952783203125
-0.2143712890625,-0.09526797119140624,1.0820769775390624
-0.4954463671875,-0.016593974609375,1.1238572998046874
-0.40572603515625,-0.008996174316406251,0.93437125
-0.2099946875,-0.24526325439453125,0.7620888623046875
-0.25449013671875,-0.22345021484375,0.927981318359375
-0.3135742578125,-0.2435476220703125,1.012525029296875
-0.2406308984375,-0.2788406298828125,1.135408330078125
-0.41058892578125,-0.008996174316406251,1.2260962060546876
-0.4896108984375,0.050070595703125,1.1489254931640625
-0.4030514453125,-0.00654527099609375,1.06315294921875
-0.29971501953125,0.07825598388671876,0.930438984375
-0.26056875,-0.0055649096679687505,0.7203085400390625
-0.12854126953125,-0.089140712890625,0.651739658203125
-0.117599765625,-0.1759026904296875,0.6529684912109375
-0.15723232421875,-0.19624518798828125,0.817877880859375
-0.41156150390625,-0.1631579931640625,1.0589749169921876
-0.520247109375,-0.1268846240234375,1.129509931640625
-0.23503857421875,-0.0053198193359375,1.1100943701171875
-0.34542619140624997,0.03855135009765625,1.154578125
-0.39989056640625,-0.01389798095703125,0.9238032861328125
-0.1278118359375,0.14443037353515625,0.9518206787109375
-0.30846822265625,0.21746729248046875,1.0294829248046875
-0.18203306640625,0.2368294287109375,1.0088385302734375
-0.12902755859375,0.185360458984375,1.1253318994140624
-0.41204779296875,0.13707766357421874,1.1562984912109375
-0.07748091796875001,-0.0033590966796874996,1.1248403662109374
-0.1851939453125,-0.122472998046875,1.2147909423828125
-0.4079143359375,-0.0210056005859375,1.19881611328125
-0.38384302734375,-0.00581,1.031203291015625
-0.41982841796875,-0.153844560546875,0.8564632373046875
-0.41010263671875,-0.1347275146484375,0.657638056640625
-0.30871136718750003,-0.07909200927734375,0.5271359912109375
-0.09790505859375,-0.1082577587890625,0.4509483447265625
-0.0072121484375,-0.17247142578125,0.46348244140625
-0.03128345703125,-0.19036302001953126,0.5873488085937499
-0.13291787109375,-0.21242114990234376,0.7994453857421875
-0.27151025390625,-0.1631579931640625,1.0486527197265625
-0.30457791015625,-0.0724745703125,1.2388760693359375
-0.45289607421875,-0.03301502685546875,1.2909785888671874
-0.316005703125,0.03928662109375,1.08084814453125
-0.06191966796875,-0.0847290869140625,0.935845849609375
-0.21218298828125,-0.0371815625,0.9685328076171875
-0.30506419921875,-0.196980458984375,1.10247560546875
-0.41107521484375,-0.14085477294921875,1.2044687451171874
-0.39065107421875,0.14246965087890626,1.027271025390625
-0.25643529296875,-0.052867343750000004,0.7802755908203125
-0.195406015625,0.0035034326171875,0.7065456103515625
-0.14847912109375,0.05031568603515625,0.757910830078125
-0.1239215234375,0.023845930175781252,0.889641728515625
-0.1657423828125,0.04639424072265625,0.998762099609375
-0.19856689453125,0.0280124658203125,1.0579918505859376
-0.31089966796875,-0.00605509033203125,1.182595517578125
-0.3942982421875,-0.0013983740234375002,1.265173095703125
-0.2561921484375,0.0446786083984375,1.2020110791015626
-0.20391607421875,0.06060947998046875,1.3846156640625
-0.42055785156250003,0.0927163134765625,1.4534303125
-0.5431026953125,0.0711483642578125,1.313343349609375
-0.57398205078125,-0.04330882080078125,1.06708521484375
-0.374360390625,-0.18301031005859375,0.867031201171875
-0.30555048828125,-0.1396293212890625,0.6020948046875
-0.02593427734375,-0.027868129882812502,0.4057272900390625
-0.1229489453125,-0.01193725830078125,0.5546618505859375
-0.29825615234375,-0.081297822265625,0.459058642578125
-0.19662173828125,-0.1273748046875,0.578009677734375
-0.203186640625,-0.23545964111328124,1.0712632470703125
-0.5056584375,-0.15408965087890625,1.3502083398437499
-0.41593810546875,-0.0082609033203125,1.317275615234375
-0.44851947265625003,0.03119864013671875,1.3632339697265625
-0.419098984375,0.20006587890625,1.1577730908203125
-0.34591248046875,0.169674677734375,1.0909245751953125
-0.50930560546875,-0.0876701708984375,0.999745166015625
-0.13972591796875,0.05889384765625,1.0309575244140625
-0.12659611328125,-0.06242586669921875,0.959439443359375
-0.3028758984375,-0.08227818359375,0.9872110693359375
-0.2065906640625,-0.19845100097656249,0.924049052734375
-0.16306779296875,-0.2607039453125,0.8112421826171875
-0.315033125,-0.0239466845703125,0.78789435546875
-0.17960162109375,0.077520712890625,0.9567360107421875
-0.33108066406250003,0.020659755859375,1.1014925390624999
-0.28585578125,0.10987263671875,1.1518746923828125
-0.2133987109375,0.14786163818359374,1.24403716796875
-0.4701593359375,0.013552136230468751,1.1449932275390624
-0.1890842578125,0.0976181201171875,0.9336339501953125
-0.23698373046875,-0.12124754638671875,0.9488714794921875
-0.38043900390625,-0.00581,1.0727378466796875
-0.2717533984375,-0.07124911865234375,0.9242948193359375
-0.2999581640625,-0.089140712890625,0.8358188427734374
-0.25473328125,0.09296140380859375,0.8854636962890625
-0.13729447265625,-0.00458454833984375,0.816894814453125
-0.2630001953125,0.01257177490234375,0.8810398974609375
-0.271267109375,0.03168882080078125,1.0427543212890624
-0.28561263671875,0.01159141357421875,1.0280083251953125
-0.401592578125,-0.047965537109375,0.995812900390625
-0.37265837890625,-0.008751083984375,1.05725455078125
-0.4438997265625,-0.0386521044921875,1.027271025390625
-0.34007701171875,-0.12933552734375,0.921099853515625
-0.37217208984375,-0.19918627197265626,0.99827056640625
-0.32840607421875,-0.089140712890625,1.0395593554687501
-0.3738741015625,-0.0935523388671875,0.9149556884765625
-0.3855450390625,-0.15359947021484374,0.8412257080078125
-0.3612305859375,-0.077376376953125,0.7832247900390625
-0.17376615234375,-0.04526954345703125,0.61880693359375
-0.17765646484375,-0.08448399658203125,0.5310682568359375
-0.08988128906250001,0.00766996826171875,0.8340984765625
-0.34396732421875,-0.01978014892578125,0.93437125
-0.41010263671875,0.06600146728515625,1.039067822265625
-0.45095091796875,0.07139345458984375,1.255342431640625
-0.4458448828125,0.1427147412109375,1.1388490625
-0.2766162890625,-0.0141430712890625,0.91765912109375
-0.2639727734375,0.021640117187500002,1.212087509765625
-0.5499107421875,0.08315779052734375,1.3273520458984376
-0.4176401171875,-0.05997496337890625,1.048406953125
-0.21972046875,-0.17663796142578125,0.9238032861328125
-0.35952857421875,-0.14575657958984375,0.9464138134765625
-0.36682291015625,-0.16634416748046876,0.7699533935546875
-0.25254498046875,-0.09526797119140624,0.686146982421875
-0.2177753125,0.0701680029296875,0.7301392041015625
-0.316005703125,0.02923791748046875,0.534754755859375
-0.170118984375,-0.0798272802734375,0.6239680322265625
-0.21583015625000002,-0.1308060693359375,0.929947451171875
-0.268349375,-0.0974737841796875,1.166866455078125
-0.5401849609375,0.013552136230468751,1.4003447265625
-0.5671740039062501,0.14908708984375,1.44851498046875
-0.37265837890625,0.11305881103515625,1.2241300732421876
-0.39405509765625,0.14786163818359374,1.2295369384765624
-0.37581925781250003,-0.01193725830078125,1.154578125
-0.35272052734375,-0.0406128271484375,1.1110774365234375
-0.27685943359375,0.05521749267578125,1.0540595849609375
-0.3038484765625,0.02237538818359375,0.9552614111328125
-0.26713365234374997,-0.14526639892578125,0.9144641552734375
-0.2250696484375,-0.232273466796875,0.876861865234375
-0.26227076171875,-0.26977228759765626,0.9174133544921875
-0.341292734375,-0.0739451123046875,0.8741584326171875
-0.3291355078125,-0.16340308349609375,0.7311222705078125
-0.36779548828124997,-0.18301031005859375,0.7674957275390625
-0.4964189453125,-0.1631579931640625,0.91765912109375
-0.53653779296875,-0.06267095703125,1.094119541015625
-0.49277177734375,-0.07860182861328124,0.9542783447265625
-0.34202216796875,-0.045024453125,0.7670041943359375
-0.20488865234375,-0.040122646484374996,0.9041419580078125
-0.15358515625,-0.04968116943359375,0.8176321142578125
-0.2377131640625,-0.0043394580078125,0.87047193359375
-0.341292734375,-0.061690595703125004,0.938303515625
-0.37022693359375003,0.05864875732421875,0.9016842919921875
-0.30700935546875,0.1044806494140625,0.8785822314453124
-0.28609892578125,-0.23889090576171876,1.08379734375
-0.48426171875,0.059874208984374996,1.3067076513671876
-0.45824525390625,0.16403760009765625,0.9891772021484375
-0.32791978515625,-0.04134809814453125,0.75250396484375
-0.3301080859375,0.0843832421875,0.88030259765625
-0.30311904296875003,0.0054641552734375,0.9906518017578125
-0.3612305859375,-0.1396293212890625,1.03562708984375
-0.31746457031249997,0.03266918212890625,1.227816572265625
-0.33181009765625,-0.02713285888671875,1.0395593554687501
-0.18154677734375,-0.14575657958984375,0.8068183837890625
-0.206104375,-0.053847705078125,0.7665126611328125
-0.2644590625,-0.08497417724609375,0.854251337890625
-0.42031470703125,0.014777587890624999,1.088221142578125
-0.32354318359375,0.04492369873046875,1.18112091796875
-0.34542619140624997,0.1250682373046875,1.2644357958984376
-0.501768125,0.0799716162109375,1.230765771484375
-0.28391062499999997,0.11992134033203125,1.026287958984375
-0.2610550390625,0.050070595703125,0.8707177001953125
-0.33715927734375,0.159871064453125,0.99433830078125
-0.38821962890625,-0.05899460205078125,0.98647376953125
-0.32791978515625,-0.1396293212890625,0.9626344091796875
-0.31673513671875,-0.06389640869140625,0.8839890966796875
-0.341292734375,-0.12909043701171874,0.80952181640625
-0.3033621875,-0.16977543212890625,0.7987080859375
-0.3500459375,-0.14109986328125,0.7615973291015625
-0.29193439453125003,-0.19673536865234376,0.8692431005859375
-0.2532744140625,-0.2141367822265625,0.782487490234375
-0.13607875,-0.1141399267578125,0.85474287109375
-0.3631757421875,-0.11536537841796875,0.932896650390625
-0.09450103515625,-0.157766005859375,1.1027213720703124
-0.43295822265625,0.01575794921875,1.39346326171875
-0.62115208984375,-0.0141430712890625,1.3059703515625
-0.46310814453125,-0.232273466796875,1.0810939111328124
-0.31308796875,-0.0964934228515625,0.7876485888671875
-0.2114535546875,0.077520712890625,0.4676604736328125
-0.066053125,-0.09404251953125001,0.50083896484375
-0.22677166015625,-0.2445279833984375,0.745130966796875
-0.38141158203125003,-0.01732924560546875,0.8200897802734375
-0.3009307421875,-0.17639287109375001,1.1587561572265626
-0.438550546875,0.06747200927734374,1.3986243603515625
-0.345183046875,0.18045865234375,1.2671392285156249
-0.31527626953125,0.1079119140625,1.003677431640625
-0.411318359375,0.13658748291015624,0.788385888671875
-0.28220861328125,0.0397768017578125,0.7930554541015625
-0.15188314453125001,0.067717099609375,0.952557978515625
-0.19346085937500002,-0.04772044677734375,1.19390078125
-0.38821962890625,0.02090484619140625,1.2619781298828125
-0.43052677734375,-0.1749223291015625,0.986965302734375
-0.29363640625,-0.06095532470703125,0.9523122119140625
-0.41788326171875,-0.00213364501953125,0.88423486328125
-0.3135742578125,-0.0817880029296875,0.76036849609375
-0.162338359375,-0.18938265869140625,0.5787469775390625
-0.30117388671875,-0.09404251953125001,0.6608330224609374
-0.392839375,-0.06683749267578125,0.90586232421875
-0.28634207031250003,-0.13497260498046876,0.8481071728515625
-0.13437673828125,-0.02860340087890625,0.7193254736328125
-0.17376615234375,-0.17418705810546875,0.7212916064453125
-0.25643529296875,-0.1347275146484375,1.21061291015625
-0.30457791015625,-0.02468195556640625,1.44261658203125
-0.36682291015625,-0.1553151025390625,1.391005595703125
-0.46699845703125,-0.1190417333984375,1.0909245751953125
-0.5022544140625,-0.09796396484375,1.0346440234375
-0.28318119140625,0.0191892138671875,0.99237216796875
-0.17473873046875,-0.085219267578125,0.80558955078125
-0.0694571484375,-0.01389798095703125,0.7488174658203125
-0.40694175781249997,-0.059484782714843754,0.9493630126953125
-0.444386015625,-0.151883837890625,1.0648733154296874
-0.25497642578125,-0.05605351806640625,0.9159387548828125
-0.14458880859375,-0.12516899169921875,0.804606484375
-0.48255970703125,-0.1710008837890625,0.757419296875
-0.1521262890625,-0.00752563232421875,0.9459222802734375
-0.1633109375,-0.1611972705078125,0.9999909326171875
-0.3009307421875,-0.0327699365234375,0.946659580078125
-0.23917203125,-0.1415900439453125,0.8397511083984375
-0.34007701171875,-0.11095375244140625,1.12803533203125
-0.4691867578125,0.1407540185546875,1.2973685205078125
-0.34980279296875,0.22432982177734376,1.1725190869140625
-0.29679728515625,0.1505576318359375,0.86064126953125
-0.2211793359375,0.153988896484375,0.8599039697265625
-0.2318776953125,0.0843832421875,0.9223286865234375
-0.22142248046875002,-0.0038492773437499997,0.9449392138671875
-0.28634207031250003,0.059874208984374996,0.83311541015625
-0.19370400390625,-0.17075579345703126,0.8053437841796875
-0.17036212890625,-0.1822750390625,0.9992536328125
-0.43976626953125,-0.108747939453125,1.2428083349609376
-0.190543125,-0.267566474609375,1.102967138671875
-0.32013916015625,-0.2141367822265625,0.947642646484375
-0.39210994140625,0.02433611083984375,0.828200078125
-0.40961634765625,-0.15654055419921875,0.9206083203125
-0.29679728515625,0.116735166015625,1.146222060546875
-0.34688505859375,0.25913264892578125,1.050864619140625
-0.27151025390625,-0.03522083984375,0.8515479052734375
-0.11200744140625,-0.06438658935546875,0.7478343994140625
-0.004294414062500002,-0.09575815185546875,0.833606943359375
-0.0607039453125,-0.25482177734375,1.0378389892578126
-0.46845732421874997,-0.19575500732421874,1.1435186279296874
-0.415208671875,-0.17271651611328126,1.0329236572265625
-0.23139140625,-0.08252327392578125,1.1017383056640626
-0.36341888671875,-0.11536537841796875,1.051847685546875
-0.3242726171875,0.0584036669921875,1.0004824658203124
-0.3694975,0.099088662109375,0.9498545458984375
-0.24938410156250002,0.17237067138671874,0.9002096923828125
-0.12221951171875,0.05913893798828125,0.9609140429687499
-0.2299325390625,-0.0411030078125,1.069542880859375
-0.28998923828125,-0.13889405029296875,1.0727378466796875
-0.22482650390625,-0.083258544921875,1.0068723974609375
-0.2367405859375,-0.13693332763671875,0.942727314453125
-0.26129818359375,0.10080429443359375,1.049881552734375
-0.25351755859375,0.011346323242187501,1.1995534130859375
-0.38189787109375,0.00865032958984375,1.24207103515625
-0.35855599609375,0.11256863037109376,1.2098756103515624
-0.329621796875,-0.011201987304687501,1.1329506640625
-0.37460353515625,0.02482629150390625,0.9616513427734374
-0.27540056640625,0.13732275390625,0.73874103515625
-0.32402947265625,-0.013652890625,0.719571240234375
-0.25692158203125,-0.10801266845703125,0.654688857421875
-0.2027003515625,-0.19085320068359374,0.70728291015625
-0.154557734375,-0.16977543212890625,0.9405154150390624
-0.26859251953125,-0.277370087890625,0.9186421875
-0.004294414062500002,-0.11977700439453125,1.0653648486328124
-0.20051205078125,-0.09012107421875,1.311377216796875
-0.43927998046875,-0.03522083984375,1.3091653173828126
-0.29242068359375,-0.02076051025390625,1.09952640625
-0.42469130859375,-0.10016977783203125,1.00810123046875
-0.4020788671875,-0.0798272802734375,0.935845849609375
-0.3359435546875,-0.00360418701171875,0.9488714794921875
-0.2581373046875,-0.0072805419921875,0.7979707861328125
-0.20051205078125,0.05325677001953125,0.6910623144531249
-0.06532369140625,-0.110708662109375,0.6603414892578126
0.006403945312499999,-0.163648173828125,0.83704767578125
-0.164283515625,-0.2121760595703125,1.0825685107421874
-0.3466419140625,-0.15016820556640625,1.2408422021484375
-0.2805066015625,0.0456589697265625,1.2290454052734374
-0.341292734375,0.16060633544921876,1.12017080078125
-0.24622322265625,0.222614189453125,0.966320908203125
-0.29631099609375,0.17727247802734375,1.02383029296875
-0.4020788671875,0.17482157470703125,1.0343982568359376
-0.349073359375,0.0897752294921875,1.0122792626953125
-0.2644590625,0.01992448486328125,1.0275167919921875
-0.2454937890625,-0.04428918212890625,1.0597122167968749
-0.30555048828125,-0.07566074462890625,0.9562444775390625
-0.20002576171875,-0.17271651611328126,0.902421591796875
-0.22628537109375,-0.12271808837890624,0.8117337158203125
-0.2955815625,-0.11977700439453125,0.833606943359375
-0.228473671875,0.0030132519531249997,0.8712092333984375
-0.19516287109375,0.03266918212890625,0.9537868115234375
-0.2853694921875,0.024581201171875,0.9120064892578125
-0.1920019921875,-0.0332601171875,0.841471474609375
-0.24038775390625,-0.08350363525390625,0.9183964208984375
-0.26129818359375,-0.19869609130859375,1.019406494140625
-0.230418828125,-0.124433720703125,1.1484339599609374
-0.378250703125,0.0348749951171875,1.2590289306640625
-0.37071322265625,-0.00850599365234375,1.1902142822265624
-0.32475890625,0.00766996826171875,1.180629384765625
-0.312115390625,0.085363603515625,1.103458671875
-0.185680234375,-0.01144707763671875,1.032677890625
-0.133161015625,-0.08938580322265625,0.88030259765625
-0.13875333984375,-0.07419020263671874,0.8419630078125
-0.20780638671875,-0.05115171142578125,0.9164302880859375
-0.26275705078125,-0.10115013916015625,0.8633447021484375
-0.29582470703125,0.14688127685546876,0.906845390625
-0.26859251953125,0.0358553564453125,0.7989538525390625
-0.23455228515625,-0.0866898095703125,0.775606025390625
-0.32354318359375,0.14835181884765625,1.0127707958984375
-0.19224513671875,0.02433611083984375,1.0496357861328125
-0.44535859375,0.07531489990234375,1.1218911669921874
-0.3320532421875,0.01600303955078125,1.0673309814453125
-0.23941517578125,-0.09575815185546875,0.9604225097656249
-0.24914095703125,0.0329142724609375,1.066593681640625
-0.1706052734375,-0.04330882080078125,1.01006736328125
-0.27005138671875,0.0069346972656249995,0.98843990234375
-0.218747890625,-0.0710040283203125,1.0543053515625
-0.39940427734375,-0.13301188232421876,0.986965302734375
-0.3359435546875,-0.05752406005859375,0.9100403564453124
-0.2610550390625,-0.19281392333984376,0.879811064453125
-0.25643529296875,-0.2136466015625,0.843437607421875
-0.2065906640625,-0.0847290869140625,0.768724560546875
-0.14896541015625,-0.14967802490234375,0.8053437841796875
-0.3252451953125,-0.1327667919921875,0.953541044921875
-0.30749564453125,-0.01634888427734375,1.133442197265625
-0.44949205078125,0.01453249755859375,1.154086591796875
-0.330594375,0.07776580322265625,1.1789090185546875
-0.28609892578125,0.11698025634765626,1.0857634765625
-0.32937865234375,0.079481435546875,0.93535431640625
-0.17692703125,-0.13301188232421876,0.9365831494140625
-0.34104958984375,-0.15114856689453124,0.961897109375
-0.1944334375,-0.07051384765625,1.0031858984375
-0.31284482421875,-0.05703387939453125,0.90782845703125
-0.36001486328125,0.07678544189453125,0.8127167822265625
-0.249870390625,0.0789912548828125,0.82328474609375
-0.2941226953125,-0.17271651611328126,0.9675497412109375
-0.30311904296875003,-0.0651218603515625,1.039067822265625
-0.2707808203125,-0.1788437744140625,1.0265337255859375
-0.22190876953125,-0.09085634521484375,0.9793465380859375
-0.26859251953125,0.0633054736328125,1.0149826953125
-0.4176401171875,0.08854977783203125,1.0267794921875
-0.2425760546875,0.012816865234374999,0.9346170166015625
-0.115654609375,-0.12026718505859375,0.985490703125
-0.35369310546875,-0.03987755615234375,1.14376439453125
-0.45143720703125,-0.0592396923828125,1.2010280126953126
-0.46019041015625,0.0466393310546875,0.9284728515625
-0.3612305859375,0.04884514404296875,0.6716467529296875
-0.12805498046875,-0.18546121337890625,0.5197629931640625
-0.06410796875,-0.1876670263671875,0.7397241015625
-0.11249373046875,-0.087179990234375,1.0565172509765626
-0.3592854296875,-0.0013983740234375002,1.138357529296875
-0.4225030078125,-0.05654369873046875,1.087729609375
-0.4400094140625,-0.01193725830078125,1.2978600537109375
-0.39940427734375,0.1000690234375,1.3534033056640624
-0.3252451953125,0.11698025634765626,1.2074179443359374
-0.26761994140625,0.0711483642578125,0.8220559130859375
-0.218747890625,-0.130315888671875,0.591772607421875
-0.14167107421875,-0.0749254736328125,0.8427003076171875
-0.30603677734375,-0.075415654296875,1.022355693359375
-0.29509527343749997,-0.10727739746093751,1.1331964306640625
-0.251815546875,-0.12663953369140624,1.001711298828125
-0.21193984375,0.0093856005859375,1.0348897900390626
-0.339347578125,0.06796218994140625,1.01006736328125
-0.2834243359375,-0.02321141357421875,0.8874298291015625
-0.23601115234375,-0.045024453125,0.669434853515625
-0.34153587890625,-0.07370002197265625,0.879811064453125
-0.40062,-0.0847290869140625,1.1762055859375
-0.3135742578125,-0.0016434643554687498,1.253376298828125
-0.27272597656249997,0.0162481298828125,0.892590927734375
-0.2036729296875,-0.0190448779296875,0.75447009765625
-0.2416034765625,-0.059484782714843754,0.9090572900390625
-0.37071322265625,-0.013162709960937501,1.2226554736328126
-0.3811684375,0.024581201171875,1.1759598193359375
-0.33983386718749997,-0.01732924560546875,0.7672499609375
-0.14361623046875,-0.04723026611328125,0.6401886279296874
-0.19248828125,0.02360083984375,0.83114927734375
-0.19832375,-0.00654527099609375,0.9874568359375
-0.2678630859375,-0.0175743359375,0.9459222802734375
-0.35855599609375,-0.04698517578125,1.1132893359375
-0.46164927734375,-0.07713128662109375,1.20274837890625
-0.228473671875,-0.04281864013671875,1.2683680615234374
-0.3164919921875,0.04051207275390625,1.131476064453125
-0.30506419921875,-0.0308092138671875,0.9360916162109375
-0.25011353515625,-0.1229631787109375,0.8328696435546875
-0.39210994140625,0.00668960693359375,1.127052265625
-0.33375525390625,0.028257556152343752,1.11623853515625
-0.1550440234375,-0.051886982421875,0.902913125
-0.17692703125,-0.0055649096679687505,0.7328426367187499
-0.27418484375,-0.07811164794921875,0.7751144921875
-0.23649744140625,-0.04919098876953125,0.9267524853515625
-0.296554140625,-0.02958376220703125,0.9174133544921875
-0.284883203125,-0.027868129882812502,0.9088115234375
-0.22361078125,-0.08154291259765625,0.89013326171875
-0.36366203125,-0.10164031982421876,0.910286123046875
-0.24719580078125,-0.0827683642578125,0.928964384765625
-0.32864921874999997,-0.034240478515625,0.8363103759765624
-0.27248283203125,-0.120512275390625,0.77806369140625
-0.16501294921875,-0.0249270458984375,0.8785822314453124
-0.32402947265625,-0.03840701416015625,1.0796193115234376
-0.27151025390625,-0.0092412646484375,1.1621968896484376
-0.35028908203125,0.0142874072265625,1.09067880859375
-0.35977171875,0.1191860693359375,0.9763973388671875
-0.252788125,-0.02272123291015625,0.8746499658203125
-0.23309341796875,-0.06830803466796875,0.8721922998046875
-0.27783201171875,-0.00654527099609375,0.7915808544921875
-0.0704297265625,-0.0376717431640625,0.7468513330078125
-0.2668905078125,-0.0415931884765625,0.7969877197265625
-0.3719289453125,0.00399361328125,0.9449392138671875
-0.34348103515625,0.02237538818359375,1.096085673828125
-0.36779548828124997,0.0093856005859375,1.1617053564453126
-0.35393625,0.14786163818359374,1.1172216015625
-0.27831830078124997,-0.068553125,1.0071181640625
-0.29485212890625,-0.03522083984375,0.9940925341796875
-0.315033125,0.0348749951171875,0.966320908203125
-0.1881116796875,-0.05801424072265625,0.897506259765625
-0.27272597656249997,-0.08252327392578125,0.9011927587890625
-0.315033125,-0.05213207275390625,0.8183694140625
-0.26567478515625,-0.130315888671875,0.8594124365234375
-0.2386857421875,0.040266982421875,0.8154202148437499
-0.28853037109375,-0.1219828173828125,0.70138451171875
-0.2172890234375,-0.12909043701171874,0.7689703271484375
-0.2999581640625,-0.032279755859375,1.0152284619140626
-0.42225986328125,-0.167569619140625,1.094119541015625
-0.37898013671874997,-0.06095532470703125,1.24403716796875
-0.32111173828125,0.0691876416015625,1.237647236328125
-0.3811684375,0.0387964404296875,1.0127707958984375
-0.24962724609375,0.0525214990234375,1.0997721728515626
-0.29533841796875,0.011346323242187501,0.9931094677734374
-0.19662173828125,-0.0719843896484375,0.930930517578125
-0.144831953125,-0.06095532470703125,0.8525309716796875
-0.2377131640625,-0.09771887451171875,0.7370206689453125
-0.119544921875,-0.104826494140625,0.726452705078125
-0.26859251953125,-0.1523740185546875,0.925032119140625
-0.4020788671875,0.012816865234374999,1.1631799560546874
-0.2892598046875,-0.059484782714843754,1.2649273291015626
-0.49714837890625,0.02286556884765625,1.2521474658203124
-0.36536404296875,-0.004829638671875,1.0457035205078125
-0.27637314453125,0.07139345458984375,0.94125271484375
-0.4059691796875,-0.08350363525390625,0.9442019140625
-0.26713365234374997,-0.08693489990234375,0.9129895556640625
-0.29631099609375,-0.07173929931640625,0.9331424169921875
-0.27272597656249997,-0.0700236669921875,0.8879213623046875
-0.14507509765624998,-0.05752406005859375,0.8267254785156251
-0.20197091796875,0.02580665283203125,0.8520394384765625
-0.21121041015625,-0.1239435400390625,0.906353857421875
-0.21583015625000002,-0.16438344482421874,1.0486527197265625
-0.30652306640625,-0.17075579345703126,1.163917255859375
-0.3485870703125,-0.14281549560546875,1.141306728515625
-0.36536404296875,-0.02419177490234375,1.0815854443359374
-0.42420501953125,0.036345537109375,1.067576748046875
-0.339347578125,-0.014633251953124999,1.1115689697265625
-0.34834392578125,-0.00654527099609375,1.0909245751953125
-0.2513292578125,0.01845394287109375,0.9316678173828125
-0.23698373046875,-0.02370159423828125,0.8348357763671875
-0.18081734375,-0.1013952294921875,0.86064126953125
-0.19346085937500002,-0.10065995849609374,0.81738634765625
-0.13534931640625,-0.13007079833984375,0.9405154150390624
-0.16987583984375,-0.17712814208984376,1.0835515771484374
-0.2717533984375,-0.1562954638671875,1.2329776708984375
-0.40378087890625003,-0.00948635498046875,1.1958669140625
-0.33424154296874997,-0.04306373046875,1.05528841796875
-0.4137498046875,-0.139139140625,1.0683140478515625
-0.37411724609375,-0.08987598388671875,0.993355234375
-0.29728357421875,-0.02027032958984375,0.8984893261718749
-0.23163455078125,-0.08595453857421875,0.584891142578125
-0.11784291015625001,-0.2058037109375,0.45463484374999996
-0.1589343359375,-0.20261753662109375,0.655180390625
-0.1929745703125,-0.13546278564453124,1.0855177099609374
-0.1788721875,-0.0254172265625,1.2374014697265625
-0.1774133203125,-0.0582593310546875,1.2177401416015625
-0.177899609375,-0.03595611083984375,1.07494974609375
-0.330594375,-0.0974737841796875,1.0395593554687501
-0.28950294921874997,0.04541387939453125,1.16539185546875
-0.3884627734375,-0.10654212646484375,1.1061621044921874
-0.32937865234375,-0.08252327392578125,1.0464408203125
-0.3388612890625,-0.08301345458984374,0.9631259423828125
-0.3223274609375,-0.1298257080078125,0.8800568310546875
-0.19905318359375002,-0.1352176953125,0.8387680419921875
-0.22093619140625,-0.1298257080078125,0.765283828125
-0.12805498046875,-0.08056255126953125,0.8436833740234375
-0.19516287109375,-0.11291447509765624,0.9906518017578125
-0.28391062499999997,-0.07271966064453125,1.0422627880859374
-0.2007551953125,-0.02909358154296875,0.9488714794921875
-0.25473328125,0.028502646484374998,0.9911433349609375
-0.26859251953125,0.02776737548828125,1.01006736328125
-0.2328502734375,0.02237538818359375,0.930930517578125
-0.29825615234375,0.03928662109375,0.83311541015625
-0.253760703125,0.02090484619140625,0.810996416015625
-0.2912049609375,-0.0710040283203125,0.9262609521484375
-0.31527626953125,-0.14232531494140624,1.049881552734375
-0.30530734375,-0.0803174609375,1.0904330419921875
-0.2036729296875,-0.08938580322265625,0.994829833984375
-0.268349375,-0.10654212646484375,0.8930824609375
-0.23649744140625,-0.19281392333984376,0.8537598046875
-0.14069849609375001,-0.10409122314453124,0.941744248046875
-0.2095083984375,-0.09918941650390625,0.860149736328125
-0.21023783203125002,-0.08301345458984374,0.7778179248046875
-0.2503566796875,-0.146001669921875,0.842454541015625
-0.22750109375,-0.04134809814453125,1.016948828125
-0.29752671875000003,-0.0719843896484375,1.051847685546875
-0.22434021484375,-0.00311400634765625,1.0014655322265624
-0.228473671875,-0.1111988427734375,0.9127437890625
-0.1968648828125,7.216796875000007e-05,0.8397511083984375
-0.14264365234375,0.02433611083984375,0.9788550048828125
-0.34737134765625,-0.12933552734375,1.0594664501953126
-0.1555303125,0.080461796875,1.2585373974609375
-0.16549923828125,-0.1043363134765625,1.0543053515625
-0.20877896484375,0.00570924560546875,0.92159138671875
-0.0607039453125,0.11060790771484375,0.87243806640625
-0.19467658203125,-0.05556333740234375,0.8195982470703125
-0.14799283203125,-0.02272123291015625,0.930930517578125
-0.2834243359375,-0.08595453857421875,0.916184521484375
-0.17084841796875,-0.04698517578125,1.08478041015625
-0.1676875390625,-0.1180613720703125,1.10640787109375
-0.3038484765625,-0.1033559521484375,1.06020375
-0.304334765625,-0.16291290283203125,1.08871267578125
-0.3019033203125,-0.12271808837890624,0.9257694189453125
-0.325731484375,-0.05899460205078125,0.6952403466796875
-0.26956509765625,-0.1229631787109375,0.6745959521484375
-0.2299325390625,0.00178780029296875,0.84491220703125
-0.16160892578125,0.00668960693359375,0.9459222802734375
-0.09450103515625,-0.06487677001953125,1.0110504296875
-0.07018658203125,0.009140510253906251,1.09657720703125
-0.2659179296875,-0.11683592041015625,1.0388220556640624
-0.23552486328125,-0.07051384765625,0.9351085498046875
-0.3524773828125,-0.07075893798828126,0.8697346337890625
-0.44171142578125,-0.12614935302734376,0.8510563720703125
-0.36341888671875,-0.09281706787109376,1.0425085546875
-0.38335673828125,-0.08889562255859375,1.1081282373046875
-0.255705859375,0.0466393310546875,1.0889584423828125
-0.28366748046875,-0.0016434643554687498,0.968287041015625
-0.19759431640625,-0.057278969726562504,0.9139726220703125
-0.12124693359375,-0.048945898437499996,0.8564632373046875
-0.2454937890625,-0.21242114990234376,0.8412257080078125
-0.21193984375,-0.1808044970703125,0.9877026025390625
-0.1920019921875,-0.11438501708984375,1.0130165625
-0.31527626953125,-0.17271651611328126,1.0506188525390625
-0.32889236328125,-0.0513968017578125,1.153103525390625
-0.15771861328125,-0.067572763671875,1.08478041015625
-0.39065107421875,0.03413972412109375,0.930438984375
-0.30700935546875,0.13168567626953126,0.9380577490234375
-0.300444453125,-0.1141399267578125,0.9911433349609375
-0.42225986328125,-0.03350520751953125,1.0314490576171875
-0.29776986328125,-0.07026875732421875,1.1248403662109374
-0.26956509765625,-0.07909200927734375,0.9867195361328125
-0.28950294921874997,0.0691876416015625,0.7763433251953125
-0.252788125,-0.1445311279296875,0.542619287109375
-0.22750109375,-0.208744794921875,0.630112197265625
-0.1706052734375,-0.22565602783203126,0.8136998486328125
-0.26227076171875,-0.14869766357421876,1.086255009765625
-0.444386015625,-0.21095060791015624,1.219952041015625
-0.42420501953125,-0.040122646484374996,1.172764853515625
-0.44414287109375,0.01698340087890625,0.9488714794921875
-0.45168035156249997,0.0358553564453125,0.810996416015625
-0.376305546875,-0.045024453125,0.781504423828125
-0.421044140625,0.0544822216796875,0.830657744140625
-0.2805066015625,7.216796875000007e-05,0.7468513330078125
-0.1676875390625,-0.20898988525390624,0.7323511035156249
-0.1706052734375,-0.07762146728515625,0.8839890966796875
-0.22288134765625,-0.21046042724609376,0.9842618701171875
-0.32889236328125,-0.17761832275390624,1.1565442578125
-0.3252451953125,-0.057278969726562504,1.1867735498046874
-0.3223274609375,-0.07811164794921875,1.1194335009765626
-0.39745912109375,0.01159141357421875,0.978117705078125
-0.44924890625,0.07286399658203124,0.94715111328125
-0.34396732421875,-0.012672529296875,0.8544971044921875
-0.31041337890625,0.07188363525390624,0.849336005859375
-0.17692703125,-0.01928996826171875,0.8790737646484375
-0.1248941015625,-0.11561046875,0.9921264013671875
-0.17036212890625,-0.16095218017578125,1.1676037548828124
-0.2795340234375,-0.028113220214843748,1.3138348828125
-0.3378887109375,-0.0396324658203125,1.2784444921875
-0.31746457031249997,0.03217900146484375,1.0963314404296876
-0.28318119140625,0.0003172583007812497,1.0417712548828124
-0.3320532421875,0.032424091796875,1.1041959716796874
-0.33959072265625,-0.012427438964843749,0.9886856689453125
-0.28366748046875,-0.09404251953125001,0.9105318896484375
-0.27151025390625,-0.07222947998046875,0.8068183837890625
-0.21193984375,-0.1102184814453125,0.838522275390625
-0.30603677734375,-0.153844560546875,1.087729609375
-0.2795340234375,-0.04330882080078125,1.1975872802734375
-0.347128203125,-0.06683749267578125,1.1445016943359374
-0.329621796875,-0.0063001806640625,1.05233921875
-0.28366748046875,0.0221302978515625,0.9822957373046874
-0.29363640625,-0.0371815625,0.8992266259765624
-0.32597462890625,0.01894412353515625,0.894557060546875
-0.30409162109375,-0.07811164794921875,0.9414984814453125
-0.19808060546875,-0.1278649853515625,0.9316678173828125
-0.3680386328125,-0.089140712890625,0.9621428759765625
-0.37849384765625,-0.08619962890625,0.8854636962890625
-0.422989296875,-0.1141399267578125,0.806081083984375
-0.3252451953125,-0.05997496337890625,0.8707177001953125
-0.333512109375,-0.0210056005859375,0.8240220458984375
-0.24670951171875,-0.12933552734375,0.840488408203125
-0.19419029296875,-0.05482806640625,0.9257694189453125
-0.3738741015625,-0.12909043701171874,0.94911724609375
-0.20829267578125,-0.14502130859375,0.96288017578125
-0.25084296875,-0.09036616455078125,0.9916348681640625
-0.329621796875,-0.15605037353515624,0.9695158740234375
-0.2766162890625,-0.08619962890625,1.023338759765625
-0.34299474609375,-0.09330724853515625,1.02383029296875
-0.35904228515625003,-0.023456503906250002,1.0147369287109376
-0.21753216796875,0.065756376953125,1.0516019189453125
-0.345183046875,7.216796875000007e-05,1.05725455078125
-0.2921775390625,-0.09183670654296874,1.05725455078125
-0.13097271484375,-0.0063001806640625,1.0747039794921875
-0.34810078125,-0.13105115966796876,0.9936010009765625
-0.3563676953125,-0.03497574951171875,1.0083469970703125
-0.2095083984375,-0.02321141357421875,0.9559987109375
-0.3339983984375,-0.108747939453125,0.8879213623046875
-0.24865466796875,0.01453249755859375,0.9095488232421876
-0.2036729296875,-0.11340465576171875,0.908319990234375
-0.2824517578125,-0.1151202880859375,0.946659580078125
-0.29047552734375,-0.0317895751953125,0.9631259423828125
-0.252788125,-0.0621807763671875,1.0395593554687501
-0.4409819921875,-0.08987598388671875,1.032677890625
-0.42323244140625,-0.06634731201171876,1.0314490576171875
-0.39600025390625,-0.0915916162109375,0.828691611328125
-0.2309051171875,-0.17639287109375001,0.798216552734375
-0.16112263671875,-0.0337502978515625,0.8166490478515624
-0.3048210546875,-0.0960032421875,0.708757509765625
-0.00016095703124999888,-0.167569619140625,0.799199619140625
-0.16404037109375,-0.177373232421875,1.0289913916015625
-0.477453671875,-0.19207865234375,1.0766701123046876
-0.42128728515625,-0.08203309326171875,1.193409248046875
-0.3344846875,0.0387964404296875,1.2329776708984375
-0.39551396484375,0.13903838623046874,1.0560257177734376
-0.28220861328125,-0.01830960693359375,1.046932353515625
-0.36974064453125,0.07678544189453125,1.12312
-0.42712275390625,0.052031318359375,0.9913891015625
-0.16744439453124998,-0.1415900439453125,0.9992536328125
-0.3155194140625,-0.068553125,1.1877566162109374
-0.30603677734375,-0.13301188232421876,1.1798920849609376
-0.33181009765625,-0.11928682373046876,1.0280083251953125
-0.1988100390625,-0.03914228515625,0.8294289111328125
-0.33181009765625,-0.05458297607421875,0.7908435546875
-0.34056330078125,0.052031318359375,0.99630443359375
-0.308225078125,-0.044044091796875,1.0555341845703126
-0.2912049609375,0.0686974609375,1.049881552734375
-0.12440781249999999,-0.06634731201171876,0.969761640625
-0.3485870703125,-0.2013920849609375,1.11230626953125
-0.33910443359375,-0.0259074072265625,1.22437583984375
-0.46310814453125,-0.236194912109375,1.156052724609375
-0.38481560546875,0.0142874072265625,1.154086591796875
-0.277102578125,-0.02762303955078125,0.850319072265625
-0.18081734375,-0.20727425292968749,0.7011387451171875
-0.25108611328125,-0.037916833496093746,0.7040879443359375
-0.2289599609375,-0.09232688720703125,0.6377309619140625
-0.10690140625,-0.1474722119140625,0.725961171875
-0.160393203125,-0.2347243701171875,0.9815584374999999
-0.224583359375,-0.10409122314453124,1.1528577587890625
-0.36876806640625,-0.1121792041015625,1.124594599609375
-0.32694720703125,-0.01830960693359375,0.995812900390625
-0.368524921875,0.04002189208984375,0.9267524853515625
-0.36730919921875,-0.0200252392578125,0.9604225097656249
-0.26251390625,-0.01438816162109375,0.9508376123046876
-0.32597462890625,0.03708080810546875,0.99827056640625
-0.19175884765625,-0.0504164404296875,0.924049052734375
-0.28950294921874997,-0.076396015625,0.9238032861328125
-0.19905318359375002,-0.07026875732421875,1.1218911669921874
-0.1851939453125,-0.09134652587890625,1.0555341845703126
-0.18786853515625002,-0.013407800292968751,1.030220224609375
-0.22750109375,-0.07173929931640625,0.8338527099609375
-0.143859375,-0.00777072265625,0.8422087744140625
-0.356853984375,-0.0494360791015625,0.9459222802734375
-0.44657431640625,-0.10286577148437501,0.99433830078125
-0.24938410156250002,-0.14330567626953125,1.2246216064453126
-0.3641483203125,-0.049926259765625,1.1597392236328126
-0.18689595703125,-0.07566074462890625,1.0936280078125
-0.23114826171875,-0.10262068115234375,1.01006736328125
-0.3369161328125,-0.03154448486328125,0.757419296875
-0.2386857421875,-0.1038461328125,0.7200627734375
-0.27491427734375,-0.1229631787109375,0.7397241015625
-0.24306234375,-0.19036302001953126,0.76430076171875
-0.1355924609375,-0.14918784423828124,1.00416896484375
-0.2630001953125,-0.2160975048828125,1.0661021484375
-0.2022140625,-0.08987598388671875,0.9650920751953125
-0.14896541015625,-0.0033590966796874996,0.8731753662109375
-0.24379177734375002,0.010611052246093749,0.8407341748046875
-0.23406599609375,-0.05703387939453125,0.8938197607421875
-0.36876806640625,-0.0016434643554687498,1.0071181640625
-0.37168580078125,-0.0092412646484375,1.06315294921875
-0.32937865234375,-0.01487834228515625,1.099034873046875
-0.2800203125,0.06992291259765625,1.098051806640625
-0.27588685546875,-0.0798272802734375,0.9783634716796875
-0.1399690625,-0.095022880859375,0.8603955029296875
-0.27831830078124997,-0.17075579345703126,0.8205813134765625
-0.2085358203125,-0.19379428466796875,0.828691611328125
-0.2172890234375,-0.114630107421875,0.9402696484374999
-0.20391607421875,-0.120512275390625,0.97860923828125
-0.24379177734375002,-0.1587463671875,0.9488714794921875
-0.247925234375,-0.1259042626953125,0.9169218212890625
-0.2800203125,-0.0631611376953125,0.8053437841796875
-0.19346085937500002,-0.1195319140625,0.809030283203125
-0.2736985546875,-0.0239466845703125,0.9756600390625
-0.18884111328125,-0.08595453857421875,0.9913891015625
-0.1608794921875,-0.10752248779296875,0.970253173828125
-0.22531279296875,-0.07835673828125,0.98843990234375
-0.31916658203125,-0.049926259765625,1.08379734375
-0.25983931640625,-0.08252327392578125,0.8852179296875
-0.31916658203125,-0.0964934228515625,0.86359046875
-0.18154677734375,0.03855135009765625,0.98843990234375
