ax,ay,az
-0.4312562109375,-0.0097314453125,1.2806563916015625
-0.23114826171875,-0.14820748291015626,1.478498505859375
-0.14021220703125,0.04149243408203125,1.3964124609375
-0.3233000390625,0.157910341796875,1.084288876953125
-0.3641483203125,-0.07173929931640625,1.0019570654296874
-0.2902323828125,0.0711483642578125,1.0363643896484376
-0.38092529296875,0.1005592041015625,0.9611598095703124
-0.16793068359375,0.04198261474609375,0.9955671337890625
-0.133161015625,0.09002031982421875,1.139340595703125
-0.333512109375,-0.01291761962890625,0.973202373046875
-0.13243158203125,0.01894412353515625,0.8633447021484375
-0.12659611328125,0.032424091796875,0.8105048828125
-0.115654609375,-0.06879821533203125,0.85867513671875
-0.0310403125,-0.08227818359375,0.8989808593749999
-0.12416466796875,-0.2709977392578125,0.9105318896484375
-0.190543125,-0.2805562622070312,0.969761640625
-0.33618669921875,-0.2136466015625,0.946168046875
-0.2824517578125,-0.2607039453125,0.835573076171875
-0.174981875,-0.1955099169921875,0.93338818359375
-0.20342978515625,-0.16291290283203125,1.1408151953125
-0.02739314453125,-0.09624833251953124,1.1961126806640625
-0.1968648828125,-0.00752563232421875,1.2339607373046875
-0.1151683203125,-0.07517056396484376,1.107882470703125
-0.068970859375,0.0201695751953125,1.0520934521484375
-0.004780703125000001,0.1338914892578125,1.1066536376953124
-0.060947089843749996,-0.2516356030273437,1.051847685546875
-0.1647698046875,-0.035711020507812496,1.038084755859375
-0.39940427734375,-0.0308092138671875,0.8643277685546875
-0.39818855468750003,-0.10213050048828125,0.724486572265625
-0.10544253906250001,-0.23889090576171876,0.5944760400390625
0.031934121093750004,-0.1102184814453125,1.041033955078125
-0.10228166015625,-0.045024453125,1.291715888671875
-0.526082578125,-0.228352021484375,1.31186875
-0.54261640625,-0.13399224365234375,1.054796884765625
-0.23503857421875,-0.08693489990234375,0.718588173828125
0.0156434375,-0.06659240234375,0.6121712353515625
0.05065625,0.091245771484375,0.88816712890625
0.08980251953125,0.161831787109375,1.1125520361328125
0.12141130859375,0.13217585693359374,1.4435996484375
-0.0597313671875,-0.06242586669921875,1.6856797509765624
-0.31868029296875,-0.183255400390625,1.501109033203125
-0.436605390625,-0.05605351806640625,1.158510390625
-0.45775896484375,-0.01879978759765625,0.879811064453125
-0.44949205078125,-0.08546435791015625,0.802148818359375
-0.37533296875,-0.09771887451171875,0.7453767333984375
0.10730892578125,-0.09771887451171875,0.7947758203124999
0.09515169921875,-0.2033528076171875,0.94518498046875
-0.30263275390625,-0.1955099169921875,1.1014925390624999
-0.524137421875,-0.29722240478515627,1.0771616455078126
-0.1686601171875,-0.2611941259765625,0.83213234375
0.08980251953125,-0.028113220214843748,0.9007012255859375
0.0705941015625,0.0564429443359375,1.145238994140625
-0.005510136718749999,-0.0009081933593750001,1.4566252783203124
-0.46310814453125,-0.042083369140625,1.3622509033203125
-0.4691867578125,0.03904153076171875,0.934862783203125
-0.38189787109375,-0.10727739746093751,0.6165950341796875
-0.03663263671875,-0.13742350830078126,0.480686103515625
0.090531953125,-0.08056255126953125,0.664519521484375
-0.04246810546875,-0.026397587890625,0.8572005371093749
-0.1764407421875,-0.1004148681640625,0.94715111328125
-0.33253953125,-0.00311400634765625,1.187510849609375
-0.5071173046875,-0.0337502978515625,1.2251131396484376
-0.1842213671875,0.013552136230468751,0.99433830078125
0.0258555078125,0.0123266845703125,1.01203349609375
-0.0006472460937500014,0.0329142724609375,1.072000546875
-0.0140201953125,0.1000690234375,1.200290712890625
-0.15869119140625,-0.03399538818359375,1.2194605078125
-0.39575710937499997,0.004973974609375,1.3553694384765624
-0.51076447265625,-0.0023787353515625003,1.140323662109375
-0.28366748046875,-0.02076051025390625,1.008592763671875
-0.14993798828125,-0.1866866650390625,0.9191337207031249
-0.1015522265625,-0.010221625976562499,0.7301392041015625
-0.0422249609375,-0.0680629443359375,0.5708824462890625
0.005674511718750001,-0.20849970458984374,0.5875945751953124
-0.01280447265625,-0.24697888671875,0.69548611328125
-0.0918264453125,-0.32075107666015623,0.9238032861328125
-0.16160892578125,-0.2808013525390625,1.125577666015625
-0.34980279296875,-0.09379742919921875,1.0201437939453124
-0.1997826171875,-0.0239466845703125,0.8360646093749999
-0.17911533203125,-0.0464949951171875,0.6627991552734375
0.06791951171874999,0.021885207519531248,0.7035964111328125
0.10706578124999999,0.0765403515625,0.9124980224609375
-0.0699434375,0.10619628173828125,1.2432998681640626
-0.247925234375,0.0005623486328125002,1.329072412109375
-0.44462916015625,-0.046740085449218746,1.48390537109375
-0.548451875,-0.01830960693359375,1.140323662109375
-0.3544225390625,0.06453092529296875,0.811979482421875
-0.07553576171875,0.124578056640625,0.7650380615234375
0.06427234375,-0.02860340087890625,0.7945300537109374
-0.0655668359375,0.02482629150390625,0.8795652978515625
-0.1453182421875,-0.12860025634765626,0.9011927587890625
-0.29339326171875,-0.1268846240234375,0.876861865234375
-0.36463460937500003,-0.1347275146484375,0.7529954980468749
-0.14847912109375,-0.1778634130859375,0.657638056640625
-0.018883085937500002,-0.09085634521484375,0.7424275341796875
-0.07748091796875001,-0.17908886474609376,0.936828916015625
0.03922845703125,-0.12860025634765626,1.1430270947265626
-0.0334717578125,-0.03644629150390625,1.3484879736328126
-0.3729015234375,-0.09845414550781251,1.406243125
-0.4745359375,-0.011201987304687501,1.2364184033203125
-0.2192341796875,-0.083258544921875,0.9891772021484375
-0.11978806640625,-0.17810850341796874,0.95796484375
0.00616080078125,0.1015395654296875,1.1835785839843749
-0.0932853125,0.02237538818359375,1.121645400390625
-0.255705859375,-0.13154134033203124,0.969270107421875
-0.174981875,-0.09232688720703125,0.893573994140625
0.006647089843749999,-0.01291761962890625,0.8540055712890625
-0.245980078125,-0.04330882080078125,0.9611598095703124
-0.2955815625,-0.13105115966796876,0.92945591796875
-0.20342978515625,-0.01144707763671875,0.9134810888671875
-0.20464550781250002,0.1691844970703125,0.969270107421875
-0.40718490234375,0.05325677001953125,0.8746499658203125
-0.3656071875,-0.046740085449218746,0.7945300537109374
0.01369828125,-0.12909043701171874,0.89799779296875
0.006403945312499999,-0.01928996826171875,1.108865537109375
-0.159420625,-0.02321141357421875,1.2580458642578125
-0.25059982421875,-0.06659240234375,1.38363259765625
-0.3656071875,-0.07320984130859375,1.29515662109375
-0.26251390625,-0.1308060693359375,1.10247560546875
-0.0879361328125,-0.1901179296875,0.9346170166015625
-0.1025248046875,-0.0955130615234375,0.811979482421875
0.0662175,-0.1023755908203125,0.8105048828125
-0.09985021484375001,-0.2170778662109375,0.902421591796875
-0.18640966796875,-0.17859868408203125,1.0383305224609374
-0.1385101953125,-0.20457825927734374,1.212087509765625
-0.2795340234375,-0.23055783447265624,1.221918173828125
-0.08428896484375001,0.057913486328125,1.1631799560546874
-0.253760703125,-0.0876701708984375,0.9616513427734374
-0.07164544921875,-0.2254109375,0.8820229638671875
-0.16647181640625,0.01183650390625,0.91372685546875
-0.2610550390625,-0.0180645166015625,0.8223016796875
-0.21266927734375,0.09443194580078125,0.7989538525390625
-0.1278118359375,0.1672237744140625,0.8859552294921875
-0.19127255859375,0.18756627197265624,1.127543798828125
-0.2182616015625,-0.034240478515625,1.1543323583984375
-0.049276152343750004,0.0378160791015625,1.092153408203125
-0.10130908203125,0.057913486328125,0.8967689599609375
-0.09109701171875,-0.05899460205078125,0.7222746728515625
-0.18835482421875,-0.15310928955078124,0.787402822265625
-0.39259623046875003,-0.10948321044921874,0.9717277734375
-0.3972159765625,0.1280093212890625,1.120662333984375
-0.33472783203125,0.106931552734375,1.098051806640625
-0.22482650390625,-0.114630107421875,1.0255506591796875
0.014184570312499999,-0.13399224365234375,0.9862280029296875
0.029502675781249998,-0.26977228759765626,0.9695158740234375
0.035095,-0.14894275390625,0.91077765625
-0.1034973828125,-0.0964934228515625,0.727435771484375
-0.20026890625,-0.23104801513671874,0.6549346240234375
-0.14702025390625,-0.29035987548828124,0.686638515625
-0.08380267578125,-0.161687451171875,0.8773533984374999
0.04457763671875,0.13462676025390624,1.170798720703125
0.08104931640625,0.1495772705078125,1.3455387744140626
-0.0004041015625000019,-0.10899302978515625,1.2408422021484375
-0.13948277343749999,0.059874208984374996,1.3656916357421875
-0.41399294921875,-0.083258544921875,1.343818408203125
-0.5207333984375,-0.1513936572265625,1.1272980322265624
-0.42760904296875,-0.0038492773437499997,0.9646005419921875
-0.17133470703125,0.12947986328125,0.843437607421875
0.0701078125,0.00423870361328125,0.847369873046875
0.031934121093750004,-0.02370159423828125,1.1592476904296876
-0.09401474609375,0.01894412353515625,1.3268605126953126
-0.34032015625,-0.03105430419921875,1.2251131396484376
-0.16452666015625,0.06943273193359376,0.93928658203125
-0.0568136328125,-0.106787216796875,0.681231650390625
0.04555021484375,0.05497240234375,0.6274087646484375
0.08834365234375,-0.01169216796875,0.8215643798828125
0.029502675781249998,-0.14918784423828124,1.11034013671875
0.008592246093749999,-0.03350520751953125,1.410666923828125
-0.38481560546875,-0.1200220947265625,1.4177941552734374
-0.4448723046875,-0.2013920849609375,0.9867195361328125
-0.28585578125,-0.07271966064453125,0.6922911474609375
-0.1540714453125,-0.13791368896484374,0.6510023583984375
-0.1783858984375,-0.17369687744140624,0.7239950390625
-0.004537558593750001,0.05031568603515625,0.85474287109375
0.13940400390625,-0.0028689160156250004,0.9206083203125
0.02318091796875,0.11256863037109376,1.05135615234375
-0.31989601562500003,-0.04183827880859375,1.0422627880859374
0.0467659375,-0.1268846240234375,0.933879716796875
0.11217181640625,0.06109966064453125,1.0122792626953125
0.09904201171875,0.04002189208984375,1.1720275537109375
-0.29144810546875,-0.0523771630859375,1.153103525390625
-0.2022140625,-0.31045728271484374,0.951574912109375
-0.049519296875,-0.3249176123046875,0.777572158203125
0.045793359374999995,-0.19845100097656249,0.7522581982421875
0.10439119140625,-0.123453359375,0.7144101416015625
0.07594328125,-0.1288453466796875,0.8608870361328125
-0.15480087890625,0.010611052246093749,1.0260421923828125
-0.29144810546875,0.18854663330078125,1.2501813330078124
0.012482558593749998,0.008895419921875,1.3769968994140624
-0.0723748828125,0.0946770361328125,1.48980376953125
-0.05559791015625,0.1897720849609375,1.2233927734375
-0.07577890625,0.04443351806640625,0.902421591796875
-0.127325546875,-0.1229631787109375,0.749554765625
-0.0558410546875,-0.0906112548828125,0.702367578125
-0.1560166015625,-0.09404251953125001,0.60504400390625
-0.010129882812500001,-0.19820591064453125,0.6834435498046875
-0.08672041015625,-0.13840386962890625,0.8800568310546875
-0.08088494140625,0.0608545703125,1.065610615234375
-0.11152115234375,0.00963069091796875,1.2133163427734375
-0.2649453515625,-0.23594982177734375,1.0791277783203126
-0.2411171875,-0.092081796875,1.0432458544921874
-0.140941640625,0.1280093212890625,1.1073909375
-0.06532369140625,0.0103659619140625,1.1046875048828124
0.0608683203125,0.00423870361328125,1.0452119873046875
0.054303417968750003,0.0191892138671875,1.0029401318359374
0.03436556640625,0.10864718505859375,1.086255009765625
-0.1346198828125,-0.02762303955078125,1.1248403662109374
-0.30530734375,0.06306038330078124,1.1061621044921874
-0.1764407421875,0.057913486328125,0.98450763671875
-0.1929745703125,0.010856142578125,0.9257694189453125
-0.15480087890625,-0.0175743359375,0.97271083984375
-0.04465640625,-0.1979608203125,0.99237216796875
0.0871279296875,-0.044044091796875,1.1656376220703124
-0.16501294921875,-0.2567825,1.212087509765625
-0.29363640625,-0.32124125732421877,1.1449932275390624
-0.0344443359375,-0.23938108642578126,0.9638632421875
-0.04781728515625,-0.181294677734375,0.869980400390625
-0.0315266015625,-0.10213050048828125,1.031203291015625
-0.06337853515625,-0.08889562255859375,1.0346440234375
-0.009643593750000002,-0.008996174316406251,0.95108337890625
-0.008671015625,-0.0376717431640625,1.1447474609375
-0.17133470703125,0.101049384765625,1.3194875146484375
-0.11784291015625001,0.1250682373046875,1.294665087890625
-0.11346630859375,-0.012672529296875,1.2258504394531249
-0.14945169921875,0.07261890625,1.343818408203125
-0.13826705078125,-0.01781942626953125,1.1351625634765625
-0.19224513671875,7.216796875000007e-05,1.160968056640625
-0.46602587890625,-0.014633251953124999,1.0543053515625
-0.35806970703125,-0.08423890625,0.8073099169921875
0.0171023046875,-0.16830489013671876,0.6991726123046875
0.05065625,-0.15408965087890625,0.7952673535156249
0.06354291015625,-0.11683592041015625,0.8658023681640625
-0.27394169921875,-0.018554697265625,0.95796484375
-0.288773515625,-0.08227818359375,0.77019916015625
0.0676763671875,-0.042083369140625,0.8893959619140624
0.07715900390625,0.00227798095703125,1.21651130859375
-0.30919765625,-0.0719843896484375,1.39837859375
-0.2834243359375,-0.13399224365234375,1.3666747021484376
-0.40669861328125,-0.1817848583984375,0.950591845703125
-0.31624884765625,-0.19845100097656249,0.694994580078125
-0.039793515625,-0.18104958740234375,0.4991185986328125
0.03339298828125,-0.02149578125,0.6288833642578124
-0.08574783203125,-0.1435507666015625,0.7311222705078125
-0.20294349609375,-0.0739451123046875,0.8210728466796875
-0.14167107421875,-0.1239435400390625,0.8928366943359375
-0.16647181640625,0.0417375244140625,1.0162115283203126
-0.21704587890625,0.06306038330078124,1.088221142578125
-0.1521262890625,0.13707766357421874,1.031203291015625
0.0530876953125,0.00423870361328125,1.0737209130859375
-0.15431458984375,0.09835339111328124,1.2983515869140625
-0.397702265625,0.03462990478515625,1.3057245849609376
-0.27345541015625,0.0544822216796875,1.1164843017578125
-0.38773333984375,-0.10262068115234375,0.9164302880859375
-0.26859251953125,-0.09526797119140624,0.7397241015625
0.0020273437500000005,-0.17712814208984376,0.683197783203125
0.03922845703125,-0.18497103271484375,0.854251337890625
-0.03298546875,-0.02860340087890625,1.1017383056640626
-0.076751484375,-0.05458297607421875,1.3239113134765625
-0.074806328125,0.06551128662109375,1.489312236328125
-0.277102578125,-0.079337099609375,1.6316110986328125
-0.3233000390625,-0.09673851318359375,1.176697119140625
-0.36001486328125,-0.09036616455078125,0.7596311962890625
-0.22823052734375,-0.00262382568359375,0.4189986865234375
0.06062517578125,-0.02076051025390625,0.4312870166015625
0.12870564453125,-0.07762146728515625,0.474296171875
0.18876234375,-0.06732767333984375,0.8338527099609375
-0.09425789062500001,-0.12467881103515625,1.5057785986328125
-0.6520314453125,-0.175412509765625,1.5913053759765625
-0.66151408203125,-0.09379742919921875,1.567957548828125
-0.168173828125,0.04296297607421875,1.1794005517578126
0.0560054296875,0.1240878759765625,0.9992536328125
-0.0018629687499999992,-0.0406128271484375,0.8259881787109375
0.08299447265625,-0.2121760595703125,0.8176321142578125
-0.0111024609375,-0.0641414990234375,0.9562444775390625
-0.17036212890625,-0.11634573974609375,1.0896957421875
-0.119544921875,-0.198941181640625,1.155069658203125
-0.24379177734375002,0.038306259765625,1.284342890625
-0.48790888671875,-0.08301345458984374,1.0894499755859375
-0.436605390625,-0.22271494384765625,0.8141913818359375
-0.0587587890625,-0.2435476220703125,0.5959506396484375
0.09223396484375,-0.06659240234375,0.6362563623046875
0.08591220703124999,-0.05801424072265625,0.762826162109375
0.032420410156249996,-0.1092381201171875,1.081339677734375
-0.21412814453125,-0.02370159423828125,1.451955712890625
-0.35199109375,-0.09477779052734375,1.696739248046875
-0.2610550390625,-0.19477464599609376,1.2909785888671874
-0.25692158203125,0.0319339111328125,0.805098017578125
-0.07359060546875,-0.0504164404296875,0.5993913720703125
-0.07504947265625,-0.1837455810546875,0.5460600195312499
-0.089395,-0.2781053588867187,0.5217291259765625
0.047738515625,-0.19869609130859375,0.5168137939453125
0.1094972265625,-0.13889405029296875,0.710232109375
-0.011588750000000002,-0.15507001220703126,1.0329236572265625
-0.20197091796875,-0.130315888671875,1.2745122265625
-0.12708240234375,-0.025662316894531252,1.4418792822265625
-0.11200744140625,-0.01487834228515625,1.5455927880859375
-0.22336763671875,0.15227326416015624,1.53305869140625
-0.4575158203125,0.16673359375,1.3745392333984374
-0.48766574218750003,-0.0006631030273437505,1.0230929931640624
-0.2503566796875,-0.204823349609375,0.6136458349609375
0.09077509765625,-0.12958061767578125,0.4015492578125
0.150831796875,-0.0337502978515625,1.3799460986328125
-0.07310431640625001,0.1093824560546875,1.7254939404296874
-0.33035123046875,0.05497240234375,1.9407854833984375
-0.23698373046875,-0.02419177490234375,1.670196455078125
-0.3967296875,0.14099910888671874,1.2786902587890625
-0.392839375,0.0838930615234375,0.7984623193359375
-0.23844259765625,0.03953171142578125,0.4720842724609375
0.14912978515625,0.03021827880859375,0.4661858740234375
0.1945978125,-0.09722869384765626,0.770690693359375
0.1907075,-0.23521455078125,1.111323203125
-0.237226875,-0.33325068359375,1.50553283203125
-0.11735662109375,-0.33447613525390624,1.5328129248046876
-0.06532369140625,-0.22369530517578126,1.357581337890625
-0.26178447265625,-0.05017135009765625,1.0270252587890625
-0.19516287109375,0.0652661962890625,0.83213234375
-0.21607330078125,-0.0960032421875,0.7257154052734375
-0.1171134765625,-0.0175743359375,0.6485446923828125
0.07375498046875,-0.05899460205078125,0.6455954931640625
-0.112736875,-0.08350363525390625,0.737266435546875
-0.15382830078125,-0.13448242431640625,0.7016302783203126
-0.24768208984375,-0.1837455810546875,0.7547158642578125
0.041416757812499996,-0.20972515625,0.8338527099609375
0.15836927734375,-0.093062158203125,1.134916796875
0.11995244140625,-0.046740085449218746,1.3420980419921875
-0.1064151171875,-0.03840701416015625,1.5654998828125
-0.1365650390625,-0.0161037939453125,1.33644541015625
-0.2133987109375,-0.22908729248046875,1.0255506591796875
0.0307183984375,-0.15801109619140624,0.88816712890625
-0.174009296875,0.01649322021484375,1.1250861328125
-0.44122513671875,0.0255615625,1.1641630224609374
-0.44414287109375,-0.24771415771484376,0.8245135791015625
-0.22239505859375,-0.2717330102539062,0.4376769482421875
0.02415349609375,-0.177373232421875,0.3428110400390625
0.11752099609375,-0.0876701708984375,0.38237946289062497
0.154722109375,-0.09722869384765626,0.5158307275390625
0.21988484375,0.04124734375,1.095102607421875
0.14183544921875,0.177517568359375,1.94103125
-0.25108611328125,0.04639424072265625,2.129718558349609
-0.35344996093750003,0.14001874755859375,1.9053950927734375
-0.28415376953125,0.099088662109375,1.2354353369140625
-0.17960162109375,0.09541230712890625,1.0009739990234374
-0.01620849609375,-0.13791368896484374,0.7227662060546876
-0.12854126953125,-0.25090033203125,0.6898334814453125
-0.17692703125,-0.24967488037109375,0.5295936572265625
-0.0743200390625,-0.25065524169921877,0.44775337890625
0.03096154296875,-0.10997339111328125,0.6347817626953125
-0.026177421875,-0.0038492773437499997,0.87047193359375
0.13016451171875,-0.05703387939453125,1.015474228515625
0.21769654296875,-0.0190448779296875,1.4121415234375
0.16371845703125,0.079481435546875,1.750807900390625
0.06257033203125,-0.013162709960937501,1.96954017578125
-0.3349709765625,0.13658748291015624,1.6502893603515625
-0.3408064453125,0.12286242431640625,1.1565442578125
-0.43247193359375,-0.0847290869140625,0.984016103515625
-0.4137498046875,-0.2396261767578125,0.8510563720703125
-0.32889236328125,-0.27663481689453123,0.703842177734375
-0.02982458984375,-0.2700173779296875,0.4824064697265625
0.14669833984375,-0.15703073486328126,0.5104238623046875
0.17927970703125,-0.132276611328125,0.770690693359375
0.24492873046875,-0.13007079833984375,1.23027423828125
0.3098483203125,-0.16683434814453124,1.7407314697265626
-0.218747890625,-0.142080224609375,2.129718558349609
-0.5353220703125,0.08070688720703124,1.4549049121093751
-0.25740787109375,0.1510478125,0.7645465283203124
0.0258555078125,0.0760501708984375,0.57161974609375
0.17806398437499998,0.018699033203125,0.4789657373046875
0.205296171875,-0.100905048828125,0.5364751220703124
0.06013888671875,-0.25653740966796873,0.4927286669921875
-0.0694571484375,-0.26658611328125,0.6436293603515625
-0.11541146484375,-0.3021242114257813,1.161951123046875
-0.26567478515625,-0.31388854736328126,1.5475589208984375
-0.34226531250000003,-0.24575343505859376,1.861894404296875
-0.0821006640625,-0.026397587890625,1.42885365234375
0.0229377734375,0.11207844970703125,1.167849521484375
-0.1190586328125,0.21305566650390625,1.27254609375
-0.10301109375,0.04786478271484375,1.006626630859375
-0.086477265625,-0.004829638671875,0.624213798828125
-0.14580453125,0.030463369140625002,0.48658450195312497
-0.02398912109375,0.05962911865234375,0.4022865576171875
-0.01280447265625,0.0686974609375,0.7522581982421875
-0.1667149609375,0.03021827880859375,1.009575830078125
-0.05559791015625,0.13021513427734374,1.3622509033203125
-0.002106113281250002,0.05227640869140625,1.7790710595703125
-0.2027003515625,0.0672269189453125,2.0322106591796874
-0.5567187890625,0.11011772705078125,1.819131015625
-0.57787236328125,0.09100068115234375,1.342835341796875
-0.469673046875,-0.10213050048828125,0.843437607421875
-0.21412814453125,-0.2327636474609375,0.54212775390625
0.08931623046875001,-0.18840229736328126,0.41236298828125
0.1201955859375,-0.16242272216796874,0.3246243115234375
0.1367294140625,-0.15948163818359376,0.25703849609375
0.10390490234375,-0.1513936572265625,0.5313140234375
0.13843142578125,-0.153844560546875,0.83704767578125
0.078861015625,-0.2425672607421875,1.5615676171875
-0.04246810546875,-0.371484775390625,2.0061593994140625
-0.16112263671875,-0.11046357177734376,1.996574501953125
-0.1472633984375,0.0883046875,1.3514371728515624
-0.12416466796875,0.02433611083984375,0.9356000830078125
0.0010547656249999988,0.0025230712890624996,0.7237492724609375
-0.039307226562500006,0.05962911865234375,0.740215634765625
-0.2328502734375,-0.02615249755859375,0.812962548828125
-0.16063634765625,-0.15286419921875,0.7475886328125
0.11168552734375001,-0.08938580322265625,0.863098935546875
0.0020273437500000005,-0.07222947998046875,1.0830600439453124
-0.08380267578125,0.0035034326171875,1.2074179443359374
-0.12805498046875,0.19295825927734375,1.256325498046875
-0.16258150390625,0.16354741943359374,1.248460966796875
-0.2192341796875,0.09688284912109375,1.2349438037109375
0.020506328125,0.04100225341796875,1.30498728515625
-0.03128345703125,-0.198941181640625,1.2929447216796874
-0.15747546875,-0.1592365478515625,1.0216183935546874
-0.21364185546875,-0.26192939697265627,0.6731213525390625
-0.2022140625,-0.21977385986328124,0.5005931982421875
0.0268280859375,-0.2371752734375,0.4774911376953125
0.16566361328125,-0.19403937500000001,0.7876485888671875
0.15934185546875,-0.0386521044921875,1.205697578125
-0.292663828125,-0.15163874755859374,1.5038124658203125
-0.27053767578125,-0.296977314453125,1.256325498046875
0.06451548828125,-0.136198056640625,1.0201437939453124
-0.0466015625,0.0476196923828125,0.856217470703125
-0.15747546875,0.11158826904296874,0.9501003125
0.090531953125,0.055462583007812497,1.1395863623046876
-0.1540714453125,0.13609730224609376,1.4374554833984374
-0.30166017578125,0.0436982470703125,1.3506998730468749
-0.455084375,-0.1239435400390625,0.8893959619140624
-0.28585578125,-0.0881603515625,0.5509753515625
-0.19175884765625,-0.1386489599609375,0.364192734375
-0.01231818359375,-0.1896277490234375,0.200512177734375
0.1124149609375,-0.1170810107421875,0.375497998046875
0.197515546875,-0.11389483642578124,0.59324720703125
0.3117934765625,-0.0455146337890625,1.2029941455078126
0.16420474609375,-0.01046671630859375,2.066372216796875
-0.461892421875,-0.25114542236328125,2.1139894958496095
-0.4857205859375,-0.196980458984375,1.6296449658203125
-0.14969484375,0.12678386962890625,0.8913620947265625
-0.05073501953125,0.07090327392578125,0.6917996142578124
0.0715666796875,-0.0602200537109375,0.6514938916015625
0.076915859375,0.06109966064453125,0.6669771875
0.058193730468749996,0.11403917236328125,0.7812586572265625
-0.002106113281250002,0.02727719482421875,1.073475146484375
-0.1788721875,-0.10164031982421876,1.394937861328125
-0.2882872265625,-0.05164189208984375,1.443108115234375
0.10876779296875,0.1270289599609375,1.2961396875
0.14621205078125,0.19295825927734375,1.42295525390625
-0.01912623046875,0.0255615625,1.542397822265625
-0.27588685546875,-0.12369844970703125,1.3256316796875
-0.2659179296875,-0.220509130859375,1.0486527197265625
-0.253760703125,-0.249919970703125,0.8043607177734375
-0.08355953125,-0.24281235107421875,0.548517685546875
0.09612427734375,-0.11536537841796875,0.543602353515625
-0.03128345703125,-0.17026561279296876,0.6510023583984375
-0.0013766796875,-0.1317864306640625,0.7807671240234375
-0.054868476562500004,-0.03399538818359375,1.1381117626953126
-0.16404037109375,-0.0881603515625,1.309411083984375
-0.052680175781250005,0.0397768017578125,1.2895039892578124
-0.04295439453125,0.17090012939453125,1.198324580078125
-0.115654609375,0.1760470263671875,1.07691587890625
-0.2756437109375,0.07065818359375,0.934862783203125
-0.2561921484375,-0.09281706787109376,0.7974792529296875
0.06013888671875,-0.0396324658203125,0.810013349609375
-0.24914095703125,0.059874208984374996,0.8495817724609375
-0.29436583984375,-0.013652890625,0.7286646044921875
-0.259596171875,-0.10605194580078126,0.539670087890625
0.11314439453125,-0.1102184814453125,0.534754755859375
0.19386837890625,-0.00262382568359375,0.7790467578125
0.1882760546875,-0.0386521044921875,1.1754682861328125
0.06427234375,-0.20653898193359374,1.42983671875
-0.21655958984375,-0.15801109619140624,1.6001529736328126
-0.329621796875,-0.13840386962890625,1.2624696630859376
-0.15139685546875,-0.0317895751953125,0.937811982421875
-0.026177421875,0.08560869384765625,0.974185439453125
-0.11638404296875,0.00399361328125,1.0235845263671874
-0.096203046875,-0.04772044677734375,0.9719735400390626
0.05576228515625,-0.08497417724609375,0.89799779296875
0.0550328515625,-0.10262068115234375,0.9410069482421874
-0.009886738281250002,0.032424091796875,1.0761785791015626
-0.10374052734375,0.111833359375,1.145238994140625
0.003729355468750001,0.080461796875,1.0835515771484374
-0.129270703125,0.06624655761718751,1.09264494140625
-0.12610982421875,-0.037916833496093746,1.1494170263671875
-0.017181074218750002,-0.09796396484375,0.984999169921875
-0.1710915625,-0.08056255126953125,0.9127437890625
-0.1064151171875,-0.1425704052734375,0.9110234228515625
-0.156502890625,0.0289928271484375,0.9818042041015624
-0.0986344921875,-0.13448242431640625,1.16539185546875
-0.33715927734375,-0.13987441162109376,1.284342890625
-0.18057419921875,-0.0464949951171875,0.952557978515625
-0.061676523437500005,-0.0798272802734375,0.6180696337890625
0.1479140625,-0.1180613720703125,0.5099323291015625
0.1688244921875,-0.06977857666015624,0.549500751953125
0.1571535546875,-0.0092412646484375,0.8594124365234375
-0.0543821875,0.055952763671875,1.410175390625
-0.1171134765625,-0.04772044677734375,1.581720478515625
-0.10495625,0.059874208984374996,1.7267227734375
-0.24184662109375,0.11747043701171875,1.375276533203125
-0.23552486328125,-0.02737794921875,1.1703071875
-0.304334765625,-0.00850599365234375,1.0073639306640625
-0.2600824609375,-0.01487834228515625,0.8019030517578125
-0.16914640625,-0.10899302978515625,0.706791376953125
-0.01231818359375,-0.1523740185546875,0.6205272998046875
-0.0791829296875,-0.1533543798828125,0.61290853515625
-0.05632734375,-0.1847259423828125,0.5040339306640624
-0.04733099609375,-0.10213050048828125,0.40843072265625
0.08542591796875,0.0436982470703125,0.6286375976562499
0.0623271875,0.16869431640625,0.9717277734375
0.0467659375,0.29442565673828125,1.5065158984375
-0.097175625,0.38633453125,2.08947427734375
-0.3738741015625,0.28903366943359377,2.1270765673828125
-0.568876015625,0.03904153076171875,1.628907666015625
-0.41618125,0.05913893798828125,1.2821309912109375
-0.3116291015625,-0.08350363525390625,1.0029401318359374
-0.273212265625,-0.077376376953125,0.891607861328125
-0.214857578125,-0.1376685986328125,0.841471474609375
-0.11832919921875,-0.28496788818359375,0.749063232421875
-0.11930177734375,-0.2955067724609375,0.6775451513671875
-0.11322316406249999,-0.18840229736328126,0.5433565869140625
0.069135234375,-0.1347275146484375,0.3958966259765625
0.0881005078125,-0.11438501708984375,0.43202431640625
0.11265810546874999,-0.09085634521484375,0.616349267578125
0.10974037109375,-0.018554697265625,1.0110504296875
-0.07748091796875001,0.10129447509765625,1.6512724267578125
-0.41204779296875,0.046149150390625,1.9766674072265624
-0.5110076171875,0.11501953369140624,1.580737412109375
-0.40232201171875,0.1079119140625,1.2398591357421875
-0.45581380859375,0.042227705078125,1.0865007763671874
-0.42469130859375,-0.09281706787109376,0.787402822265625
-0.30530734375,-0.15286419921875,0.498381298828125
-0.16112263671875,-0.085219267578125,0.3020137841796875
0.05065625,-0.05482806640625,0.2159954736328125
0.086641640625,-0.0371815625,0.1892069140625
0.08104931640625,-0.0249270458984375,0.358785869140625
0.059409453125,-0.02860340087890625,0.6075016699218749
-0.12027435546875,-0.05556333740234375,1.1386032958984376
-0.27029453125,-0.0925719775390625,1.7151717431640625
-0.28658521484375,-0.1494329345703125,2.0199223291015627
-0.46797103515625,0.0623251123046875,1.71787517578125
-0.45630009765625,0.2025167822265625,1.2902412890625
-0.430769921875,0.10913736572265625,0.8613785693359375
-0.317950859375,0.07286399658203124,0.659604189453125
-0.26713365234374997,0.11501953369140624,0.577026611328125
-0.2425760546875,0.1309504052734375,0.6170865673828125
-0.028122578125000002,0.1240878759765625,0.500347431640625
0.010537402343749998,0.0927163134765625,0.578009677734375
-0.0597313671875,-0.03742665283203125,0.7424275341796875
-0.032012890625,-0.16634416748046876,0.9021758251953125
0.02609865234375,-0.142080224609375,1.1292641650390625
-0.12465095703125,0.00791505859375,1.5495250537109375
-0.37606240234375,-0.0670825830078125,1.5908138427734375
-0.3811684375,-0.19967645263671874,1.4369639501953124
-0.34250845703125,-0.02174087158203125,1.309411083984375
-0.50201126953125,0.05325677001953125,1.147205126953125
-0.46845732421874997,0.0338946337890625,0.9650920751953125
-0.36001486328125,-0.01169216796875,0.6952403466796875
-0.09985021484375001,-0.03154448486328125,0.5467973193359374
0.014670859375000001,0.01110123291015625,0.54212775390625
0.057464296875,0.049090234375,0.5902980078125
-0.004051269531250002,0.16477287109375,0.8166490478515624
-0.03031087890625,0.226535634765625,1.1735021533203125
-0.09523046875,0.0780108935546875,1.4802188720703124
-0.26640421875,0.1093824560546875,1.8070884521484376
-0.32451576171875,0.218692744140625,1.6434078955078124
-0.47429279296875,0.09026541015625,1.3177671484375
-0.446331171875,0.07531489990234375,1.1263149658203124
-0.42274615234375,0.04296297607421875,1.0624156494140624
-0.37265837890625,-0.1180613720703125,1.1056705712890624
-0.28901666015625,-0.14109986328125,1.16342572265625
-0.4263933203125,-0.2528610546875,1.0692971142578125
-0.30530734375,-0.311682734375,0.7763433251953125
-0.11468203125,-0.27075264892578127,0.4998558984375
0.05722115234375,-0.1455114892578125,0.4937117333984375
0.1094972265625,0.034384814453125,0.6564092236328125
0.1056069140625,0.15864561279296874,0.9754142724609375
-0.053409609375,0.206928408203125,1.3484879736328126
-0.07748091796875001,-0.17173615478515625,1.3912513623046876
0.014670859375000001,-0.24526325439453125,1.4475319140625
-0.3048210546875,-0.085219267578125,1.656433525390625
-0.43757796875,-0.17761832275390624,1.446057314453125
-0.56766029296875,-0.11095375244140625,1.220935107421875
-0.535808359375,-0.07860182861328124,1.021372626953125
-0.41934212890625,-0.16683434814453124,0.678282451171875
-0.21121041015625,-0.14109986328125,0.531805556640625
-0.05316646484375,-0.16928525146484374,0.4460330126953125
0.0029999218749999987,-0.06536695068359374,0.27399639160156253
-0.01742421875,-0.05850442138671875,0.30938678222656246
0.0297458203125,-0.0210056005859375,0.3919643603515625
-0.0052669921875,0.11207844970703125,0.69351998046875
-0.13097271484375,0.2451625,1.101984072265625
-0.190543125,0.29221984375,1.52912642578125
-0.2513292578125,0.1015395654296875,2.07964361328125
-0.46019041015625,0.25962282958984373,1.7127140771484375
-0.54820873046875,0.16795904541015624,1.1567900244140625
-0.43587595703125,-0.01732924560546875,0.6888504150390625
-0.2746711328125,-0.0033590966796874996,0.4622536083984375
-0.2022140625,0.04320806640625,0.44455841308593746
-0.01863994140625,0.062080021972656246,0.34748060546875
0.042875625,0.08903995849609375,0.4094137890625
-0.06848457031249999,0.16648850341796875,0.623230732421875
-0.004780703125000001,-0.02149578125,0.95108337890625
-0.0295814453125,-0.0254172265625,1.12410306640625
0.016372871093749998,0.0387964404296875,1.4251671533203125
-0.23844259765625,0.1907524462890625,1.7279516064453124
-0.3544225390625,0.15913579345703124,1.68051865234375
-0.4594609765625,0.18438009765625,1.576805146484375
-0.48304599609375,0.09688284912109375,1.3381657763671875
-0.49593265625,0.0191892138671875,1.0968229736328126
-0.42371873046874997,-0.06291604736328126,0.810013349609375
-0.24136033203125,-0.1219828173828125,0.5350005224609375
-0.21753216796875,-0.15850127685546875,0.462499375
-0.10325423828125,-0.189137568359375,0.4017950244140625
0.01369828125,-0.17418705810546875,0.6234764990234375
-0.0558410546875,-0.06732767333984375,0.9326508837890625
-0.33132380859375,0.06673673828125,1.2491982666015624
-0.2989855859375,-0.03595611083984375,1.28532595703125
-0.36682291015625,0.095167216796875,1.16735798828125
-0.35588140625,0.06257020263671875,0.9724650732421874
-0.2377131640625,0.13266603759765624,0.746114033203125
-0.174981875,0.15178308349609376,0.5905437744140625
-0.1166271875,0.16403760009765625,0.58145041015625
-0.11346630859375,0.20570295654296875,0.6964691796875
-0.23795630859375,0.18045865234375,0.8608870361328125
-0.3563676953125,0.12433296630859375,0.98450763671875
-0.24087404296875,-0.03056412353515625,0.9301932177734376
-0.21266927734375,0.0436982470703125,0.895540126953125
-0.15285572265625,-0.05703387939453125,0.8026403515625
-0.06580998046875,-0.02027032958984375,0.6573922900390625
-0.20488865234375,0.0035034326171875,0.6318325634765625
-0.08526154296874999,-0.1082577587890625,0.545076953125
0.021965195312499998,-0.12124754638671875,0.5644925146484375
-0.111764296875,-0.12811007568359375,0.7733941259765625
-0.25059982421875,-0.13742350830078126,0.8068183837890625
-0.183735078125,-0.0803174609375,0.74070716796875
-0.16549923828125,0.06845237060546874,0.781504423828125
-0.15188314453125001,0.06355056396484375,0.8564632373046875
-0.21364185546875,-0.0347306591796875,0.914218388671875
-0.1550440234375,0.09884357177734375,0.9282270849609375
-0.18203306640625,0.0682072802734375,0.9007012255859375
-0.18738224609375,0.00766996826171875,0.832623876953125
-0.30117388671875,-0.02713285888671875,0.8790737646484375
-0.02009880859375,-0.1327667919921875,0.911269189453125
-0.21655958984375,-0.1602169091796875,0.9749227392578125
-0.11832919921875,-0.1994313623046875,0.8830060302734375
-0.244034921875,-0.14575657958984375,0.7021218115234376
-0.20051205078125,-0.14526639892578125,0.48117763671875
0.06159775390625,-0.050661530761718754,0.4883048681640625
0.01783173828125,0.034384814453125,0.81345408203125
-0.24938410156250002,0.04712951171875,1.1388490625
-0.31235853515625,-0.006790361328125,1.37183580078125
-0.23406599609375,-0.0553182470703125,1.37576806640625
-0.2766162890625,-0.0308092138671875,1.18898544921875
-0.17692703125,-0.05213207275390625,0.951574912109375
-0.03711892578125,0.03144373046875,1.040050888671875
-0.21558701171875,0.0054641552734375,1.2437914013671876
-0.321841171875,-0.01291761962890625,1.326123212890625
-0.325731484375,-0.00654527099609375,1.019406494140625
-0.30360533203125,-0.1043363134765625,0.9095488232421876
-0.32305689453124997,-0.07173929931640625,0.81640328125
-0.20975154296875,-0.01634888427734375,0.694503046875
-0.100093359375,-0.0219859619140625,0.6342902294921875
-0.13778076171875,-0.12712971435546874,0.79182662109375
-0.07602205078125,-0.18497103271484375,1.01006736328125
-0.11298001953125,-0.13742350830078126,1.3506998730468749
-0.37581925781250003,-0.09918941650390625,1.528143359375
-0.22093619140625,-0.038161923828125,1.3484879736328126
-0.299471875,-0.03301502685546875,1.04545775390625
-0.28123603515625,-0.18202994873046874,0.9606682763671874
-0.26032560546875,-0.11340465576171875,0.8874298291015625
-0.1355924609375,-0.1504132958984375,0.7512751318359375
-0.02496169921875,-0.22369530517578126,0.6677144873046875
-0.11857234375,-0.2214894921875,0.6342902294921875
-0.1073876953125,-0.23202837646484376,0.73874103515625
-0.21947732421875,-0.1945295556640625,0.9621428759765625
-0.24184662109375,-0.11193411376953125,1.103458671875
-0.28123603515625,-0.03840701416015625,1.1862820166015624
-0.26275705078125,-0.0817880029296875,1.074458212890625
-0.263486484375,-0.020515419921875,1.032677890625
-0.26129818359375,0.07065818359375,0.799199619140625
-0.10276794921875,0.13070531494140625,0.6706636865234374
-0.152612578125,0.21991819580078126,0.79772501953125
-0.1958923046875,0.29197475341796875,0.9501003125
-0.131215859375,0.35226697509765625,1.1329506640625
-0.14896541015625,-0.016593974609375,1.2875378564453124
-0.2104809765625,-0.22173458251953124,1.2639442626953126
-0.19078626953125,-0.0254172265625,1.0638902490234374
-0.2211793359375,-0.23129310546875,0.88620099609375
-0.18640966796875,-0.31192782470703123,0.78986048828125
-0.20415921875,-0.35065209716796875,0.749554765625
-0.1633109375,-0.35212263916015624,0.605535537109375
-0.15188314453125001,-0.32369216064453127,0.4573382763671875
-0.13000013671875,-0.31486890869140627,0.3664046337890625
0.031934121093750004,-0.18742193603515625,0.31012408203124997
0.105120625,-0.0729647509765625,0.5939845068359375
0.102202890625,-0.0239466845703125,0.922574453125
-0.09352845703125,-0.042083369140625,1.1710444873046875
-0.4818302734375,-0.10262068115234375,1.4300824853515626
-0.35806970703125,-0.15801109619140624,1.4561337451171874
-0.076751484375,0.0280124658203125,1.31875021484375
-0.4711319140625,-0.02370159423828125,1.0818312109375
-0.31770771484375,-0.22026404052734375,0.8392595751953125
-0.28074974609375003,-0.30310457275390623,0.623230732421875
-0.18203306640625,-0.3222216186523438,0.58931494140625
-0.1477496875,-0.35212263916015624,0.39466779296875
-0.14167107421875,-0.2629097583007812,0.31307328125
-0.1219763671875,-0.08227818359375,0.2705556591796875
0.008349101562499999,-0.00850599365234375,0.42415978515624997
-0.0016198242187499996,0.08364797119140625,0.7436563671875001
-0.10714455078125,0.18168410400390625,1.2676307617187499
-0.1424005078125,0.04590406005859375,1.7382738037109375
-0.3602580078125,-0.00360418701171875,1.843216142578125
-0.323786328125,0.0907555908203125,1.8503433740234374
-0.5197608203125,0.0451687890625,1.3401319091796875
-0.47964197265624997,0.03610044677734375,1.2639442626953126
-0.50055240234375,-0.08252327392578125,0.9363373828125
-0.50492900390625,-0.07051384765625,0.922082919921875
-0.40913005859375,-0.16291290283203125,0.8766160986328125
0.001784199218750001,-0.093062158203125,0.600128671875
0.0467659375,-0.08938580322265625,0.5104238623046875
0.058436875,-0.18202994873046874,0.5300851904296875
0.0404441796875,-0.22418548583984374,0.8849721630859375
-0.02107138671875,-0.22467566650390625,1.4507268798828126
-0.33813185546875,-0.259723583984375,1.9343955517578124
-0.61823435546875,-0.3374172192382813,2.0395836572265624
-0.4604335546875,-0.1994313623046875,1.5426435888671874
-0.392839375,-0.13154134033203124,1.2364184033203125
-0.397702265625,-0.13497260498046876,0.784453623046875
-0.2843969140625,-0.15556019287109374,0.684180849609375
-0.10519939453125,-0.01095689697265625,0.806081083984375
-0.21364185546875,-0.33521140625,0.9994993994140625
-0.1735230078125,-0.2450181640625,1.217494375
-0.15917748046875,-0.030073942871093752,1.3519287060546874
-0.06191966796875,0.040266982421875,1.133442197265625
-0.1336473046875,-0.1710008837890625,1.078390478515625
-0.10471310546875,-0.023456503906250002,0.9700074072265625
-0.2279873828125,-0.07615092529296875,0.984999169921875
-0.325731484375,-0.1151202880859375,0.8923451611328125
-0.352963671875,-0.0386521044921875,0.7082659765625
-0.32889236328125,-0.13154134033203124,0.588823408203125
-0.29679728515625,-0.1161006494140625,0.51755109375
-0.2989855859375,-0.0288484912109375,0.52050029296875
-0.060947089843749996,0.0064445166015625,0.6121712353515625
0.0545465625,-0.2033528076171875,0.9346170166015625
-0.016451640625,-0.33545649658203125,1.371344267578125
-0.18884111328125,-0.41167958984375,1.4743204736328126
-0.1278118359375,-0.34526010986328126,1.3642170361328125
-0.07310431640625001,-0.20310771728515625,1.137374462890625
-0.30068759765624997,-0.25114542236328125,0.96288017578125
-0.181789921875,-0.17663796142578125,0.8318865771484375
0.0003253320312500002,-0.0925719775390625,0.6829520166015625
-0.09401474609375,-0.05801424072265625,0.8033776513671875
-0.1939471484375,-0.0141430712890625,0.653705791015625
-0.2202067578125,0.0564429443359375,0.58046734375
-0.2644590625,0.04051207275390625,0.5846453759765625
-0.28196546875,0.0231106591796875,0.4514398779296875
-0.25254498046875,0.03757098876953125,0.3998288916015625
-0.06921400390625,-0.2371752734375,0.8778449316406249
-0.1637972265625,-0.304820205078125,1.073475146484375
-0.09547361328125001,-0.37810221435546876,1.0742124462890625
-0.09450103515625,-0.15678564453125,1.3570898046875
-0.34153587890625,-0.191098291015625,1.4895580029296875
-0.413263515625,-0.3425641162109375,1.0865007763671874
-0.224583359375,-0.08791526123046875,1.0948568408203125
-0.084532109375,0.14345001220703124,1.0363643896484376
0.0443344921875,0.11158826904296874,0.978117705078125
-0.06386482421875,-0.13546278564453124,1.0216183935546874
-0.009643593750000002,-0.18153976806640626,1.28827515625
-0.28269490234375,-0.144040947265625,1.3917428955078126
-0.31868029296875,-0.1979608203125,1.4713712744140626
-0.11930177734375,-0.146001669921875,1.544363955078125
-0.22579908203125,-0.0974737841796875,1.4261502197265625
-0.284883203125,-0.09379742919921875,1.2671392285156249
-0.41399294921875,-0.13497260498046876,1.0530765185546875
-0.2299325390625,-0.130315888671875,0.917167587890625
-0.024475410156250002,-0.1190417333984375,0.900455458984375
-0.006239570312500001,-0.00777072265625,1.1223827001953124
0.0701078125,-0.204823349609375,1.4163195556640624
-0.24525064453125,-0.2214894921875,1.870742001953125
-0.51149390625,-0.165608896484375,1.78275755859375
-0.32086859375,-0.08619962890625,1.375276533203125
-0.38238416015625,-0.106787216796875,1.1661291552734374
-0.3495596484375,0.013552136230468751,1.103950205078125
-0.3242726171875,-0.0371815625,1.0661021484375
-0.33642984375,-0.0749254736328125,1.0786362451171876
-0.2960678515625,-0.0670825830078125,0.968287041015625
-0.2600824609375,-0.0808076416015625,0.89504859375
-0.16793068359375,-0.01095689697265625,0.9036504248046875
-0.20440236328125,-0.18497103271484375,0.789368955078125
-0.11930177734375,0.04933532470703125,0.814928681640625
-0.1783858984375,0.07261890625,0.8245135791015625
-0.30992708984375,-0.04919098876953125,0.907336923828125
-0.34250845703125,-0.08056255126953125,0.958456376953125
-0.40864376953125,-0.11781628173828125,0.9370746826171875
-0.2659179296875,-0.23104801513671874,0.854251337890625
-0.2411171875,-0.20016663330078124,0.846386806640625
-0.20926525390625,-0.10605194580078126,0.946168046875
-0.237226875,-0.22957747314453125,1.0575003173828126
-0.3767918359375,-0.30114385009765626,1.1368829296875
-0.3592854296875,-0.21634259521484375,1.0570087841796876
-0.1910294140625,-0.22320512451171876,0.8259881787109375
-0.15066742187499998,-0.052867343750000004,0.7043337109375
-0.03298546875,-0.2102153369140625,0.687130048828125
-0.146777109375,-0.15654055419921875,0.7928096875
-0.3033621875,-0.0700236669921875,0.8014115185546875
-0.166228671875,-0.175412509765625,0.6893419482421875
-0.2260422265625,-0.106787216796875,0.760860029296875
-0.2406308984375,-0.0464949951171875,0.805098017578125
-0.32743349609375,-0.09134652587890625,0.828691611328125
-0.13972591796875,-0.05654369873046875,0.977134638671875
-0.12173322265625,0.11943115966796874,1.1749767529296875
-0.39016478515624997,-0.042328459472656246,1.0700344140625
-0.199296328125,-0.08423890625,0.9070911572265625
-0.1920019921875,-0.1038461328125,0.84884447265625
-0.016451640625,-0.1102184814453125,0.9459222802734375
-0.13826705078125,-0.09379742919921875,1.1447474609375
-0.20026890625,-0.1396293212890625,1.2312573046875
-0.092312734375,-0.01144707763671875,1.276969892578125
-0.3485870703125,-0.0906112548828125,1.07101748046875
-0.2902323828125,-0.06291604736328126,0.8603955029296875
-0.26324333984375,0.02678701416015625,0.868014267578125
-0.13583560546875,0.11845079833984375,0.91569298828125
-0.1944334375,-0.03742665283203125,0.996795966796875
-0.24281919921875,-0.067572763671875,1.119679267578125
-0.25546271484375,-0.0935523388671875,0.93732044921875
-0.2338228515625,-0.01193725830078125,0.924049052734375
-0.090367578125,-0.1308060693359375,0.9282270849609375
-0.2177753125,-0.11683592041015625,0.9641090087890625
-0.206104375,0.00717978759765625,1.0171945947265626
-0.24087404296875,-0.22810693115234376,1.00613509765625
-0.074806328125,-0.10654212646484375,1.051847685546875
-0.35101851562499997,-0.07124911865234375,1.0614325830078124
-0.39016478515624997,-0.09526797119140624,0.9835245703125
-0.1579617578125,-0.20555862060546876,0.8815314306640625
-0.15480087890625,0.010611052246093749,0.9021758251953125
-0.1968648828125,0.028502646484374998,0.8572005371093749
-0.24622322265625,-0.132276611328125,0.945676513671875
-0.30895451171875,-0.0033590966796874996,0.88423486328125
-0.33667298828125003,-0.091101435546875,0.68565544921875
-0.02301654296875,-0.05115171142578125,0.7050710107421875
-0.04271125,-0.19477464599609376,0.8210728466796875
-0.218747890625,-0.224430576171875,0.84884447265625
-0.25351755859375,-0.06144550537109375,0.871455
-0.1676875390625,-0.0567887890625,0.867031201171875
-0.2085358203125,0.0765403515625,0.9827872705078124
-0.28707150390625,-0.055073156738281254,0.930930517578125
-0.0388209375,0.1471263671875,1.0953483740234375
-0.0743200390625,0.21109494384765626,1.4212348876953125
-0.086477265625,0.26403445556640626,1.451955712890625
-0.35661083984374997,0.0922261328125,1.40722619140625
-0.434660234375,-0.06340622802734375,1.278936025390625
-0.40037685546875,-0.13252170166015625,0.994829833984375
-0.2027003515625,-0.2214894921875,0.7158847412109375
-0.009400449218749999,-0.1504132958984375,0.5030508642578125
0.06646064453125,-0.169530341796875,0.415803720703125
0.0511425390625,-0.1866866650390625,0.3437941064453125
0.04117361328125,-0.18742193603515625,0.4362023486328125
0.031204687499999998,-0.2366850927734375,0.7239950390625
-0.195406015625,-0.07713128662109375,1.003677431640625
-0.1735230078125,0.00987578125,1.153103525390625
-0.20634751953125,0.21501638916015625,1.5745932470703126
-0.43587595703125,0.13462676025390624,1.5401859228515624
-0.53945552734375,-0.08007237060546875,1.16932412109375
-0.29752671875000003,0.10325519775390625,0.819844013671875
0.01588658203125,0.09590248779296875,0.548517685546875
0.016372871093749998,-0.07370002197265625,0.9567360107421875
-0.21023783203125002,-0.07468038330078125,1.2049602783203124
-0.16355408203125,-0.013162709960937501,1.12606919921875
-0.07966921874999999,-0.0612004150390625,0.970253173828125
-0.14021220703125,-0.048455717773437504,0.9867195361328125
-0.119544921875,-0.107767578125,0.9459222802734375
0.010294257812499999,-0.2136466015625,0.8717007666015625
0.03314984375,-0.08350363525390625,0.99040603515625
-0.0500055859375,-0.244037802734375,1.1388490625
0.001541054687499998,-0.34918155517578126,1.3519287060546874
-0.25084296875,-0.3641320654296875,1.4630152099609375
-0.337402421875,0.00766996826171875,1.5161007958984376
-0.224583359375,0.05889384765625,1.519787294921875
-0.3680386328125,0.016738310546875,1.4745662402343749
-0.56595828125,-0.136198056640625,1.5087277978515625
-0.52389427734375,-0.18521612304687501,1.0860092431640624
-0.1205175,-0.120512275390625,0.5411446875
0.0701078125,-0.14771730224609375,0.3187259130859375
0.09490855468750001,-0.11585555908203125,0.2046902099609375
0.0890730859375,-0.11879664306640625,0.2897254541015625
0.09223396484375,-0.1249239013671875,0.525907158203125
0.1435374609375,-0.0543378857421875,0.9877026025390625
-0.018883085937500002,-0.07468038330078125,1.8090545849609374
-0.15042427734375,-0.06781785400390625,2.129718558349609
-0.3690112109375,0.1015395654296875,2.129718558349609
-0.63598390625,0.057913486328125,1.7790710595703125
-0.43004048828125,-0.15310928955078124,0.7212916064453125
-0.18543708984375,-0.1455114892578125,0.247699365234375
0.005674511718750001,-0.14281549560546875,0.176918583984375
0.0968537109375,-0.12222790771484375,0.26809799316406246
0.14378060546875,-0.0553182470703125,0.3374041748046875
0.1250584765625,-0.10213050048828125,0.5856284423828125
-0.25594900390624997,-0.15261910888671876,0.745130966796875
-0.3111428125,-0.1435507666015625,1.0697886474609375
-0.2133987109375,-0.0229663232421875,1.2634527294921876
0.07083724609375,0.12335260498046875,1.2233927734375
-0.2571647265625,0.2956511083984375,1.664298056640625
-0.35758341796875,-0.0641414990234375,1.4522014794921876
-0.17376615234375,0.0231106591796875,0.8151744482421874
0.024396640625,-0.13644314697265625,0.5920183740234375
-0.05073501953125,-0.14036459228515624,0.682214716796875
-0.1151683203125,-0.14183513427734376,0.7576650634765625
-0.055354765624999996,0.14418528320312501,0.9950756005859375
-0.21412814453125,0.0427178857421875,1.0938737744140625
-0.032012890625,-0.2151171435546875,0.8721922998046875
-0.03031087890625,0.08511851318359374,0.882760263671875
0.025612363281249998,-0.10213050048828125,0.6849181494140625
-0.059245078125,-0.11879664306640625,0.638959794921875
0.09928515625,-0.065612041015625,0.6768078515625
0.09709685546874999,-0.0151234326171875,0.7994453857421875
0.04555021484375,-0.2308029248046875,0.912252255859375
0.151804375,-0.2268814794921875,1.32268248046875
0.18560146484375,-0.0759058349609375,1.9036747265625
-0.41885583984375,-0.00850599365234375,2.129718558349609
-0.6768321875,0.063795654296875,1.6815017187499999
-0.496905234375,0.03806116943359375,1.180629384765625
-0.1540714453125,0.101049384765625,0.760860029296875
0.164447890625,-0.083258544921875,0.592264140625
0.1843857421875,-0.04772044677734375,0.598654072265625
0.09709685546874999,-0.05115171142578125,0.546551552734375
-0.1521262890625,-0.0680629443359375,0.4897794677734375
-0.19637859375,-0.00581,0.4981355322265625
-0.119544921875,0.05717821533203125,0.657638056640625
0.054789707031249996,0.044188427734375,1.0810939111328124
0.1017166015625,0.0373258984375,1.541414755859375
-0.096203046875,-0.018554697265625,1.717383642578125
-0.46116298828125,-0.15997181884765624,1.288766689453125
-0.42031470703125,-0.1180613720703125,0.8933282275390625
-0.32646091796875,0.042227705078125,0.9695158740234375
-0.18081734375,0.03855135009765625,1.169815654296875
-0.0772377734375,-0.169530341796875,1.4354893505859374
-0.1910294140625,-0.255802138671875,1.2968769873046875
-0.09109701171875,-0.2621744873046875,0.91077765625
0.10876779296875,-0.157766005859375,0.8107506494140625
0.16225958984375,-0.0543378857421875,1.1238572998046874
0.086641640625,0.12335260498046875,1.5426435888671874
-0.12756869140625,0.1554594384765625,1.7343415380859375
-0.485234296875,0.0008074389648437498,1.526668759765625
-0.34639876953125,0.0574233056640625,1.009575830078125
-0.1589343359375,-0.09967959716796874,0.8156659814453124
-0.08137123046875,-0.312663095703125,0.628146064453125
-0.17303671874999998,-0.12761989501953125,0.7719195263671875
-0.067025703125,0.15080272216796875,0.983033037109375
-0.15164,-0.118551552734375,1.127052265625
-0.10374052734375,-0.21879349853515626,1.3479964404296876
0.05041310546875,-0.069533486328125,1.4767781396484374
0.13162337890625,-0.1901179296875,1.3701154345703126
0.11168552734375001,-0.22320512451171876,1.3037584521484376
-0.234309140625,0.04541387939453125,1.31481794921875
-0.35563826171875,-0.1602169091796875,1.2393676025390625
-0.24768208984375,-0.17173615478515625,1.0592206835937499
-0.131215859375,-0.26094903564453126,0.6529684912109375
0.10925408203125,-0.2013920849609375,0.5249240917968749
0.1338116796875,0.00325834228515625,0.6981895458984375
-0.031769746093749995,-0.09085634521484375,1.0796193115234376
-0.05073501953125,-0.253841416015625,1.44065044921875
-0.2630001953125,-0.11193411376953125,1.756214765625
-0.5041995703125,0.1162449853515625,1.4553964453125001
-0.36196001953125,-0.09183670654296874,0.7458682666015625
-0.0310403125,-0.11193411376953125,0.44504994628906247
0.090531953125,-0.06144550537109375,0.311598681640625
0.0968537109375,-0.00948635498046875,0.30914101562499996
0.115818984375,0.0010525292968750002,0.44185498046875
0.14086287109375,0.0030132519531249997,0.5802215771484375
0.03825587890625,-0.1611972705078125,0.871455
-0.27394169921875,-0.2141367822265625,0.9936010009765625
-0.36585033203125,-0.2543315966796875,0.9820499707031249
-0.1278118359375,-0.06389640869140625,0.7719195263671875
0.0453070703125,0.14884199951171875,0.8525309716796875
0.024396640625,0.1976149755859375,1.029237158203125
-0.033958046875,0.1574201611328125,1.254359365234375
-0.04538583984375,0.15570452880859376,1.4974225341796874
-0.257651015625,-0.0210056005859375,1.5637795166015624
-0.33278267578125,-0.0504164404296875,1.13098453125
-0.16063634765625,0.062080021972656246,0.796741953125
-0.06532369140625,-0.0964934228515625,0.61880693359375
0.0540602734375,0.010856142578125,0.5915268408203125
0.02804380859375,0.11403917236328125,0.6559176904296875
0.02318091796875,0.033404453125,0.8338527099609375
-0.1034973828125,0.15300853515625001,1.198324580078125
-0.37022693359375003,0.14295983154296876,1.340869208984375
0.0618408984375,-0.0396324658203125,1.21257904296875
0.02707123046875,0.06673673828125,1.348733740234375
-0.11249373046875,0.132420947265625,1.2646815625
-0.009886738281250002,-0.2013920849609375,1.0850261767578124
-0.030067734375000002,0.01845394287109375,1.380191865234375
-0.280992890625,-0.055808427734375,1.4463030810546875
-0.35393625,-0.21389169189453125,1.218968974609375
0.12238388671875,-0.24673379638671875,0.9203625537109374
0.2281517578125,-0.12149263671875,0.85277673828125
0.1970292578125,-0.11879664306640625,0.9734481396484375
-0.057056777343750004,-0.15507001220703126,0.9724650732421874
-0.31819400390625,-0.14134495361328125,0.92159138671875
-0.1297569921875,-0.14575657958984375,0.8972604931640625
0.1377019921875,-0.12933552734375,1.006626630859375
0.12092501953125,-0.13987441162109376,1.4322943847656249
0.039957890625,0.0054641552734375,1.6453740283203124
-0.187625390625,0.11894097900390625,1.71295984375
-0.26275705078125,-0.15016820556640625,1.4453200146484375
-0.4273658984375,-0.00948635498046875,1.291715888671875
-0.35758341796875,0.052031318359375,1.0778989453125
0.0010547656249999988,0.0309535498046875,0.9311762841796875
0.12530162109375,-0.2151171435546875,0.915201455078125
-0.053409609375,-0.09232688720703125,1.001219765625
-0.05632734375,-0.0494360791015625,0.866048134765625
0.0851827734375,-0.18791211669921876,0.642892060546875
0.1678519140625,-0.13007079833984375,0.7478343994140625
0.15763984375,-0.08840544189453126,1.0004824658203124
-0.16063634765625,-0.1857063037109375,1.31088568359375
-0.518301953125,-0.25310614501953127,1.3391488427734375
-0.46505330078125,-0.19379428466796875,0.966320908203125
-0.1744955859375,-0.00703545166015625,0.7586481298828125
-0.060947089843749996,0.034384814453125,0.748080166015625
-0.1599069140625,-0.11561046875,0.5568737500000001
-0.01474962890625,-0.12173772705078124,0.3936847265625
0.10001458984375,-0.04575972412109375,0.44578724609375
0.12238388671875,0.01747358154296875,0.5873488085937499
0.14134916015625,0.0682072802734375,0.906845390625
0.121654453125,0.091245771484375,1.185544716796875
-0.049276152343750004,-0.146001669921875,1.2482152001953124
-0.12416466796875,-0.1660990771484375,1.0304659912109375
-0.08817927734375,0.06281529296875,1.0063808642578125
0.007133378906249998,-0.034240478515625,1.0265337255859375
-0.1783858984375,0.00521906494140625,1.0855177099609374
-0.11832919921875,0.101049384765625,0.995812900390625
0.111928671875,0.0191892138671875,1.0943653076171875
-0.04198181640625,-0.04919098876953125,1.2924531884765624
-0.16209521484375,0.13315621826171875,1.3745392333984374
-0.0363894921875,0.10962754638671875,1.05135615234375
-0.012561328125,-0.06536695068359374,0.8245135791015625
0.01005111328125,-0.21438187255859376,0.6465785595703125
0.15107494140625,-0.1562954638671875,0.6497735253906249
0.13113708984375,-0.19330410400390624,0.770690693359375
0.1804954296875,0.0309535498046875,0.9980247998046875
0.14232173828125,0.130460224609375,1.23420650390625
0.094422265625,-0.05899460205078125,1.4610490771484375
-0.09790505859375,-0.11683592041015625,1.6994426806640626
-0.31138595703125,0.1789881103515625,1.6107209375
-0.3972159765625,0.16305723876953124,1.3111314501953124
-0.41350666015625,-0.10507158447265624,0.8734211328125
-0.179844765625,-0.1513936572265625,0.5649840478515625
0.06889208984375,-0.20065681396484375,0.4932202001953125
0.129435078125,-0.18938265869140625,0.514110361328125
0.18608775390625,-0.015368522949218751,0.819844013671875
0.19386837890625,0.0544822216796875,1.210121376953125
0.162502734375,-0.07320984130859375,1.450972646484375
0.123599609375,-0.1739419677734375,1.5568980517578126
-0.12951384765625001,-0.0857094482421875,1.4679305419921875
-0.32597462890625,0.0858537841796875,1.2133163427734375
-0.4040240234375,0.011346323242187501,1.077407412109375
-0.4273658984375,-0.15850127685546875,0.92355751953125
-0.34348103515625,-0.19036302001953126,0.831640810546875
0.22377515625,-0.06732767333984375,0.906845390625
0.25951740234375,-0.14477621826171874,1.41509072265625
0.0248829296875,-0.3111925537109375,1.73163810546875
-0.2318776953125,-0.22614620849609374,1.7766133935546875
-0.1788721875,-0.17712814208984376,1.1297556982421875
-0.15625974609374998,-0.1219828173828125,0.7065456103515625
-0.07796720703125,-0.03301502685546875,0.6964691796875
0.2417678515625,-0.0680629443359375,0.8540055712890625
0.32419384765625,-0.02370159423828125,1.1852989501953124
0.22255943359375,0.057668395996093746,1.5170838623046876
-0.40645546875,-0.206784072265625,1.197341513671875
-0.3301080859375,-0.2555570483398438,0.797233486328125
-0.257651015625,-0.08889562255859375,0.523941025390625
-0.20877896484375,-0.00409436767578125,0.4642197412109375
0.09928515625,-0.01046671630859375,0.34551447265625
0.16687933593749998,-0.07958218994140626,0.547534619140625
0.11557583984375,-0.2670762939453125,0.7212916064453125
-0.11054857421875,-0.31780999267578125,0.7085117431640625
0.02123576171875,-0.2170778662109375,0.8717007666015625
0.17393052734375,-0.00654527099609375,1.2639442626953126
0.22766546875,-0.020515419921875,1.7382738037109375
-0.11589775390625,-0.0259074072265625,1.8478857080078126
-0.37849384765625,0.14884199951171875,1.343818408203125
-0.33278267578125,0.04198261474609375,0.727435771484375
-0.0334717578125,-0.046249904785156254,0.43595658203125
0.1746599609375,-0.08203309326171875,0.3668961669921875
0.17247166015624998,-0.02664267822265625,0.415803720703125
0.13502740234375,0.09884357177734375,0.6200357666015625
0.12651734375,0.15864561279296874,0.97664310546875
-0.1404553515625,-0.035711020507812496,1.4762866064453124
-0.26470220703125,-0.29477150146484377,1.5733644140625
-0.034687480468750004,-0.0866898095703125,1.49766830078125
0.08882994140625,0.17237067138671874,1.0894499755859375
0.11557583984375,0.13609730224609376,0.9375662158203125
0.09174767578125,0.190262265625,0.929947451171875
-0.0013766796875,-0.14894275390625,0.9936010009765625
-0.206104375,-0.2528610546875,1.1695698876953124
-0.36098744140625,0.09198104248046875,1.2187232080078125
-0.0568136328125,0.01257177490234375,1.086255009765625
0.22985376953125,-0.092081796875,1.259274697265625
0.01005111328125,0.0613447509765625,1.4020650927734375
-0.191515703125,-0.13497260498046876,1.134425263671875
-0.1579617578125,0.09933375244140626,0.9926179345703126
-0.19224513671875,0.02580665283203125,0.8171405810546875
0.014427714843749998,-0.15752091552734376,0.694011513671875
0.22280257812499998,-0.06340622802734375,0.88620099609375
0.0900456640625,-0.03105430419921875,1.2076637109375
0.09904201171875,-0.21634259521484375,1.0786362451171876
-0.2017277734375,-0.31780999267578125,0.8812856640625
-0.3339983984375,-0.15163874755859374,0.6699263867187499
-0.21218298828125,-0.21830331787109375,0.4661858740234375
0.05722115234375,-0.20114699462890626,0.5551533837890625
0.09928515625,7.216796875000007e-05,0.9316678173828125
0.1999469921875,-0.02860340087890625,1.209138310546875
0.0287732421875,-0.02370159423828125,1.421480654296875
-0.16987583984375,-0.06095532470703125,1.46129484375
-0.146777109375,0.0593840283203125,1.03759322265625
-0.17230728515625,0.11967625,0.7434106005859376
-0.0597313671875,0.1289896826171875,0.6854096826171875
0.1804954296875,-0.010711806640625,0.9186421875
0.26243513671875,-0.01978014892578125,1.3391488427734375
-0.05462533203125,0.11403917236328125,1.77489302734375
-0.2172890234375,-0.09281706787109376,1.5559149853515626
-0.33570041015625,0.00570924560546875,1.1602307568359376
-0.32013916015625,-0.0455146337890625,0.822793212890625
-0.0577862109375,-0.230312744140625,0.7655295947265625
0.10925408203125,-0.15212892822265625,0.773148359375
0.13210966796875,-0.022476142578125,0.7797840576171875
0.16420474609375,-0.14624676025390626,0.870963466796875
0.15739669921875,-0.191098291015625,0.9326508837890625
0.1882760546875,-0.16340308349609375,0.95796484375
0.1863308984375,-0.0317895751953125,1.1666206884765624
0.08202189453125,-0.11561046875,1.565008349609375
-0.057543066406249996,-0.091101435546875,1.669704921875
-0.30871136718750003,0.11501953369140624,1.543872421875
-0.341292734375,-0.0141430712890625,1.1604765234375
-0.2099946875,-0.0778665576171875,0.8313950439453125
-0.03760521484375,-0.048455717773437504,0.673367119140625
-0.004537558593750001,-0.1866866650390625,0.63453599609375
0.1386745703125,-0.20384298828125,0.6099593359375
0.1065794921875,-0.134237333984375,0.6249510986328125
0.0881005078125,-0.132276611328125,0.718096640625
0.0822650390625,-0.1778634130859375,0.950591845703125
0.0832376171875,-0.2415868994140625,1.2290454052734374
0.22061427734375,-0.12933552734375,1.3819122314453125
0.26778431640625,-0.02468195556640625,1.585652744140625
-0.0859909765625,-0.0180645166015625,1.6964934814453125
-0.5071173046875,0.030463369140625002,1.2924531884765624
-0.46067669921875,-0.0033590966796874996,0.96484630859375
-0.3578265625,-0.02909358154296875,0.6205272998046875
-0.2503566796875,0.08217742919921875,0.4730673388671875
0.129435078125,0.049090234375,0.494449033203125
0.1950841015625,0.0074248779296875,0.5374581884765625
0.1945978125,0.02776737548828125,0.8154202148437499
0.09661056640625,0.18756627197265624,1.29908888671875
-0.2649453515625,0.050070595703125,1.47997310546875
-0.03687578125,0.00399361328125,1.60580560546875
0.17976599609375,0.126538779296875,1.5195415283203124
0.24979162109375,-0.0602200537109375,1.5485419873046875
-0.3096839453125,0.06158984130859375,1.4679305419921875
-0.352963671875,-0.12909043701171874,1.110831669921875
-0.32281375,-0.04330882080078125,0.6121712353515625
-0.28415376953125,-0.068553125,0.5856284423828125
-0.23941517578125,-0.1180613720703125,0.4617620751953125
-0.04854671875,-0.2239403955078125,0.362718134765625
0.1503455078125,-0.114630107421875,0.7161305078125
0.19654296875,0.0012976196289062499,0.94911724609375
0.11873671875,-0.0254172265625,1.1690783544921874
0.109983515625,-0.19869609130859375,1.24796943359375
0.11825042968749999,-0.13497260498046876,1.3799460986328125
-0.162338359375,0.0191892138671875,1.3086737841796876
-0.27491427734375,0.04884514404296875,1.0638902490234374
0.02415349609375,-0.159726728515625,0.977134638671875
0.11800728515625,-0.09624833251953124,0.99237216796875
-0.02982458984375,-0.10752248779296875,1.118696201171875
-0.01863994140625,-0.30506529541015626,0.9370746826171875
-0.01280447265625,-0.2700173779296875,0.9429730810546875
-0.1404553515625,-0.11879664306640625,0.95698177734375
-0.05413904296875,-0.1455114892578125,0.93928658203125
0.0900456640625,-0.11781628173828125,1.1312302978515625
0.037526445312500004,-0.21389169189453125,1.255342431640625
0.0049450781249999985,0.01404231689453125,1.217985908203125
-0.09547361328125001,-0.02321141357421875,0.8616243359375
0.0482248046875,-0.0121823486328125,0.6337986962890625
0.09661056640625,0.0123266845703125,0.6072559033203125
0.1240858984375,0.03928662109375,0.792318154296875
-0.191515703125,0.0338946337890625,1.0815854443359374
-0.27102396484375,-0.0876701708984375,1.2241300732421876
-0.206104375,-0.11536537841796875,1.1427813281249999
-0.1307295703125,0.04835496337890625,1.00416896484375
0.0268280859375,0.15325362548828125,1.0963314404296876
0.014427714843749998,-0.07370002197265625,1.2629611962890626
0.057464296875,-0.19722554931640626,1.2098756103515624
0.159585,-0.15163874755859374,1.0402966552734374
0.090531953125,-0.27222319091796876,0.818860947265625
0.06816265625,-0.1430605859375,0.6704179199218749
0.14621205078125,0.01453249755859375,0.81148794921875
-0.006482714843750001,-0.1210024560546875,1.095594140625
-0.1015522265625,-0.19722554931640626,1.342835341796875
-0.242089765625,-0.18055940673828125,1.3506998730468749
-0.2017277734375,-0.09722869384765626,1.1644087890625
-0.27783201171875,-0.1038461328125,0.9604225097656249
-0.32257060546875,-0.09281706787109376,0.8078014501953125
-0.19419029296875,0.08070688720703124,0.8304119775390625
0.03825587890625,0.0593840283203125,0.93338818359375
0.10390490234375,-0.06340622802734375,0.9835245703125
0.1401334375,0.04982550537109375,1.1499085595703125
0.1707696484375,0.01575794921875,1.3804376318359375
0.2193985546875,-0.03595611083984375,1.553211552734375
0.2038373046875,-0.15310928955078124,1.673145654296875
-0.1861665234375,-0.1513936572265625,1.562059150390625
-0.2411171875,-0.092081796875,1.2639442626953126
-0.30360533203125,-0.15654055419921875,0.977626171875
-0.30117388671875,-0.20163717529296876,0.8576920703124999
-0.1297569921875,-0.32148634765625,0.8844806298828125
0.17636197265625,-0.24428289306640624,1.12803533203125
0.20942962890625,-0.1553151025390625,1.3652001025390625
0.13405482421875,-0.11879664306640625,1.5741017138671876
-0.1248941015625,-0.26634102294921874,1.4851342041015625
-0.2182616015625,0.004973974609375,1.2639442626953126
-0.3077387890625,-0.092081796875,1.0869923095703125
-0.04441326171875,-0.18399067138671876,0.9183964208984375
0.098312578125,-0.165608896484375,1.058729150390625
0.158612421875,-0.18497103271484375,1.0422627880859374
0.1201955859375,-0.2692821069335937,0.8105048828125
-0.0111024609375,-0.11585555908203125,0.7674957275390625
-0.14215736328125,-0.098944326171875,0.7357918359375
-0.16063634765625,-0.10899302978515625,0.761843095703125
-0.080641796875,0.0750698095703125,0.902913125
-0.17765646484375,0.0927163134765625,1.2781987255859375
-0.23139140625,-0.03301502685546875,1.263206962890625
-0.2882872265625,0.0137972265625,0.9292101513671875
-0.15674603515625,0.11943115966796874,0.7026133447265624
0.039957890625,0.1201664306640625,0.61094240234375
0.0647586328125,0.13903838623046874,0.7473428662109375
0.102202890625,0.18805645263671875,1.1172216015625
0.115818984375,0.16085142578125,1.4708797412109376
0.0404441796875,0.16477287109375,1.8803268994140625
-0.127325546875,0.06698182861328125,1.8208513818359375
-0.33618669921875,0.032424091796875,1.26369849609375
-0.337402421875,-0.0023787353515625003,0.921099853515625
-0.30117388671875,-0.050661530761718754,0.7910893212890625
-0.201241484375,-0.077376376953125,0.738249501953125
0.001541054687499998,-0.0327699365234375,0.6846723828125
-0.08331638671875,-0.0700236669921875,0.6937657470703125
0.02804380859375,-0.09404251953125001,0.5745689453125
0.09734,-0.0259074072265625,0.49592363281249996
0.078861015625,-0.06291604736328126,0.47921150390625
0.09758314453125,-0.091101435546875,0.44406687988281246
0.11387382812499999,-0.05262225341796875,0.5295936572265625
0.125544765625,0.0003172583007812497,0.7443936669921875
0.15982814453125,0.07678544189453125,1.0855177099609374
0.2018921484375,0.15374380615234376,1.47997310546875
0.07910416015624999,0.12237224365234375,1.6615946240234374
-0.310170234375,-0.06879821533203125,1.4757950732421876
-0.30117388671875,0.130460224609375,1.2895039892578124
-0.34056330078125,0.14001874755859375,1.093136474609375
-0.27053767578125,0.16599832275390625,0.9164302880859375
-0.013777050781250001,0.0819323388671875,0.8402426416015625
0.14669833984375,-0.0749254736328125,0.8992266259765624
0.07278240234375,-0.10262068115234375,0.8805483642578125
-0.010129882812500001,-0.1170810107421875,0.6711552197265624
0.01953375,-0.02860340087890625,0.49592363281249996
0.040201035156249995,0.0368357177734375,0.4765080712890625
0.07229611328125,0.0123266845703125,0.610450869140625
0.073998125,0.02139502685546875,0.8687515673828125
0.100257734375,0.0608545703125,1.1312302978515625
-0.02909515625,-0.01144707763671875,1.2118417431640625
-0.2221519140625,0.04247279541015625,1.084288876953125
-0.3476144921875,0.09884357177734375,1.003677431640625
-0.38141158203125003,0.15080272216796875,1.083305810546875
-0.316005703125,0.1471263671875,1.0865007763671874
-0.2814791796875,-0.1004148681640625,1.040050888671875
-0.1803310546875,-0.1553151025390625,0.81738634765625
0.03144783203125,-0.1180613720703125,0.57751814453125
0.09272025390625,-0.0960032421875,0.65223119140625
0.0978262890625,-0.089140712890625,0.731368037109375
0.13040765625,-0.0523771630859375,0.913235322265625
0.09806943359375,0.03512008544921875,1.2310115380859374
-0.03128345703125,-0.0680629443359375,1.23617263671875
-0.17911533203125,-0.09477779052734375,1.0211268603515624
-0.21704587890625,0.087324326171875,1.0179318945312499
-0.23795630859375,0.0417375244140625,1.060695283203125
-0.25497642578125,-0.02223105224609375,1.13000146484375
-0.12270580078125,-0.03595611083984375,1.2280623388671874
-0.20537494140625,-0.02664267822265625,1.3846156640625
-0.259596171875,-0.2058037109375,1.3307927783203124
-0.2931501171875,-0.19477464599609376,1.024813359375
-0.18592337890625,-0.13644314697265625,0.7945300537109374
0.0997714453125,-0.10801266845703125,0.783470556640625
0.16712248046875,-0.151883837890625,0.988931435546875
0.1600712890625,-0.155805283203125,1.1931634814453125
0.09028880859374999,-0.030073942871093752,1.4055058251953125
-0.065080546875,-0.10286577148437501,1.4674390087890625
-0.23990146484375,-0.147962392578125,1.3175213818359375
-0.267376796875,-0.03840701416015625,1.3037584521484376
-0.29363640625,-0.1592365478515625,1.2115959765625
-0.1229489453125,-0.2254109375,1.2265877392578124
-0.1093328515625,-0.1906081103515625,1.3701154345703126
-0.0976619140625,-0.28741879150390626,1.254359365234375
-0.01742421875,-0.18399067138671876,1.189968515625
-0.022530253906250002,-0.028358310546875,1.213562109375
-0.018883085937500002,-0.1337471533203125,1.264190029296875
-0.08744984375,-0.07566074462890625,1.3479964404296876
-0.0587587890625,-0.04919098876953125,1.3878106298828126
-0.08623412109375,-0.1190417333984375,1.3293181787109374
-0.1608794921875,-0.09379742919921875,1.1612138232421876
-0.18251935546875,-0.0180645166015625,1.087729609375
-0.28196546875,-0.034240478515625,1.13000146484375
-0.31746457031249997,0.015022678222656249,1.153103525390625
-0.25886673828125,0.03462990478515625,1.1054248046875
-0.251815546875,0.0008074389648437498,1.0688055810546875
-0.19808060546875,0.00766996826171875,0.9631259423828125
-0.02787943359375,0.04982550537109375,0.8962774267578125
0.02707123046875,0.1103628173828125,1.053813818359375
-0.009886738281250002,-0.008751083984375,1.1644087890625
0.014427714843749998,-0.02419177490234375,1.2000449462890626
-0.089395,0.0701680029296875,1.1499085595703125
-0.0918264453125,-0.08423890625,1.027271025390625
-0.19078626953125,0.02972809814453125,1.0260421923828125
-0.27540056640625,-0.03105430419921875,0.926998251953125
-0.13826705078125,-0.04723026611328125,0.8884128955078126
-0.16695810546875,-0.09379742919921875,0.9655836083984375
-0.076751484375,-0.068553125,1.079865078125
-0.11079171875,-0.1062970361328125,1.0034316650390624
-0.22579908203125,0.0037485229492187503,0.9390408154296875
-0.221665625,-0.06683749267578125,0.7257154052734375
-0.02715,-0.0651218603515625,0.6047982373046875
0.0433619140625,0.00619942626953125,0.810013349609375
-0.15480087890625,0.026296833496093748,1.0511103857421875
-0.1579617578125,0.04712951171875,1.1243488330078124
-0.203186640625,0.08756941650390625,1.030220224609375
-0.20342978515625,0.04296297607421875,0.8235305126953125
0.02172205078125,0.0427178857421875,0.78789435546875
-0.09790505859375,0.11845079833984375,0.9768888720703125
-0.16112263671875,-0.0018885546875000003,1.1801378515625
-0.40329458984375,0.0427178857421875,1.214053642578125
-0.4200715625,0.033404453125,0.9985163330078125
-0.37898013671874997,0.0574233056640625,0.8402426416015625
-0.30627992187499997,0.10717664306640624,0.7397241015625
-0.28609892578125,0.16648850341796875,0.7271900048828125
-0.24622322265625,0.2152614794921875,0.72891037109375
-0.1783858984375,0.23217271240234374,0.74070716796875
-0.24427806640625,0.09418685546875,0.766758427734375
-0.17279357421875,-0.052867343750000004,0.741690234375
-0.2240970703125,-0.05556333740234375,0.8117337158203125
-0.16695810546875,-0.02615249755859375,0.870963466796875
-0.23941517578125,0.07237381591796875,0.942727314453125
-0.21193984375,0.0613447509765625,0.9724650732421874
-0.19832375,-0.04968116943359375,1.0560257177734376
-0.21899103515625,-0.0817880029296875,1.1292641650390625
-0.27029453125,-0.01144707763671875,1.1081282373046875
-0.1788721875,-0.075415654296875,0.977626171875
-0.20391607421875,-0.04870080810546875,0.9154472216796875
-0.31041337890625,-0.05874951171875,0.9360916162109375
-0.27977716796875,-0.10972830078125,0.965337841796875
-0.31235853515625,-0.06438658935546875,0.96484630859375
-0.33253953125,-0.0768861962890625,0.83114927734375
-0.17473873046875,-0.0768861962890625,0.695977646484375
-0.0986344921875,-0.05213207275390625,0.76233462890625
-0.11978806640625,-0.0455146337890625,0.9218371533203125
-0.325731484375,0.0003172583007812497,1.06905134765625
-0.42080099609375,0.02531647216796875,1.0314490576171875
-0.3408064453125,-0.06659240234375,0.9356000830078125
-0.1725504296875,-0.0141430712890625,0.938303515625
-0.15820490234375,-0.035711020507812496,1.030220224609375
-0.12367837890625,-0.0425735498046875,1.1258234326171874
-0.37071322265625,-0.042328459472656246,1.12803533203125
-0.347128203125,-0.124433720703125,0.887675595703125
-0.3233000390625,-0.14036459228515624,0.7306307373046875
-0.2095083984375,-0.234234189453125,0.676316318359375
-0.12854126953125,-0.2555570483398438,0.7043337109375
0.006403945312499999,-0.13154134033203124,0.7773263916015625
-0.09304216796875,-0.134237333984375,0.868997333984375
-0.300444453125,-0.08791526123046875,0.9360916162109375
-0.42128728515625,-0.0411030078125,0.9105318896484375
-0.3962433984375,0.05129604736328125,0.8987350927734374
-0.2668905078125,0.12090170166015625,0.8613785693359375
-0.18227621093750002,0.14099910888671874,0.9631259423828125
-0.02204396484375,0.07335417724609375,1.0747039794921875
-0.11152115234375,-0.02174087158203125,1.2477236669921874
-0.17182099609375,-0.07762146728515625,1.357581337890625
-0.27053767578125,-0.046004814453125,1.210121376953125
-0.16306779296875,0.004973974609375,0.976151572265625
-0.207076953125,-0.029338671875,0.955507177734375
-0.11541146484375,0.024091020507812498,1.089204208984375
-0.22385392578125,0.00766996826171875,1.224867373046875
-0.2007551953125,-0.03252484619140625,1.154578125
-0.27394169921875,0.06355056396484375,1.009084296875
-0.2328502734375,0.0012976196289062499,0.8731753662109375
-0.2338228515625,0.02752228515625,0.7891231884765625
-0.2386857421875,-0.0200252392578125,0.8368019091796874
-0.13194529296875,0.04002189208984375,0.9559987109375
-0.13923962890625,0.06355056396484375,1.139340595703125
-0.063135390625,-0.01095689697265625,1.2351895703125
-0.1210037890625,0.08707923583984375,1.3347250439453124
-0.12027435546875,0.0008074389648437498,1.2197062744140625
-0.16841697265625,-0.0210056005859375,1.09067880859375
-0.19564916015625,0.01159141357421875,1.048406953125
-0.27102396484375,0.00717978759765625,1.128526865234375
-0.24427806640625,-0.00507472900390625,1.222901240234375
-0.32111173828125,-0.0543378857421875,1.2786902587890625
-0.2523018359375,-0.10065995849609374,1.1715360205078125
-0.3106565234375,-0.0553182470703125,0.909303056640625
-0.2659179296875,-0.13399224365234375,0.7733941259765625
-0.0636216796875,-0.1817848583984375,0.6355190625
0.0076196679687500005,-0.07835673828125,0.8023945849609375
-0.016937929687500002,-0.06781785400390625,1.0250591259765625
-0.1725504296875,-0.01683906494140625,1.187510849609375
-0.18154677734375,0.11109808837890625,1.1194335009765626
-0.1890842578125,0.14933218017578126,1.1683410546875
-0.209022109375,0.16624341308593749,1.2236385400390626
-0.1608794921875,0.22947671875,1.249444033203125
-0.11054857421875,0.27972023681640623,1.3506998730468749
-0.20099833984375,0.104970830078125,1.40919232421875
-0.1978374609375,0.08634396484375,1.304495751953125
-0.18592337890625,0.019679394531249998,1.1376202294921876
-0.2386857421875,0.0407571630859375,1.053813818359375
-0.2027003515625,0.04737460205078125,0.9788550048828125
-0.04003666015625,0.0309535498046875,0.9877026025390625
-0.05462533203125,-0.048455717773437504,1.154086591796875
-0.13048642578125,-0.03546593017578125,1.1621968896484376
-0.15528716796875,0.030708459472656248,1.003677431640625
-0.14191421875,0.0309535498046875,0.7947758203124999
-0.1929745703125,0.09835339111328124,0.7753602587890625
-0.15358515625,0.17678229736328124,0.8358188427734374
-0.09085386718749999,0.06257020263671875,1.025304892578125
-0.046358417968749996,0.01183650390625,1.088221142578125
-0.049276152343750004,0.1784979296875,1.0855177099609374
-0.10714455078125,0.0765403515625,1.0643817822265624
-0.2153438671875,0.023845930175781252,1.05233921875
-0.21364185546875,0.10202974609375,1.00613509765625
-0.0879361328125,0.08953013916015624,1.009084296875
-0.044899550781250006,-0.0023787353515625003,1.1243488330078124
-0.15723232421875,-0.0023787353515625003,1.148188193359375
-0.17376615234375,-0.06683749267578125,0.88620099609375
-0.1657423828125,-0.06340622802734375,0.595704873046875
-0.1287844140625,-0.0768861962890625,0.494449033203125
-0.12270580078125,-0.0837487255859375,0.4526687109375
0.00956482421875,-0.0288484912109375,0.564246748046875
0.02269462890625,-0.0386521044921875,0.8144371484375
-0.030067734375000002,-0.0661022216796875,0.99827056640625
-0.057056777343750004,-0.046740085449218746,1.1683410546875
-0.1958923046875,-0.0817880029296875,1.1110774365234375
-0.1667149609375,-0.0249270458984375,0.94125271484375
-0.18932740234375,0.083402880859375,0.827708544921875
-0.06386482421875,0.12482314697265626,0.7350545361328125
-0.08088494140625,0.12531332763671876,0.8353273095703125
-0.1112780078125,0.0878145068359375,1.026287958984375
-0.07261802734375,0.06453092529296875,1.0997721728515626
-0.0723748828125,0.0701680029296875,1.17915478515625
-0.067025703125,0.0672269189453125,1.123611533203125
-0.1219763671875,-0.0023787353515625003,1.0712632470703125
