ax,ay,az
-0.38821962890625,0.01894412353515625,1.001219765625
-0.3106565234375,-0.13154134033203124,1.0206353271484374
-0.25935302734375,0.04296297607421875,1.1919346484375
-0.49520322265625,-0.08963089355468751,1.158018857421875
-0.4419545703125,-0.0582593310546875,1.15162892578125
-0.39405509765625,-0.01928996826171875,1.0481611865234375
-0.6150734765625,-0.07811164794921875,0.8970147265625
-0.32281375,0.011346323242187501,0.8368019091796874
-0.41739697265625,0.0250713818359375,0.785436689453125
-0.42274615234375,0.0025230712890624996,0.7085117431640625
-0.26713365234374997,-0.013162709960937501,0.5863657421875
-0.34493990234375,-0.04919098876953125,0.6018490380859375
-0.23406599609375,-0.10899302978515625,0.8658023681640625
-0.44317029296875,0.0574233056640625,1.1351625634765625
-0.42931105468749997,-0.09281706787109376,1.18308705078125
-0.3524773828125,-0.19085320068359374,1.2059433447265624
-0.52194912109375,-0.1151202880859375,1.1007552392578126
-0.31308796875,-0.11634573974609375,0.8294289111328125
-0.31868029296875,-0.0803174609375,0.6291291308593749
-0.2853694921875,0.08462833251953125,0.63256986328125
-0.23844259765625,0.067717099609375,0.684180849609375
-0.36439146484375,0.08609887451171874,0.8579378369140624
-0.42177357421875,0.153988896484375,0.9921264013671875
-0.4370916796875,0.09786321044921875,0.858183603515625
-0.41350666015625,0.1329111279296875,0.73775796875
-0.4020788671875,-0.057769150390625,0.6460870263671875
-0.255705859375,-0.06659240234375,0.6495277587890624
-0.25473328125,0.06673673828125,0.6249510986328125
-0.40062,0.0721287255859375,0.7741314257812499
-0.3437241796875,0.0593840283203125,0.924049052734375
-0.46019041015625,0.14908708984375,1.1558069580078125
-0.4059691796875,0.24344686767578125,1.254359365234375
-0.34810078125,0.13658748291015624,1.22830810546875
-0.4166675390625,0.13217585693359374,1.15556119140625
-0.4200715625,0.04100225341796875,1.0437373876953124
-0.481343984375,0.12384278564453124,0.9818042041015624
-0.4195852734375,0.04296297607421875,0.9606682763671874
-0.44049570312499997,-0.07468038330078125,0.7684787939453125
-0.361716875,-0.00507472900390625,0.605535537109375
-0.35077537109375,-0.089140712890625,0.568179013671875
-0.31673513671875,-0.13546278564453124,0.622247666015625
-0.415208671875,-0.0092412646484375,0.8264797119140626
-0.55039703125,-0.02615249755859375,0.9090572900390625
-0.31673513671875,-0.0396324658203125,1.0031858984375
-0.3213548828125,7.216796875000007e-05,1.174730986328125
-0.43149935546875,0.0701680029296875,1.1882481494140624
-0.399647421875,-0.0602200537109375,1.0152284619140626
-0.39891798828125,0.0373258984375,0.8864467626953125
-0.4147223828125,0.008895419921875,0.8530225048828125
-0.376305546875,-0.1278649853515625,0.7881401220703125
-0.2878009375,-0.052867343750000004,0.8574463037109374
-0.38967849609375,-0.0700236669921875,0.896523193359375
-0.46748474609375,-0.08252327392578125,0.9552614111328125
-0.4088869140625,0.03119864013671875,0.9336339501953125
-0.30530734375,0.00791505859375,0.8446664404296875
-0.48255970703125,0.080461796875,0.831640810546875
-0.27296912109375,0.1142842626953125,0.7704449267578125
-0.35977171875,0.0789912548828125,0.7139186083984375
-0.46213556640625,0.06796218994140625,0.841471474609375
-0.3437241796875,0.07139345458984375,0.9402696484374999
-0.222638203125,0.21183021484375,1.17817171875
-0.37898013671874997,0.181439013671875,1.3121145166015624
-0.5868687109375,0.185360458984375,1.3165383154296875
-0.52486685546875,0.0495804150390625,1.162934189453125
-0.610696875,-0.10360104248046875,0.9242948193359375
-0.2406308984375,-0.042083369140625,0.757910830078125
-0.15747546875,-0.01095689697265625,0.7522581982421875
-0.30457791015625,0.02335574951171875,0.9690243408203125
-0.4278521875,-0.05899460205078125,1.088221142578125
-0.48255970703125,0.00178780029296875,1.163917255859375
-0.582492109375,-0.08301345458984374,1.2447744677734376
-0.49423064453125,0.15472416748046874,1.272054560546875
-0.41618125,0.111833359375,1.223884306640625
-0.34104958984375,-0.13350206298828124,1.1887396826171874
-0.38505875,0.036345537109375,1.3506998730468749
-0.63865849609375,-0.21634259521484375,1.13786599609375
-0.40645546875,-0.16462853515625,0.7596311962890625
-0.22871681640625,-0.0097314453125,0.551466884765625
-0.19953947265625,0.004973974609375,0.513618828125
-0.18640966796875,0.0069346972656249995,0.7001556787109375
-0.30652306640625,0.079481435546875,0.9641090087890625
-0.52340798828125,0.08609887451171874,1.1774344189453125
-0.47575166015625,-0.0670825830078125,1.2644357958984376
-0.28634207031250003,0.03168882080078125,1.2187232080078125
-0.52924345703125,0.0059543359375,1.1671122216796874
-0.39575710937499997,0.08658905517578125,1.2629611962890626
-0.4137498046875,-0.0411030078125,1.1376202294921876
-0.5713074609375,0.18315464599609374,1.0024485986328124
-0.2717533984375,0.08560869384765625,0.8805483642578125
-0.09450103515625,-0.0974737841796875,0.914709921875
-0.2328502734375,0.02531647216796875,1.0481611865234375
-0.38627447265625,0.0868341455078125,0.892590927734375
-0.39502767578125,0.13536203125,0.7212916064453125
-0.4147223828125,0.05472731201171875,0.564246748046875
-0.27272597656249997,0.03928662109375,0.5384412548828125
-0.23260712890625002,0.07727562255859374,0.7630719287109375
-0.361716875,0.11501953369140624,1.1857904833984374
-0.48110083984375,0.00227798095703125,1.518804228515625
-0.4273658984375,0.030463369140625002,1.5981868408203126
-0.4711319140625,0.057668395996093746,1.4777612060546874
-0.4225030078125,-0.04821062744140625,1.252884765625
-0.249870390625,0.02090484619140625,1.0260421923828125
-0.33424154296874997,0.02874773681640625,0.8746499658203125
-0.201241484375,-0.10654212646484375,0.7837163232421875
-0.43344451171875,-0.17761832275390624,0.68762158203125
-0.40256515625,-0.013652890625,0.6067643701171875
-0.3699837890625,0.01845394287109375,0.5900522412109375
-0.3111428125,0.06992291259765625,0.713672841796875
-0.26372962890625,-0.012427438964843749,1.1558069580078125
-0.67172615234375,0.026051743164062502,1.4698966748046876
-0.38919220703125,0.0446786083984375,1.4905410693359376
-0.1530988671875,-0.2209993115234375,1.4475319140625
-0.45678638671875,0.0760501708984375,1.3622509033203125
-0.551369609375,0.1182057080078125,1.0973145068359376
-0.48207341796875003,-0.013407800292968751,0.78494515625
-0.42615017578125003,0.0142874072265625,0.578992744140625
-0.22701480468750002,-0.01144707763671875,0.43104125
-0.0626491015625,-0.0376717431640625,0.439397314453125
-0.20780638671875,0.05276658935546875,0.4661858740234375
-0.3694975,0.0686974609375,0.49641516601562496
-0.37363095703125,0.09982393310546875,0.6008659716796875
-0.470645625,-0.06585713134765625,0.8933282275390625
-0.41982841796875,-0.010711806640625,1.2639442626953126
-0.35563826171875,-0.01683906494140625,1.4802188720703124
-0.399647421875,-0.02958376220703125,1.486363037109375
-0.29631099609375,0.032424091796875,1.2310115380859374
-0.36779548828124997,0.008405239257812499,0.9891772021484375
-0.46870046875,0.0593840283203125,0.7955131201171874
-0.30846822265625,0.01183650390625,0.5104238623046875
-0.1424005078125,0.046149150390625,0.4878133349609375
-0.32159802734375,0.07433453857421875,0.4661858740234375
-0.29485212890625,0.096147578125,0.4583213427734375
-0.30360533203125,0.1133039013671875,0.4892879345703125
-0.358799140625,0.118695888671875,0.6524769580078125
-0.29339326171875,0.1505576318359375,0.9638632421875
-0.372415234375,0.15766525146484375,1.3268605126953126
-0.45386865234375,0.13315621826171875,1.5161007958984376
-0.48426171875,-0.0567887890625,1.5102023974609375
-0.5927041796875,-0.06438658935546875,1.1975872802734375
-0.38821962890625,-0.23300873779296874,0.9065996240234375
-0.27613,-0.27957590087890627,0.600620205078125
-0.17279357421875,-0.11757119140625,0.4214563525390625
-0.08039865234375,-0.05482806640625,0.3919643603515625
-0.22750109375,-0.05703387939453125,0.5993913720703125
-0.354908828125,0.0584036669921875,0.8854636962890625
-0.4944737890625,0.15423398681640624,1.0673309814453125
-0.55428734375,0.1505576318359375,1.3089195507812499
-0.59635134765625,0.08903995849609375,1.399853193359375
-0.59391990234375,-0.0190448779296875,1.3728188671875
-0.37071322265625,-0.09036616455078125,1.2718087939453124
-0.44171142578125,-0.122472998046875,1.0167030615234376
-0.25084296875,0.03806116943359375,0.7606142626953125
-0.3135742578125,-0.14673694091796874,0.571128212890625
-0.1530988671875,-0.1116890234375,0.5418819873046875
-0.21801845703125,-0.008996174316406251,0.5824334765625
-0.36633662109375,0.10202974609375,0.70924904296875
-0.201241484375,0.17531175537109375,1.0171945947265626
-0.5606091015625,0.2113400341796875,1.236664169921875
-0.4789125390625,0.15692998046875,1.292698955078125
-0.2513292578125,0.10472573974609375,1.3013007861328125
-0.524137421875,0.0030132519531249997,1.2442829345703126
-0.255705859375,0.02433611083984375,1.1567900244140625
-0.347128203125,0.09737302978515625,1.113780869140625
-0.5226785546875,0.0255615625,1.221918173828125
-0.42760904296875,-0.006790361328125,1.0840431103515624
-0.33570041015625,-0.05360261474609375,0.8869382958984375
-0.349073359375,-0.07958218994140626,0.6785282177734375
-0.164283515625,-0.093062158203125,0.517059560546875
-0.10519939453125,-0.08546435791015625,0.4907625341796875
-0.13486302734375,-0.06144550537109375,0.625196865234375
-0.092312734375,-0.0332601171875,0.95894791015625
-0.44754689453125,-0.0249270458984375,1.300563486328125
-0.5858961328125,-0.0621807763671875,1.5647625830078125
-0.42055785156250003,-0.09281706787109376,1.509956630859375
-0.47842625,-0.0347306591796875,1.2378930029296875
-0.40645546875,-0.04821062744140625,1.12213693359375
-0.38724705078125,-0.02517213623046875,0.92748978515625
-0.40037685546875,-0.0592396923828125,0.8879213623046875
-0.25497642578125,-0.00703545166015625,0.830657744140625
-0.1093328515625,0.033404453125,0.80853875
-0.21364185546875,0.1182057080078125,0.8412257080078125
-0.11249373046875,-0.042083369140625,0.8380307421875
-0.2878009375,0.01600303955078125,1.0503730859375
-0.40256515625,0.06551128662109375,1.260749296875
-0.6534903125,0.0799716162109375,1.3003177197265625
-0.63768591796875,0.04247279541015625,1.164900322265625
-0.51854509765625,-0.0881603515625,0.89504859375
-0.29825615234375,-0.03938737548828125,0.694994580078125
-0.2250696484375,-0.09624833251953124,0.7252238720703125
-0.47721052734375,-0.00777072265625,0.80558955078125
-0.2318776953125,0.0740894482421875,0.736283369140625
-0.1813036328125,0.03659062744140625,0.7606142626953125
-0.26227076171875,0.07776580322265625,0.8773533984374999
-0.0918264453125,-0.059729873046875,0.9124980224609375
-0.3223274609375,0.049090234375,1.101984072265625
-0.54650671875,0.07237381591796875,1.138357529296875
-0.59683763671875,-0.053847705078125,1.0063808642578125
-0.54285955078125,0.0476196923828125,1.016948828125
-0.40694175781249997,0.0780108935546875,0.97664310546875
-0.3203823046875,-0.1445311279296875,0.9166760546875
-0.46748474609375,-0.10899302978515625,0.79969115234375
-0.29339326171875,-0.0092412646484375,0.6165950341796875
-0.05900193359375,-0.12075736572265625,0.458075576171875
-0.0743200390625,-0.052867343750000004,0.514110361328125
-0.18884111328125,0.128499501953125,0.7645465283203124
-0.22239505859375,-0.012427438964843749,1.11034013671875
-0.4511940625,0.15178308349609376,1.408700791015625
-0.59537876953125,0.12947986328125,1.284342890625
-0.32354318359375,-0.04968116943359375,0.9709904736328125
-0.50492900390625,0.08021670654296875,0.802148818359375
-0.3972159765625,0.179478291015625,0.6878673486328125
-0.30919765625,0.1231075146484375,0.6421547607421875
-0.3189234375,0.16158669677734375,0.74463943359375
-0.26178447265625,0.1152646240234375,0.8574463037109374
-0.2357680078125,-0.092081796875,0.9127437890625
-0.27442798828125,0.1628121484375,1.061678349609375
-0.27807515625,-0.02149578125,1.119679267578125
-0.37071322265625,-0.0641414990234375,1.2619781298828125
-0.504685859375,-0.01095689697265625,1.2961396875
-0.45775896484375,-0.042083369140625,1.282868291015625
-0.39478453125,-0.24330253173828126,0.993846767578125
-0.35101851562499997,-0.16585398681640626,0.7365291357421875
-0.27491427734375,-0.12075736572265625,0.658621123046875
-0.42663646484375,-0.1808044970703125,0.7134270751953125
-0.4254207421875,-0.063651318359375,0.780521357421875
-0.35466568359375,-0.0592396923828125,0.80362341796875
-0.39989056640625,-0.0739451123046875,0.84491220703125
-0.2231244921875,-0.08889562255859375,0.8498275390625
-0.27394169921875,0.0103659619140625,0.9031588916015625
-0.37654869140625,0.00619942626953125,0.9835245703125
-0.29339326171875,0.12947986328125,1.100017939453125
-0.40621232421875,0.057668395996093746,1.14769666015625
-0.44049570312499997,0.10276501708984374,1.111323203125
-0.29509527343749997,0.15815543212890626,1.0525849853515625
-0.3213548828125,0.1113431787109375,0.849336005859375
-0.48499115234375,0.07457962890625,0.6726298193359375
-0.27345541015625,0.03708080810546875,0.6451039599609375
-0.18057419921875,0.15766525146484375,0.8014115185546875
-0.4020788671875,0.10815700439453126,0.8839890966796875
-0.1637972265625,0.0074248779296875,0.9532952783203125
-0.17717017578125,-0.08007237060546875,0.9056165576171875
-0.37119951171875,0.055952763671875,0.968287041015625
-0.3096839453125,0.026541923828125,1.0865007763671874
-0.3466419140625,-0.013652890625,1.2732833935546874
-0.54650671875,0.17433139404296874,1.391005595703125
-0.5995122265625,0.0809519775390625,1.19684998046875
-0.38821962890625,0.02776737548828125,0.935845849609375
-0.2902323828125,0.0054641552734375,0.7178508740234375
-0.098148203125,0.0191892138671875,0.68565544921875
-0.19613544921875,-0.12467881103515625,0.83213234375
-0.21218298828125,-0.02125069091796875,1.2452660009765626
-0.500795546875,0.013552136230468751,1.342835341796875
-0.45192349609375,-0.26192939697265627,1.256325498046875
-0.25400384765625,-0.0200252392578125,1.345784541015625
-0.50930560546875,-0.128355166015625,1.1749767529296875
-0.49082662109375,0.00963069091796875,1.0267794921875
-0.432715078125,0.08315779052734375,0.8707177001953125
-0.413263515625,0.0093856005859375,0.8250051123046875
-0.31868029296875,-0.08448399658203125,0.841471474609375
-0.2367405859375,0.00865032958984375,0.9346170166015625
-0.27199654296875,0.1172253466796875,0.9402696484374999
-0.35101851562499997,0.09835339111328124,0.9803296044921875
-0.361716875,0.04884514404296875,0.9729566064453125
-0.3826273046875,0.11649007568359375,1.0778989453125
-0.3612305859375,0.04198261474609375,1.259274697265625
-0.50103869140625,0.1035002880859375,1.364462802734375
-0.53094546875,0.0319339111328125,1.1213996337890624
-0.39356880859375,-0.006790361328125,0.9097945898437501
-0.34883021484375,0.10276501708984374,0.78494515625
-0.35223423828125,0.077520712890625,0.6492819921874999
-0.1472633984375,0.05227640869140625,0.6627991552734375
-0.273212265625,0.1525183544921875,0.776589091796875
-0.48061455078125,0.0387964404296875,0.810996416015625
-0.14167107421875,-0.04526954345703125,0.8569547705078124
-0.19637859375,-0.08301345458984374,0.9051250244140625
-0.45313921875,-0.04526954345703125,1.0771616455078126
-0.3524773828125,-0.07370002197265625,1.1921804150390625
-0.387976484375,-0.03105430419921875,1.2142994091796875
-0.48426171875,-0.02468195556640625,1.0506188525390625
-0.33521412109375,-0.1337471533203125,0.8918536279296875
-0.2620276171875,-0.1979608203125,0.8451579736328125
-0.31308796875,-0.06438658935546875,0.8427003076171875
-0.35417939453125,-0.0455146337890625,0.78789435546875
-0.3189234375,-0.049926259765625,0.7502920654296875
-0.1997826171875,-0.0288484912109375,0.8365561425781249
-0.26081189453125,0.053992041015625,0.9886856689453125
-0.22628537109375,-0.045024453125,1.0742124462890625
-0.32791978515625,0.110852998046875,1.248460966796875
-0.3111428125,0.07261890625,1.31285181640625
-0.5849235546875,-0.08619962890625,1.0953483740234375
-0.331566953125,0.11599989501953126,0.920116787109375
-0.346155625,-0.02419177490234375,0.849336005859375
-0.40645546875,0.063795654296875,0.8967689599609375
-0.34226531250000003,0.10570610107421875,0.781504423828125
-0.2853694921875,0.0133070458984375,0.7114609423828124
-0.162338359375,-0.05262225341796875,0.8849721630859375
-0.174009296875,-0.00801581298828125,0.9921264013671875
-0.2999581640625,0.011346323242187501,1.0466865869140625
-0.34785763671875003,0.0608545703125,1.022355693359375
-0.2668905078125,0.01306195556640625,1.0865007763671874
-0.44025255859375,0.081442158203125,1.13589986328125
-0.2333365625,0.09786321044921875,1.1073909375
-0.3719289453125,0.06502110595703126,0.9818042041015624
-0.49812095703125,0.0255615625,1.13589986328125
-0.46262185546875,0.05913893798828125,1.1764513525390625
-0.46797103515625,0.06649164794921875,1.1970957470703125
-0.35588140625,0.05129604736328125,1.0756870458984376
-0.27053767578125,-0.0808076416015625,0.9198710205078124
-0.2182616015625,0.12874459228515625,0.9198710205078124
-0.0743200390625,-0.1259042626953125,0.7950215869140624
-0.20148462890625,-0.153844560546875,0.907336923828125
-0.30627992187499997,0.059874208984374996,1.08478041015625
-0.34032015625,-0.10065995849609374,1.189968515625
-0.54383212890625,0.16207687744140625,1.133442197265625
-0.64887056640625,0.014777587890624999,0.8476156396484374
-0.40256515625,-0.050661530761718754,0.7753602587890625
-0.34785763671875003,0.17874302001953124,0.8191067138671875
-0.465782734375,0.13756784423828125,0.7478343994140625
-0.26810623046875,0.118695888671875,0.88030259765625
-0.2104809765625,0.0917359521484375,1.0658563818359374
-0.3933256640625,-0.0317895751953125,1.0928907080078125
-0.12610982421875,-0.10065995849609374,1.10640787109375
-0.19832375,-0.2058037109375,1.158510390625
-0.38043900390625,0.03610044677734375,1.09067880859375
-0.5110076171875,-0.03644629150390625,0.86359046875
-0.4614061328125,0.11992134033203125,0.8682600341796876
-0.40621232421875,0.008895419921875,0.9134810888671875
-0.34153587890625,0.08903995849609375,1.0031858984375
-0.4458448828125,0.07629526123046874,1.0049062646484375
-0.2523018359375,-0.00777072265625,0.9179048876953125
-0.2143712890625,0.0037485229492187503,0.798216552734375
-0.3369161328125,0.017718671875,0.8849721630859375
-0.22288134765625,-0.02713285888671875,0.9169218212890625
-0.25740787109375,-0.22467566650390625,0.9051250244140625
-0.31868029296875,-0.01389798095703125,0.941744248046875
-0.3476144921875,-0.0425735498046875,1.02579642578125
-0.36682291015625,-0.11144393310546875,0.93732044921875
-0.3446967578125,-0.122472998046875,1.0216183935546874
-0.29193439453125003,0.04492369873046875,1.0029401318359374
-0.35588140625,0.04247279541015625,0.74463943359375
-0.29533841796875,0.01845394287109375,0.838522275390625
-0.329621796875,0.16844922607421875,1.144255927734375
-0.3811684375,0.13168567626953126,1.284834423828125
-0.34980279296875,0.077520712890625,1.3656916357421875
-0.2678630859375,0.080461796875,1.2428083349609376
-0.1910294140625,-0.0504164404296875,1.027271025390625
-0.2620276171875,0.08511851318359374,1.011541962890625
-0.32159802734375,0.014777587890624999,0.9454307470703125
-0.38092529296875,0.04688442138671875,0.966320908203125
-0.4361191015625,0.05374695068359375,0.861132802734375
-0.33813185546875,0.063795654296875,0.80558955078125
-0.38238416015625,0.0878145068359375,0.7670041943359375
-0.22579908203125,-0.013652890625,0.723503505859375
-0.255705859375,-0.12516899169921875,0.9218371533203125
-0.45313921875,0.07041309326171875,1.1641630224609374
-0.3592854296875,-0.04036773681640625,1.1415524951171876
-0.330594375,0.0765403515625,1.14573052734375
-0.3048210546875,0.00178780029296875,1.0481611865234375
-0.34542619140624997,-0.03889719482421875,0.980083837890625
-0.34980279296875,-0.13007079833984375,0.8677685009765626
-0.29874244140625,-0.055808427734375,0.7591396630859375
-0.0937716015625,0.057668395996093746,0.7262069384765625
-0.09839134765625,-0.1357078759765625,0.964354775390625
-0.3417790234375,0.22334946044921875,1.2654188623046876
-0.39162365234375,0.24197632568359376,1.4320486181640626
-0.3213548828125,0.101049384765625,1.362496669921875
-0.44851947265625003,-0.0013983740234375002,1.01006736328125
-0.22579908203125,0.12825441162109374,0.9759058056640625
-0.40280830078125,-0.06830803466796875,0.82328474609375
-0.28609892578125,-0.116590830078125,0.8530225048828125
-0.19808060546875,-0.04772044677734375,0.7279273046875
-0.2202067578125,-0.217568046875,0.6878673486328125
-0.10033650390625,-0.15507001220703126,0.8923451611328125
-0.1511537109375,-0.17222633544921875,1.0678225146484375
-0.30627992187499997,0.08707923583984375,1.0943653076171875
-0.35393625,0.081442158203125,0.92650671875
-0.24184662109375,0.0515411376953125,0.8048522509765625
-0.1355924609375,0.061834931640625,0.74857169921875
-0.26518849609375,-0.01389798095703125,0.7581565966796875
-0.29436583984375,-0.00458454833984375,0.938303515625
-0.37217208984375,0.0299731884765625,1.111814736328125
-0.40669861328125,0.0044837939453125,1.0339067236328126
-0.356853984375,-0.0259074072265625,1.0776531787109376
-0.3904079296875,-0.0553182470703125,1.0476696533203125
-0.15091056640625,0.0010525292968750002,0.8943112939453125
-0.1929745703125,-0.0170841552734375,0.8913620947265625
-0.17303671874999998,-0.008751083984375,0.9567360107421875
-0.247925234375,0.07776580322265625,1.032186357421875
-0.2464663671875,-0.03546593017578125,1.079865078125
-0.18786853515625002,0.0294830078125,1.0815854443359374
-0.2309051171875,-0.063651318359375,0.9604225097656249
-0.401592578125,-0.030073942871093752,0.86653966796875
-0.21218298828125,-0.0033590966796874996,0.7650380615234375
-0.361716875,0.14786163818359374,0.761843095703125
-0.325731484375,0.06600146728515625,0.9405154150390624
-0.25011353515625,-0.05458297607421875,0.9739396728515625
-0.34202216796875,0.120656611328125,0.86653966796875
-0.2688356640625,-0.1562954638671875,0.6775451513671875
-0.15382830078125,-0.10115013916015625,0.5885776416015625
-0.19759431640625,-0.0612004150390625,0.5748147119140625
-0.0821006640625,-0.06144550537109375,0.659604189453125
-0.1827625,-0.055073156738281254,0.96877857421875
-0.3057936328125,-0.00581,1.1307387646484375
-0.31868029296875,0.057913486328125,1.2678765283203126
-0.30749564453125,0.1829095556640625,1.229782705078125
-0.33108066406250003,0.14835181884765625,0.9144641552734375
-0.2542469921875,0.12482314697265626,0.829674677734375
-0.17668388671875,0.2123203955078125,0.926015185546875
-0.34834392578125,0.10472573974609375,1.12606919921875
-0.26251390625,0.1084020947265625,1.191443115234375
-0.279047734375,0.00325834228515625,1.16145958984375
-0.23819945312500002,-0.0866898095703125,1.1341794970703125
-0.24379177734375002,-0.17516741943359376,1.0860092431640624
-0.2532744140625,-0.2278618408203125,1.021372626953125
-0.35393625,-0.0170841552734375,0.9547698779296875
-0.2766162890625,0.0299731884765625,0.8481071728515625
-0.2104809765625,-0.01144707763671875,0.852285205078125
-0.1949197265625,0.0819323388671875,0.927981318359375
-0.16914640625,0.10423555908203125,1.02776255859375
-0.2581373046875,0.11698025634765626,0.9999909326171875
-0.1968648828125,0.111833359375,0.91077765625
-0.26154132812499997,0.0613447509765625,0.980083837890625
-0.33181009765625,0.05276658935546875,1.1735021533203125
-0.39478453125,-0.0092412646484375,1.2784444921875
-0.3553951171875,0.07482471923828125,1.22240970703125
-0.267376796875,-0.0435539111328125,1.0427543212890624
-0.222638203125,0.0878145068359375,0.95796484375
-0.1881116796875,0.07727562255859374,0.9272440185546875
-0.2192341796875,-0.067572763671875,0.8564632373046875
-0.09985021484375001,-0.014633251953124999,0.9360916162109375
-0.1978374609375,-0.02174087158203125,1.0142453955078126
-0.1667149609375,-0.03154448486328125,1.0265337255859375
-0.2309051171875,0.03217900146484375,1.0609410498046874
-0.32475890625,7.216796875000007e-05,1.086255009765625
-0.3184371484375,-0.00752563232421875,1.083305810546875
-0.31187224609374997,0.07433453857421875,1.0304659912109375
-0.282938046875,0.024581201171875,0.9916348681640625
-0.30652306640625,0.0682072802734375,1.0058893310546875
-0.21850474609375,-0.0239466845703125,0.9650920751953125
-0.18592337890625,0.10570610107421875,1.0486527197265625
-0.09255587890625,0.02923791748046875,1.1061621044921874
-0.16404037109375,-0.11757119140625,1.0909245751953125
-0.15771861328125,0.0956573974609375,1.1228742333984374
-0.14750654296875,-0.05801424072265625,1.0688055810546875
-0.152612578125,-0.08227818359375,1.129509931640625
-0.1929745703125,-0.03056412353515625,1.192426181640625
-0.39867484375,-0.06046514404296875,1.1703071875
-0.35199109375,0.0476196923828125,1.09657720703125
-0.35977171875,0.0059543359375,0.9439561474609375
-0.282938046875,0.0544822216796875,0.92159138671875
-0.2659179296875,0.00987578125,0.9179048876953125
-0.2099946875,-0.0386521044921875,0.8884128955078126
-0.18495080078125,-0.07811164794921875,0.8771076318359375
-0.2211793359375,-0.0567887890625,0.9520664453125
-0.15334201171875,-0.06291604736328126,1.0346440234375
-0.27296912109375,0.024091020507812498,1.1211538671875
-0.27588685546875,-0.01487834228515625,1.06020375
-0.20683380859375,-0.03522083984375,0.9380577490234375
-0.23260712890625002,0.10619628173828125,0.9228202197265625
-0.28901666015625,0.03757098876953125,0.8682600341796876
-0.27296912109375,0.05423713134765625,0.922574453125
-0.36244630859375,0.07065818359375,0.9881941357421875
-0.259596171875,0.022620478515625,1.0034316650390624
-0.30068759765624997,-0.0028689160156250004,0.99237216796875
-0.27053767578125,0.030463369140625002,1.011541962890625
-0.22701480468750002,0.0133070458984375,0.9719735400390626
-0.26907880859375,0.0037485229492187503,0.952557978515625
-0.21899103515625,-0.05801424072265625,0.9198710205078124
-0.19078626953125,-0.0327699365234375,0.9385492822265625
-0.27248283203125,-0.02713285888671875,0.98057537109375
-0.23990146484375,-0.0170841552734375,0.9439561474609375
-0.24379177734375002,0.03315936279296875,0.9336339501953125
-0.29363640625,0.00178780029296875,0.970253173828125
-0.2882872265625,0.0378160791015625,1.01006736328125
-0.35369310546875,-0.00850599365234375,1.0255506591796875
-0.25400384765625,0.0280124658203125,1.0975602734375
-0.31333111328125,0.0003172583007812497,1.0407881884765624
-0.2668905078125,-0.08423890625,0.9434646142578125
-0.23528171875,-0.004829638671875,0.9498545458984375
-0.206104375,-0.0494360791015625,0.8166490478515624
-0.18349193359375,-0.060710234375,0.8223016796875
-0.22920310546875,0.0231106591796875,0.8982435595703124
-0.19759431640625,-0.032279755859375,0.91176072265625
-0.279047734375,-0.06242586669921875,0.9120064892578125
-0.257651015625,0.02580665283203125,0.941744248046875
-0.321841171875,-0.0063001806640625,0.90389619140625
-0.22823052734375,0.02776737548828125,0.9636174755859375
-0.26275705078125,0.0368357177734375,0.9808211376953125
-0.24379177734375002,0.02727719482421875,0.99237216796875
-0.25108611328125,0.0682072802734375,1.036118623046875
-0.183735078125,-0.04698517578125,0.986965302734375
-0.22190876953125,0.0064445166015625,1.05528841796875
-0.31868029296875,-0.0038492773437499997,0.9793465380859375
-0.2250696484375,0.05031568603515625,0.9174133544921875
-0.20415921875,-0.0180645166015625,0.9262609521484375
-0.2085358203125,0.014777587890624999,1.00810123046875
-0.22531279296875,-0.01978014892578125,1.0818312109375
-0.31916658203125,0.0211499365234375,1.0427543212890624
-0.23212083984375,0.028257556152343752,0.937811982421875
-0.2736985546875,-0.0268877685546875,0.8333611767578125
-0.2766162890625,0.01992448486328125,0.946659580078125
-0.23892888671875,0.020659755859375,0.957473310546875
-0.331566953125,0.01894412353515625,0.970253173828125
-0.29485212890625,0.01845394287109375,1.0648733154296874
-0.17765646484375,0.00668960693359375,1.07691587890625
-0.214857578125,-0.01634888427734375,1.0609410498046874
-0.17425244140625,-0.0063001806640625,0.975168505859375
-0.1783858984375,0.0652661962890625,0.95796484375
-0.2659179296875,-0.040122646484374996,0.9439561474609375
-0.19759431640625,0.0044837939453125,0.9282270849609375
-0.2484115234375,-0.0033590966796874996,0.892590927734375
-0.2484115234375,0.02776737548828125,0.9188879541015624
-0.17230728515625,0.038306259765625,1.0127707958984375
-0.3262177734375,-0.0072805419921875,1.021372626953125
-0.218747890625,0.07850107421875,1.0432458544921874
-0.22920310546875,0.07531489990234375,1.0009739990234374
-0.2338228515625,-0.0200252392578125,0.9552614111328125
-0.13486302734375,0.0907555908203125,1.0235845263671874
-0.25740787109375,0.0010525292968750002,1.036118623046875
-0.107873984375,-0.03154448486328125,1.111323203125
-0.24938410156250002,0.0020328906249999995,1.1125520361328125
-0.09401474609375,0.09541230712890625,1.11525546875
-0.09255587890625,0.061834931640625,1.043000087890625
-0.33715927734375,0.03855135009765625,1.0963314404296876
-0.1268392578125,0.06992291259765625,1.1526119921875
-0.20415921875,0.00963069091796875,1.0638902490234374
-0.26227076171875,0.05619785400390625,1.062661416015625
-0.1414279296875,0.07923634521484375,0.9690243408203125
-0.28658521484375,0.00668960693359375,0.8372934423828124
-0.207076953125,0.0652661962890625,0.879811064453125
-0.20683380859375,-0.0955130615234375,0.811979482421875
-0.2523018359375,-0.07222947998046875,0.9228202197265625
-0.2347954296875,-0.0082609033203125,1.037101689453125
-0.2333365625,-0.05997496337890625,0.93535431640625
-0.1968648828125,-0.02737794921875,0.9493630126953125
-0.2513292578125,0.0765403515625,0.97271083984375
-0.20440236328125,-0.0001729223632812504,0.951574912109375
-0.27807515625,0.09443194580078125,1.0122792626953125
-0.28196546875,0.03561026611328125,0.981066904296875
-0.27053767578125,0.0191892138671875,0.9267524853515625
-0.267376796875,0.0858537841796875,0.98450763671875
-0.2824517578125,0.0137972265625,0.9874568359375
-0.24865466796875,0.0103659619140625,0.9891772021484375
-0.22628537109375,0.0530116796875,1.00613509765625
-0.2878009375,0.0387964404296875,1.040542421875
-0.2454937890625,0.083402880859375,1.060695283203125
-0.228473671875,-0.01634888427734375,0.95698177734375
-0.2085358203125,0.014777587890624999,0.9857364697265625
-0.280992890625,-0.0631611376953125,1.0122792626953125
-0.2464663671875,0.009140510253906251,0.9822957373046874
-0.26251390625,-0.02149578125,0.911269189453125
-0.331566953125,0.04786478271484375,0.9370746826171875
-0.2902323828125,0.073599267578125,0.9631259423828125
-0.1258666796875,-0.03252484619140625,0.890624794921875
-0.19710802734375,-0.01978014892578125,0.914218388671875
-0.22968939453125,0.04002189208984375,0.9783634716796875
-0.172064140625,0.07433453857421875,1.0506188525390625
-0.26372962890625,0.053992041015625,1.08084814453125
-0.30895451171875,-0.0180645166015625,1.0589749169921876
-0.2571647265625,-0.04772044677734375,0.9881941357421875
-0.27491427734375,0.01894412353515625,0.9351085498046875
-0.28561263671875,0.04124734375,0.9609140429687499
-0.31187224609374997,-0.05703387939453125,0.9397781152343749
-0.25059982421875,0.019679394531249998,1.0464408203125
-0.23260712890625002,0.03462990478515625,1.001219765625
-0.2192341796875,-0.06683749267578125,0.82721701171875
-0.0762651953125,0.0765403515625,0.8579378369140624
-0.28269490234375,-0.0254172265625,0.84294607421875
-0.13000013671875,0.01159141357421875,1.0004824658203124
-0.3408064453125,0.028257556152343752,1.1282810986328125
-0.333512109375,0.04247279541015625,1.181612451171875
-0.131215859375,0.01306195556640625,1.0520934521484375
-0.316005703125,0.0544822216796875,0.9808211376953125
-0.27272597656249997,0.06011929931640625,1.0373474560546876
-0.267376796875,-0.0376717431640625,0.9827872705078124
-0.31478998046875,0.04982550537109375,0.934862783203125
-0.13413359375,0.0525214990234375,0.931913583984375
-0.228473671875,-0.0612004150390625,0.8564632373046875
-0.11006228515625,0.0005623486328125002,0.941744248046875
-0.12221951171875,0.03462990478515625,0.9994993994140625
-0.23503857421875,0.014777587890624999,0.9916348681640625
-0.21558701171875,0.073599267578125,1.1199250341796876
-0.33813185546875,0.0037485229492187503,1.101984072265625
-0.22774423828125,0.057913486328125,1.042017021484375
-0.29509527343749997,0.06600146728515625,0.9139726220703125
-0.234309140625,0.05325677001953125,0.8537598046875
-0.26154132812499997,0.13903838623046874,1.0216183935546874
-0.28074974609375003,0.09149086181640625,0.804114951171875
-0.1355924609375,0.04394333740234375,0.86260740234375
-0.27248283203125,0.09639266845703125,1.0053977978515625
-0.29387955078125,-0.0602200537109375,1.0648733154296874
-0.23260712890625002,-0.04085791748046875,1.0830600439453124
-0.22579908203125,0.04982550537109375,0.9670582080078125
-0.18081734375,0.0044837939453125,0.8677685009765626
-0.2610550390625,0.00963069091796875,0.861132802734375
-0.2095083984375,-0.1013952294921875,0.818860947265625
-0.2279873828125,0.00816014892578125,0.8908705615234375
-0.34639876953125,0.01747358154296875,0.9429730810546875
-0.2338228515625,-0.02174087158203125,0.9193794873046874
-0.19419029296875,0.05815857666015625,0.9464138134765625
-0.2688356640625,0.00521906494140625,0.9414984814453125
-0.13291787109375,0.033404453125,0.9650920751953125
-0.220693046875,0.00325834228515625,0.9709904736328125
-0.23309341796875,-0.0371815625,0.9992536328125
-0.24038775390625,0.021640117187500002,0.9788550048828125
-0.2600824609375,-0.077376376953125,0.941744248046875
-0.144831953125,-0.05213207275390625,1.0206353271484374
-0.27613,0.04149243408203125,0.9788550048828125
-0.115654609375,0.071638544921875,0.9449392138671875
-0.14896541015625,0.13217585693359374,0.9051250244140625
-0.1589343359375,0.04982550537109375,1.045949287109375
-0.160393203125,0.09688284912109375,1.226833505859375
-0.19832375,0.13070531494140625,1.252884765625
-0.207076953125,0.0868341455078125,1.1843158837890626
-0.18592337890625,0.01551285888671875,1.086255009765625
-0.2698082421875,0.12433296630859375,1.09854333984375
-0.3009307421875,0.00423870361328125,1.06020375
-0.2279873828125,0.026296833496093748,1.01596576171875
-0.2153438671875,-0.1004148681640625,0.9419900146484375
-0.22920310546875,-0.1347275146484375,0.8092760498046875
-0.148722265625,-0.0999246875,0.7365291357421875
-0.19273142578125,0.010611052246093749,0.77216529296875
-0.2221519140625,-0.08987598388671875,0.8655566015625
-0.27491427734375,-0.05164189208984375,1.01203349609375
-0.234309140625,-0.0229663232421875,1.041033955078125
-0.20804953125,0.0280124658203125,1.0648733154296874
-0.16185207031249998,0.07286399658203124,1.13983212890625
-0.31697828125,-0.04281864013671875,1.2049602783203124
-0.34445361328125,0.01110123291015625,1.2772156591796875
-0.30871136718750003,-0.1660990771484375,1.03562708984375
-0.2007551953125,-0.0474753564453125,0.84884447265625
-0.26907880859375,-0.057278969726562504,0.7741314257812499
-0.29096181640625,-0.11438501708984375,0.767741494140625
-0.23260712890625002,-0.0808076416015625,0.85867513671875
-0.30871136718750003,0.062080021972656246,0.938795048828125
-0.11638404296875,0.08953013916015624,1.0958399072265625
-0.13291787109375,0.08756941650390625,1.2123332763671875
-0.23260712890625002,0.22874144775390626,1.248460966796875
-0.1744955859375,0.07850107421875,1.224867373046875
-0.29509527343749997,0.1868310009765625,1.2251131396484376
-0.3656071875,0.05962911865234375,1.159001923828125
-0.40183572265625,0.04737460205078125,1.0825685107421874
-0.21947732421875,0.0451687890625,1.0201437939453124
-0.18835482421875,-0.023456503906250002,0.949608779296875
-0.299471875,0.07923634521484375,0.983033037109375
-0.15236943359375,0.0133070458984375,1.02579642578125
-0.2707808203125,-0.02958376220703125,1.0732293798828125
-0.25838044921875,-0.01389798095703125,1.1823497509765626
-0.2250696484375,-0.1788437744140625,1.1656376220703124
-0.2970404296875,-0.10286577148437501,1.0653648486328124
-0.1944334375,-0.1435507666015625,0.82328474609375
-0.20683380859375,-0.15507001220703126,0.6691890869140625
-0.16355408203125,-0.19379428466796875,0.639451328125
-0.09741876953125,-0.2151171435546875,0.83901380859375
-0.1268392578125,-0.1170810107421875,1.158510390625
-0.28391062499999997,-0.046004814453125,1.2423168017578126
-0.2921775390625,-0.0455146337890625,1.1840701171874999
-0.19321771484375,-0.03889719482421875,1.10247560546875
-0.2488978125,0.04786478271484375,0.9793465380859375
-0.1725504296875,-0.0533575244140625,0.8889044287109376
-0.18300564453125,-0.09624833251953124,0.845403740234375
-0.1676875390625,-0.126394443359375,0.76430076171875
-0.04733099609375,-0.065612041015625,0.7323511035156249
-0.1248941015625,0.008895419921875,0.7935469873046875
-0.14896541015625,0.0672269189453125,0.923065986328125
-0.23552486328125,0.1623219677734375,1.1602307568359376
-0.28391062499999997,0.21648693115234374,1.3059703515625
-0.31041337890625,0.01747358154296875,1.2064348779296874
-0.2591098828125,0.2177123828125,1.1115689697265625
-0.228473671875,0.18609572998046875,0.953541044921875
-0.26518849609375,0.14639109619140625,0.8943112939453125
-0.24379177734375002,0.0907555908203125,0.963371708984375
-0.20245720703125,0.07727562255859374,1.17325638671875
-0.24962724609375,0.05570767333984375,1.3593017041015625
-0.2814791796875,-0.13350206298828124,1.1238572998046874
-0.1599069140625,-0.02468195556640625,0.87637033203125
-0.19467658203125,-0.0945327001953125,0.718096640625
-0.152612578125,-0.1062970361328125,0.6898334814453125
-0.20002576171875,-0.07615092529296875,0.951574912109375
-0.41885583984375,0.02752228515625,1.1916888818359375
-0.314060546875,-0.025662316894531252,1.0796193115234376
-0.27199654296875,-0.12173772705078124,0.9763973388671875
-0.3135742578125,-0.0955130615234375,0.902913125
-0.156502890625,-0.22173458251953124,0.7050710107421875
-0.111764296875,-0.18595139404296876,0.7011387451171875
-0.25838044921875,-0.11487519775390626,0.771673759765625
-0.24525064453125,-0.1317864306640625,0.847369873046875
-0.21996361328125,-0.013407800292968751,0.8717007666015625
-0.220693046875,0.08119706787109375,0.7473428662109375
-0.040279804687500004,0.0289928271484375,0.709740576171875
-0.02909515625,0.062080021972656246,0.74267330078125
-0.14118478515625,0.21158512451171874,0.9242948193359375
-0.20877896484375,0.11599989501953126,1.1877566162109374
-0.3116291015625,0.032424091796875,1.288766689453125
-0.33181009765625,0.15227326416015624,1.161951123046875
-0.45873154296875,0.064776015625,0.9901602685546875
-0.36293259765625,0.09051050048828126,0.8854636962890625
-0.2255559375,-0.02076051025390625,0.726452705078125
-0.18884111328125,0.13952856689453125,0.805098017578125
-0.11589775390625,-0.0239466845703125,0.7463597998046875
-0.01426333984375,-0.11193411376953125,0.743164833984375
-0.037848359375,-0.1111988427734375,0.817877880859375
-0.07213173828125,-0.13987441162109376,0.8697346337890625
0.0190474609375,-0.08987598388671875,1.0280083251953125
-0.2999581640625,0.0486000537109375,1.2177401416015625
-0.331566953125,0.16942958740234376,1.2201978076171875
-0.37508982421875,0.03855135009765625,1.216019775390625
-0.43538966796875,0.0922261328125,1.18701931640625
-0.29752671875000003,-0.023456503906250002,0.9601767431640625
-0.315033125,-0.0719843896484375,0.8092760498046875
-0.18640966796875,-0.1141399267578125,0.7453767333984375
-0.20877896484375,-0.1837455810546875,0.67189251953125
-0.30798193359375,-0.0646316796875,0.6446124267578125
-0.07067287109375,-0.15948163818359376,0.5981625390625
0.04457763671875,-0.06193568603515625,0.8183694140625
-0.21655958984375,-0.0415931884765625,1.0385762890625
-0.18835482421875,-0.0200252392578125,1.08379734375
-0.26154132812499997,0.07580508056640625,1.1676037548828124
-0.3213548828125,0.169674677734375,1.2516559326171874
-0.374360390625,0.1157548046875,1.2496897998046874
-0.35612455078125,0.1044806494140625,1.260749296875
-0.41593810546875,0.2765340625,1.1813666845703126
-0.23941517578125,0.15815543212890626,1.0624156494140624
-0.3359435546875,0.01306195556640625,1.0810939111328124
-0.19613544921875,0.034384814453125,1.231748837890625
-0.32840607421875,0.11403917236328125,1.1882481494140624
-0.2309051171875,-0.14624676025390626,1.008592763671875
-0.0699434375,-0.09036616455078125,0.8549886376953125
-0.16209521484375,-0.10752248779296875,0.8105048828125
-0.01280447265625,-0.186196484375,0.8195982470703125
-0.09741876953125,-0.0474753564453125,1.025304892578125
-0.45095091796875,0.02090484619140625,1.163917255859375
-0.42809533203125,-0.069533486328125,1.182595517578125
-0.37922328125,-0.010221625976562499,1.0840431103515624
-0.37922328125,-0.07909200927734375,0.8372934423828124
-0.33326896484375,-0.09869923583984375,0.7065456103515625
-0.32791978515625,-0.1337471533203125,0.6141373681640625
-0.15236943359375,-0.0425735498046875,0.5713739794921875
-0.011345605468749999,-0.00605509033203125,0.62273919921875
-0.007941582031250002,0.012816865234374999,0.761843095703125
-0.011345605468749999,-0.008996174316406251,0.99237216796875
-0.06143337890625,-0.02517213623046875,1.13000146484375
-0.28269490234375,-0.052867343750000004,1.233714970703125
-0.3835998828125,0.101049384765625,1.36790353515625
-0.2289599609375,0.0373258984375,1.30695341796875
-0.52316484375,-0.0808076416015625,1.229291171875
-0.40961634765625,-0.01879978759765625,1.1086197705078125
-0.3670660546875,0.0054641552734375,0.867522734375
-0.312115390625,0.1397736572265625,0.945676513671875
-0.206104375,0.05080586669921875,1.1223827001953124
-0.23163455078125,-0.0004180126953125,1.0857634765625
-0.12805498046875,-0.02737794921875,0.98647376953125
-0.07602205078125,-0.05899460205078125,0.9380577490234375
0.047738515625,-0.092081796875,0.93535431640625
0.05065625,0.02335574951171875,1.14769666015625
-0.34396732421875,-0.03105430419921875,1.286800556640625
-0.29922873046875,0.08217742919921875,1.30302115234375
-0.39259623046875003,0.0309535498046875,1.2590289306640625
-0.44025255859375,0.05129604736328125,1.2418252685546876
-0.4122909375,0.15472416748046874,1.2044687451171874
-0.47404964843749997,0.12825441162109374,0.951574912109375
-0.32062544921875,0.04541387939453125,0.78986048828125
-0.17303671874999998,0.01698340087890625,0.750046298828125
-0.0412523828125,-0.1582561865234375,0.8412257080078125
0.006403945312499999,-0.14134495361328125,0.9599309765625
-0.0714023046875,-0.1121792041015625,1.1538408251953125
-0.09790505859375,-0.120512275390625,1.2226554736328126
-0.22434021484375,-0.03987755615234375,1.2079094775390624
-0.2450075,0.0008074389648437498,1.2666476953124999
-0.3544225390625,-0.08399381591796876,1.299580419921875
-0.51027818359375,-0.012427438964843749,1.1690783544921874
-0.41885583984375,0.021640117187500002,0.9301932177734376
-0.24816837890625,-0.0768861962890625,0.764792294921875
-0.2464663671875,-0.047965537109375,0.7035964111328125
-0.16695810546875,-0.05017135009765625,0.722520439453125
-0.12343523437500001,-0.11242429443359375,0.7896147216796875
-0.27005138671875,-0.0533575244140625,0.912252255859375
0.07278240234375,-0.11242429443359375,1.085271943359375
-0.1477496875,-0.13987441162109376,1.2339607373046875
-0.13802390625,-0.0474753564453125,1.2745122265625
-0.38481560546875,-0.07762146728515625,1.0503730859375
-0.19637859375,0.10227483642578125,1.006626630859375
-0.237226875,0.09884357177734375,0.9936010009765625
-0.33618669921875,0.0025230712890624996,1.067576748046875
-0.26372962890625,0.0897752294921875,1.06315294921875
-0.3301080859375,0.0652661962890625,0.9110234228515625
-0.13243158203125,0.0221302978515625,0.824759345703125
-0.13024328125,-0.1651187158203125,0.814928681640625
-0.10276794921875,0.06453092529296875,0.965337841796875
-0.27734572265625,-0.051886982421875,0.9134810888671875
-0.03298546875,-0.022476142578125,0.920116787109375
-0.08526154296874999,-0.01683906494140625,0.9714820068359376
-0.17522501953125,0.106931552734375,1.0879753759765625
-0.2260422265625,0.1338914892578125,1.0692971142578125
-0.3563676953125,-0.024436865234375,0.9011927587890625
-0.25157240234375,0.08805959716796875,0.9282270849609375
-0.24233291015625,-0.13105115966796876,0.9498545458984375
-0.3330258203125,-0.09183670654296874,0.9257694189453125
-0.1569891796875,-0.0955130615234375,0.821810146484375
-0.37606240234375,-0.11634573974609375,0.850319072265625
-0.21899103515625,-0.151883837890625,0.9002096923828125
-0.016451640625,-0.034240478515625,0.9587021435546875
-0.131215859375,-0.15703073486328126,0.9395323486328125
-0.009643593750000002,-0.13203152099609375,0.7790467578125
-0.0762651953125,-0.02664267822265625,0.731368037109375
-0.0461152734375,-0.01291761962890625,0.730384970703125
-0.1710915625,-0.04306373046875,0.904387724609375
-0.17230728515625,0.1221271533203125,1.1204165673828126
-0.37922328125,0.095167216796875,1.2560797314453125
-0.35977171875,-0.0386521044921875,1.1958669140625
-0.29242068359375,0.1564397998046875,0.996795966796875
-0.32402947265625,0.07727562255859374,0.82721701171875
-0.288773515625,0.03928662109375,0.7436563671875001
-0.13048642578125,0.014777587890624999,0.7596311962890625
-0.0733474609375,-0.08938580322265625,0.813945615234375
-0.05219388671875,-0.07811164794921875,0.957473310546875
-0.005753281249999999,0.00399361328125,0.973202373046875
0.05722115234375,-0.095022880859375,1.069542880859375
-0.15723232421875,-0.059729873046875,1.263206962890625
-0.3155194140625,0.0721287255859375,1.2128248095703125
-0.24695265625,-0.01169216796875,0.943710380859375
-0.352963671875,0.06257020263671875,0.9134810888671875
-0.30214646484375,0.18707609130859376,0.9262609521484375
-0.39697283203125,-0.0082609033203125,0.8412257080078125
-0.2450075,-0.06879821533203125,0.8323781103515625
-0.1569891796875,-0.10654212646484375,0.7163762744140625
-0.08769298828125,-0.047965537109375,0.688113115234375
-0.26081189453125,-0.0435539111328125,0.70138451171875
-0.08720669921875,-0.0847290869140625,0.83508154296875
0.04409134765625,-0.01683906494140625,1.0191607275390624
-0.2843969140625,0.06698182861328125,1.2895039892578124
-0.3009307421875,0.122617333984375,1.2609950634765625
-0.06386482421875,-0.03129939453125,1.124594599609375
-0.21583015625000002,0.1133039013671875,1.1381117626953126
-0.2474389453125,-0.09771887451171875,1.1189419677734376
-0.32840607421875,0.028257556152343752,1.1479424267578124
-0.419098984375,0.06894255126953125,0.8913620947265625
-0.31989601562500003,0.046149150390625,0.6279002978515625
-0.218747890625,0.06796218994140625,0.609467802734375
-0.05632734375,0.09002031982421875,0.7822417236328125
-0.1783858984375,0.018699033203125,0.938795048828125
-0.24938410156250002,0.02286556884765625,1.1833328173828126
-0.0743200390625,-0.032279755859375,1.115747001953125
-0.07650833984375,-0.114630107421875,0.9749227392578125
-0.240144609375,-0.01046671630859375,0.9695158740234375
-0.25254498046875,-0.11732610107421874,1.0191607275390624
-0.3033621875,0.03413972412109375,1.108865537109375
-0.315033125,-0.044044091796875,1.04939001953125
-0.2678630859375,-0.16487362548828124,0.9675497412109375
-0.27296912109375,-0.00850599365234375,0.9284728515625
-0.166228671875,-0.106787216796875,0.902913125
-0.12829812499999999,-0.05458297607421875,1.2182316748046875
-0.4049966015625,0.09835339111328124,1.4015735595703125
-0.277102578125,0.01208159423828125,1.2845886572265626
-0.16404037109375,-0.00801581298828125,1.1789090185546875
-0.265431640625,-0.03350520751953125,1.0147369287109376
-0.12319208984375,-0.05556333740234375,0.98450763671875
-0.210967265625,-0.024436865234375,0.9985163330078125
-0.19953947265625,0.023845930175781252,1.000728232421875
-0.197351171875,-0.05017135009765625,0.9604225097656249
-0.2722396875,-0.13007079833984375,0.96877857421875
-0.252788125,-0.18153976806640626,1.0063808642578125
-0.13826705078125,-0.01830960693359375,1.1005094726562499
-0.1088465625,-0.09624833251953124,1.0997721728515626
-0.38311359375,-0.00360418701171875,1.0663479150390625
-0.22385392578125,0.14197947021484375,1.041033955078125
-0.13923962890625,0.00325834228515625,1.011541962890625
-0.1686601171875,0.0682072802734375,0.946168046875
-0.05851564453125,-0.1249239013671875,1.0373474560546876
-0.19710802734375,-0.08546435791015625,1.2531305322265625
-0.26324333984375,0.08266760986328126,1.18505318359375
-0.3057936328125,-0.15212892822265625,0.966320908203125
-0.23795630859375,0.00717978759765625,0.89406552734375
-0.06872771484375,0.01698340087890625,0.7556989306640625
-0.0344443359375,-0.0945327001953125,0.7286646044921875
-0.2036729296875,-0.112669384765625,0.90586232421875
-0.15334201171875,-0.1161006494140625,1.0103131298828125
-0.29387955078125,-0.14036459228515624,1.0869923095703125
-0.21412814453125,-0.18006922607421874,1.01596576171875
-0.19224513671875,-0.12516899169921875,0.974185439453125
-0.20464550781250002,0.02360083984375,1.1027213720703124
-0.25254498046875,0.05497240234375,1.152120458984375
-0.29193439453125003,0.1456558251953125,1.0157199951171876
-0.36682291015625,0.1809488330078125,0.9818042041015624
-0.2824517578125,0.07384435791015626,1.0078554638671875
-0.2007551953125,-0.02762303955078125,0.9085657568359375
-0.12416466796875,-0.077376376953125,0.8677685009765626
-0.05657048828125,-0.03497574951171875,0.871455
-0.2017277734375,0.02482629150390625,0.95894791015625
-0.30798193359375,-0.046740085449218746,1.08084814453125
-0.31235853515625,0.1201664306640625,1.22830810546875
-0.46942990234375,0.064776015625,1.194392314453125
-0.323786328125,-0.0011532836914062497,1.197833046875
-0.325731484375,0.024091020507812498,1.0579918505859376
-0.29047552734375,-0.04085791748046875,0.9267524853515625
-0.19953947265625,-0.09869923583984375,0.8943112939453125
-0.2416034765625,-0.068553125,0.931913583984375
-0.21193984375,-0.10899302978515625,0.8852179296875
-0.273212265625,-0.0371815625,0.904387724609375
-0.22823052734375,-0.05752406005859375,0.8795652978515625
-0.26907880859375,-0.01634888427734375,0.921099853515625
-0.199296328125,-0.0001729223632812504,1.0110504296875
-0.29971501953125,-0.028113220214843748,0.9528037451171875
-0.24719580078125,-0.03350520751953125,0.97664310546875
-0.24573693359375,0.00766996826171875,0.95894791015625
-0.2834243359375,-0.04085791748046875,0.904387724609375
-0.27102396484375,0.02874773681640625,0.948625712890625
-0.3641483203125,-0.04330882080078125,0.89209939453125
-0.26713365234374997,-0.044044091796875,0.8756330322265625
-0.2221519140625,-0.05213207275390625,0.76921609375
-0.17473873046875,-0.0680629443359375,0.7119524755859374
-0.1997826171875,-0.07051384765625,0.751029365234375
-0.2513292578125,-0.06585713134765625,0.818860947265625
-0.1968648828125,-0.02370159423828125,0.9739396728515625
-0.1890842578125,-0.01732924560546875,1.1336879638671875
-0.268349375,0.024581201171875,1.189968515625
-0.220693046875,0.1015395654296875,1.0722463134765625
-0.2299325390625,0.02090484619140625,0.9773804052734375
-0.21655958984375,0.0495804150390625,1.13589986328125
-0.27345541015625,-0.059484782714843754,1.19291771484375
-0.2824517578125,-0.0759058349609375,1.1715360205078125
-0.24184662109375,0.014777587890624999,1.0358728564453126
-0.23917203125,-0.057278969726562504,0.8800568310546875
-0.191515703125,-0.0670825830078125,0.8751414990234375
-0.18640966796875,0.0010525292968750002,0.9604225097656249
-0.25692158203125,-0.030073942871093752,1.0614325830078124
-0.2668905078125,-0.0141430712890625,1.134916796875
-0.23917203125,0.026541923828125,1.050864619140625
-0.27272597656249997,-0.0719843896484375,0.9744312060546875
-0.2542469921875,0.0358553564453125,0.9921264013671875
-0.30749564453125,0.0064445166015625,0.9419900146484375
-0.32548833984375003,-0.091101435546875,0.99827056640625
-0.2843969140625,-0.0317895751953125,1.03562708984375
-0.16136578125,-0.02223105224609375,0.959439443359375
-0.271267109375,-0.05874951171875,1.0073639306640625
-0.29169125,0.02678701416015625,1.1096028369140625
-0.247925234375,0.05105095703125,1.09952640625
-0.30846822265625,-0.0960032421875,0.988931435546875
-0.20002576171875,0.04296297607421875,1.0176861279296876
-0.27613,0.01453249755859375,1.0425085546875
-0.28415376953125,-0.06830803466796875,1.009575830078125
-0.284883203125,7.216796875000007e-05,0.9773804052734375
-0.2328502734375,-0.018554697265625,0.9444476806640625
-0.28561263671875,-0.10801266845703125,0.952557978515625
-0.2805066015625,-0.0425735498046875,0.97074470703125
-0.19564916015625,0.01306195556640625,1.001219765625
-0.3057936328125,-0.08497417724609375,1.06020375
-0.29582470703125,-0.011201987304687501,1.1597392236328126
-0.29776986328125,-0.0141430712890625,1.0432458544921874
-0.2941226953125,-0.04698517578125,0.92552365234375
-0.172064140625,-0.010221625976562499,0.93142205078125
-0.3660934765625,0.06992291259765625,1.009084296875
-0.31478998046875,-0.00213364501953125,1.04742388671875
-0.38505875,-0.02321141357421875,0.961897109375
-0.242089765625,0.021885207519531248,0.921099853515625
-0.33618669921875,-0.02149578125,0.872929599609375
-0.30652306640625,-0.07271966064453125,0.8589209033203125
-0.26056875,0.0162481298828125,0.93338818359375
-0.38773333984375,-0.049926259765625,1.0044147314453125
-0.300444453125,-0.0006631030273437505,1.0108046630859375
-0.335457265625,0.05472731201171875,0.9874568359375
-0.25449013671875,0.1270289599609375,1.001711298828125
-0.4273658984375,0.04149243408203125,0.9193794873046874
-0.22531279296875,0.08413815185546875,1.058729150390625
-0.25594900390624997,-0.03693647216796875,1.0334151904296875
-0.31673513671875,-0.00581,1.015474228515625
-0.26518849609375,-0.0641414990234375,0.9916348681640625
-0.37946642578125,-0.068553125,0.9306847509765624
-0.27977716796875,-0.03889719482421875,0.9596852099609375
-0.31819400390625,-0.10188541015625,0.9965502001953125
-0.31284482421875,-0.095022880859375,0.9375662158203125
-0.2036729296875,-0.05017135009765625,0.888658662109375
-0.195406015625,-0.0229663232421875,0.88423486328125
-0.26032560546875,-0.02860340087890625,0.92650671875
-0.26129818359375,-0.03399538818359375,0.9528037451171875
-0.1949197265625,-0.042328459472656246,0.9739396728515625
-0.29144810546875,-0.07713128662109375,0.969761640625
-0.24962724609375,-0.03448556884765625,1.011541962890625
-0.21510072265625,-0.03987755615234375,0.9469053466796875
-0.24379177734375002,-0.06634731201171876,0.9341254833984375
-0.247925234375,-0.03056412353515625,1.00416896484375
-0.201241484375,-0.00581,1.0184234277343749
-0.27491427734375,0.0270321044921875,0.99040603515625
-0.26810623046875,-0.00409436767578125,0.946659580078125
-0.2912049609375,0.0358553564453125,0.9559987109375
-0.28026345703125,0.04100225341796875,0.933879716796875
-0.1851939453125,0.05815857666015625,0.922082919921875
-0.2085358203125,-0.00458454833984375,0.9277355517578125
-0.22385392578125,-0.06732767333984375,0.914218388671875
-0.26859251953125,-0.0053198193359375,0.95894791015625
-0.212912421875,0.0162481298828125,1.0267794921875
-0.16452666015625,-0.0592396923828125,1.0088385302734375
-0.41447923828125,-0.06977857666015624,1.072492080078125
-0.22531279296875,-0.04134809814453125,1.0525849853515625
-0.42760904296875,-0.03448556884765625,0.946168046875
-0.39551396484375,-0.00213364501953125,0.888658662109375
-0.2668905078125,0.091245771484375,0.8122252490234375
-0.236254296875,0.1093824560546875,0.8117337158203125
-0.27685943359375,0.03536517578125,0.8181236474609375
-0.25351755859375,-0.06830803466796875,0.83901380859375
-0.24695265625,-0.08889562255859375,0.8930824609375
-0.376305546875,-0.027868129882812502,0.9301932177734376
-0.24184662109375,-0.030319033203124998,0.954524111328125
-0.36390517578125,-0.04036773681640625,0.9041419580078125
-0.2571647265625,-0.0011532836914062497,0.9454307470703125
-0.3359435546875,-0.05115171142578125,0.899472392578125
-0.3223274609375,-0.03448556884765625,0.85277673828125
-0.30530734375,0.06600146728515625,0.8933282275390625
-0.33715927734375,0.0054641552734375,0.9011927587890625
-0.25059982421875,-0.083258544921875,0.9301932177734376
-0.2843969140625,-0.01634888427734375,0.937811982421875
-0.28707150390625,-0.0778665576171875,0.8783364648437499
-0.26567478515625,0.02482629150390625,0.81148794921875
-0.2211793359375,-0.0006631030273437505,0.8692431005859375
-0.2333365625,0.00987578125,1.003677431640625
-0.29339326171875,-0.0053198193359375,1.1022298388671874
-0.3369161328125,0.015022678222656249,1.0894499755859375
-0.203186640625,0.1035002880859375,0.95796484375
-0.20488865234375,-0.00948635498046875,0.9321593505859375
-0.37217208984375,0.04345315673828125,0.999745166015625
-0.30263275390625,0.07433453857421875,1.1027213720703124
-0.37703498046875,-0.023456503906250002,1.0943653076171875
-0.3500459375,-0.04379900146484375,0.989914501953125
-0.21996361328125,0.06404074462890624,0.9749227392578125
-0.2299325390625,0.04002189208984375,0.825742412109375
-0.12343523437500001,-0.0023787353515625003,0.7915808544921875
-0.234309140625,0.02752228515625,0.9638632421875
-0.2260422265625,0.0476196923828125,1.1970957470703125
-0.37144265625,-0.02027032958984375,1.2978600537109375
-0.4098594921875,-0.02174087158203125,1.17915478515625
-0.1939471484375,0.0294830078125,1.0368559228515626
-0.3835998828125,-0.05605351806640625,0.8746499658203125
-0.24719580078125,0.02335574951171875,0.84294607421875
-0.214857578125,0.01747358154296875,0.8205813134765625
-0.30530734375,-0.07075893798828126,0.783470556640625
-0.206104375,-0.026397587890625,0.828691611328125
-0.23406599609375,-0.046740085449218746,0.9700074072265625
-0.314060546875,0.0059543359375,1.044966220703125
-0.28220861328125,-0.016593974609375,1.0896957421875
-0.27199654296875,0.01208159423828125,1.0417712548828124
-0.35369310546875,0.012816865234374999,0.8839890966796875
-0.29776986328125,0.032424091796875,0.8712092333984375
-0.2941226953125,0.04320806640625,0.998762099609375
-0.3797095703125,0.00619942626953125,1.1172216015625
-0.3811684375,0.1000690234375,1.173747919921875
-0.34834392578125,-0.00458454833984375,1.06708521484375
-0.33959072265625,-0.076396015625,0.880794130859375
-0.21996361328125,0.0054641552734375,0.8279543115234375
-0.14167107421875,0.01600303955078125,0.760860029296875
-0.24768208984375,-0.042328459472656246,0.8105048828125
-0.2698082421875,0.0270321044921875,1.010558896484375
-0.25838044921875,0.1534987158203125,1.24207103515625
-0.34883021484375,0.14786163818359374,1.463752509765625
-0.42760904296875,0.1005592041015625,1.46129484375
-0.53653779296875,0.14737145751953126,1.2442829345703126
-0.2805066015625,0.10815700439453126,1.0174403613281249
-0.315033125,-0.0023787353515625003,0.8333611767578125
-0.25740787109375,0.048109873046875,0.7797840576171875
-0.207076953125,-0.00262382568359375,0.7050710107421875
-0.16258150390625,0.032424091796875,0.8014115185546875
-0.2532744140625,0.03928662109375,0.9690243408203125
-0.37654869140625,-0.042328459472656246,1.1985703466796875
-0.417153828125,0.0137972265625,1.2315030712890624
-0.40767119140625,0.0995788427734375,1.0545511181640626
-0.38287044921875,-0.06536695068359374,0.85474287109375
-0.2435486328125,-0.1964902783203125,0.748080166015625
-0.1686601171875,-0.15850127685546875,0.6898334814453125
-0.3077387890625,-0.1484525732421875,0.5824334765625
-0.25254498046875,-0.17222633544921875,0.5340174560546875
-0.18397822265625,-0.0464949951171875,0.5723570458984375
-0.22944625,0.057913486328125,0.8318865771484375
-0.39843169921875,0.0436982470703125,1.11230626953125
-0.391866796875,0.0897752294921875,1.2978600537109375
-0.38724705078125,0.0838930615234375,1.27746142578125
-0.32548833984375003,0.00276816162109375,1.160968056640625
-0.333512109375,0.127519140625,1.1282810986328125
-0.35199109375,-0.0474753564453125,1.0181776611328126
-0.30457791015625,0.008895419921875,0.9365831494140625
-0.189570546875,0.1299700439453125,0.831640810546875
-0.35174794921875,0.05962911865234375,0.769707626953125
-0.24136033203125,-0.04919098876953125,0.8019030517578125
-0.34226531250000003,0.044188427734375,0.682214716796875
-0.39162365234375,-0.01978014892578125,0.6421547607421875
-0.28269490234375,-0.06781785400390625,0.7436563671875001
-0.100093359375,0.024581201171875,0.9591936767578125
-0.12367837890625,0.05423713134765625,1.34430994140625
-0.53070232421875,0.3074154443359375,1.638738330078125
-0.590272734375,0.2760438818359375,1.323174013671875
-0.38821962890625,0.1142842626953125,0.96681244140625
-0.34056330078125,0.1544790771484375,0.8790737646484375
-0.290718671875,0.0427178857421875,0.719571240234375
-0.19078626953125,0.0686974609375,0.6013575048828125
-0.140941640625,-0.0415931884765625,0.4981355322265625
-0.17668388671875,-0.17075579345703126,0.596687939453125
-0.31187224609374997,-0.08644471923828125,0.8451579736328125
-0.21558701171875,-0.04281864013671875,1.13589986328125
-0.31284482421875,-0.013652890625,1.5008632666015624
-0.6714830078125,-0.0141430712890625,1.671179521484375
-0.50201126953125,0.026541923828125,1.339886142578125
-0.41156150390625,0.00963069091796875,0.9911433349609375
-0.3797095703125,0.12163697265625,0.78789435546875
-0.24038775390625,-0.17418705810546875,0.6286375976562499
-0.056084199218750005,-0.1239435400390625,0.549500751953125
-0.09790505859375,-0.0033590966796874996,0.533771689453125
-0.09523046875,-0.00703545166015625,0.56178908203125
-0.1735230078125,-0.0837487255859375,0.8574463037109374
-0.29971501953125,0.11501953369140624,1.2506728662109374
-0.42712275390625,0.097127939453125,1.5583726513671876
-0.5000661132812501,0.171635400390625,1.776367626953125
-0.603888828125,0.2642795458984375,1.5367451904296874
-0.5061447265625,0.024581201171875,1.1789090185546875
-0.3072525,-0.00703545166015625,0.92552365234375
-0.30311904296875003,0.00791505859375,0.6298664306640624
-0.1803310546875,0.00570924560546875,0.4411176806640625
-0.08623412109375,-0.03154448486328125,0.424651318359375
-0.08744984375,-0.011201987304687501,0.4199817529296875
-0.181789921875,-0.0886505322265625,0.6023405712890625
-0.15334201171875,-0.00458454833984375,0.90782845703125
-0.27296912109375,0.04051207275390625,1.3602847705078125
-0.28804408203125,0.21795747314453126,1.757689365234375
-0.619450078125,0.39491269287109376,1.7677657958984374
-0.5134390625,0.2731027978515625,1.2634527294921876
-0.339347578125,0.1123235400390625,1.0385762890625
-0.37363095703125,0.17384121337890626,1.031203291015625
-0.40961634765625,0.079481435546875,0.91765912109375
-0.25983931640625,0.155949619140625,0.686638515625
-0.18640966796875,0.044188427734375,0.6126627685546875
-0.228473671875,-0.09134652587890625,0.75643623046875
-0.18349193359375,-0.13791368896484374,0.893573994140625
-0.01085931640625,-0.139139140625,1.032186357421875
-0.28464005859375,-0.08203309326171875,1.2639442626953126
-0.284883203125,0.04394333740234375,1.1427813281249999
-0.24695265625,-0.07566074462890625,1.091661875
-0.5226785546875,0.1260485986328125,0.9709904736328125
-0.428824765625,0.205948046875,0.8262339453125
-0.26956509765625,0.033404453125,0.6539515576171875
-0.27831830078124997,0.15031254150390624,0.615366201171875
-0.1637972265625,0.07188363525390624,0.7468513330078125
-0.2571647265625,-0.11536537841796875,1.0206353271484374
-0.27418484375,0.04124734375,1.224867373046875
-0.15188314453125001,0.0417375244140625,1.343818408203125
-0.3330258203125,0.0133070458984375,1.4718628076171876
-0.2980130078125,0.10129447509765625,1.114763935546875
-0.17303671874999998,-0.03203466552734375,0.83901380859375
-0.210967265625,-0.05556333740234375,0.6967149462890625
-0.30311904296875003,0.073599267578125,0.7419360009765625
-0.28074974609375003,0.06281529296875,0.6922911474609375
-0.3826273046875,0.0780108935546875,0.8667854345703125
-0.4186126953125,0.09002031982421875,0.950591845703125
-0.2338228515625,0.0936966748046875,0.913235322265625
-0.3189234375,0.08560869384765625,0.9650920751953125
-0.26859251953125,0.2162418408203125,1.0584833837890626
-0.294608984375,0.1289896826171875,1.03169482421875
-0.21412814453125,0.10202974609375,1.032186357421875
-0.24670951171875,0.1319307666015625,1.0425085546875
-0.2805066015625,0.1231075146484375,0.915201455078125
-0.259596171875,0.07629526123046874,0.8284458447265625
-0.237226875,0.10276501708984374,0.8176321142578125
-0.207076953125,0.00816014892578125,0.9277355517578125
-0.34737134765625,0.0191892138671875,1.047915419921875
-0.401592578125,0.093206494140625,1.057746083984375
-0.38287044921875,-0.0011532836914062497,0.8810398974609375
-0.3767918359375,-0.03399538818359375,0.844420673828125
-0.34007701171875,-0.1053166748046875,0.8102591162109375
-0.2649453515625,-0.0729647509765625,0.7365291357421875
-0.28585578125,-0.06977857666015624,0.727435771484375
-0.21169669921875,0.013552136230468751,0.710723642578125
-0.21315556640625,0.016738310546875,0.716622041015625
-0.1530988671875,0.0608545703125,0.8436833740234375
-0.2722396875,0.053992041015625,0.94125271484375
-0.38457246093749997,0.1319307666015625,1.047915419921875
-0.23455228515625,0.02923791748046875,1.0461950537109375
-0.2941226953125,-0.060710234375,1.0029401318359374
-0.384086171875,0.0373258984375,1.0857634765625
-0.3267040625,0.00865032958984375,1.06118681640625
-0.31697828125,-0.013162709960937501,0.7665126611328125
-0.07359060546875,-0.0881603515625,0.6492819921874999
-0.1453182421875,0.07678544189453125,0.8834975634765625
-0.32013916015625,0.2255552734375,1.1504000927734375
-0.42055785156250003,0.03536517578125,1.4256586865234375
-0.64643912109375,0.21183021484375,1.3563525048828124
-0.38384302734375,0.173596123046875,0.90782845703125
-0.1842213671875,0.00816014892578125,0.8053437841796875
-0.1851939453125,0.0907555908203125,0.788877421875
-0.354908828125,0.0829127001953125,0.8289373779296875
-0.34980279296875,-0.02909358154296875,0.7871570556640625
-0.29387955078125,0.04786478271484375,0.6682060205078125
-0.25303126953125,-0.03889719482421875,0.5315597900390625
-0.10106593750000001,-0.10605194580078126,0.6079932031249999
-0.13802390625,0.05962911865234375,0.830657744140625
-0.27637314453125,0.07457962890625,1.1287726318359375
-0.551369609375,0.07531489990234375,1.3391488427734375
-0.41156150390625,0.15692998046875,1.2595204638671875
-0.3189234375,0.13756784423828125,0.9719735400390626
-0.34032015625,-0.02174087158203125,0.9127437890625
-0.17619759765625,0.08119706787109375,0.94223578125
-0.29776986328125,-0.01389798095703125,0.806081083984375
-0.195406015625,-0.05752406005859375,0.7021218115234376
-0.185680234375,-0.063651318359375,0.814928681640625
-0.20342978515625,-0.03522083984375,1.064627548828125
-0.304334765625,-0.013162709960937501,1.3020380859375
-0.3495596484375,0.11943115966796874,1.37773419921875
-0.3806821484375,0.09026541015625,1.1887396826171874
-0.30311904296875003,0.012816865234374999,0.9518206787109375
-0.294608984375,0.012816865234374999,0.850319072265625
-0.23309341796875,-0.044044091796875,0.74463943359375
-0.19248828125,0.0020328906249999995,0.655180390625
-0.20026890625,-0.028113220214843748,0.6453497265625
-0.245980078125,-0.0881603515625,0.754961630859375
-0.28123603515625,-0.053847705078125,0.9301932177734376
-0.2566784375,-0.1038461328125,0.9429730810546875
-0.32840607421875,-0.0435539111328125,1.0031858984375
-0.31333111328125,-0.013162709960937501,1.05135615234375
-0.265431640625,0.0338946337890625,0.99433830078125
-0.16938955078125,0.077520712890625,0.976151572265625
-0.2736985546875,0.04002189208984375,1.09952640625
-0.282938046875,-0.00850599365234375,1.1626884228515626
-0.29339326171875,0.0456589697265625,1.07494974609375
-0.28634207031250003,0.0074248779296875,0.9881941357421875
-0.27637314453125,-0.015368522949218751,0.920116787109375
-0.2542469921875,-0.07664110595703125,0.8962774267578125
-0.277102578125,-0.03154448486328125,0.8530225048828125
-0.16404037109375,-0.03203466552734375,0.828691611328125
-0.28609892578125,-0.0435539111328125,0.9166760546875
-0.17133470703125,0.023845930175781252,0.978117705078125
-0.27613,0.0633054736328125,0.933879716796875
-0.277102578125,0.05423713134765625,1.0240760595703124
-0.26664736328125,0.0848734228515625,1.1410609619140626
-0.3889490625,0.07065818359375,1.092153408203125
-0.20780638671875,0.08266760986328126,1.0147369287109376
-0.25643529296875,0.07335417724609375,1.03169482421875
-0.28512634765625,-0.027868129882812502,1.0766701123046876
-0.22239505859375,-0.028358310546875,1.0570087841796876
-0.2484115234375,-0.1239435400390625,0.9820499707031249
-0.220693046875,-0.07615092529296875,1.009084296875
-0.20342978515625,-0.07026875732421875,1.01596576171875
-0.3135742578125,-0.0778665576171875,0.9980247998046875
-0.1997826171875,-0.06144550537109375,1.034152490234375
-0.28172232421875,0.0035034326171875,1.144255927734375
-0.28220861328125,0.0182088525390625,1.122628466796875
-0.33983386718749997,-0.04306373046875,1.0579918505859376
-0.29387955078125,0.05619785400390625,1.0196522607421874
-0.1579617578125,-0.0043394580078125,0.9449392138671875
-0.1803310546875,-0.01095689697265625,0.8923451611328125
-0.189570546875,-0.04575972412109375,0.81935248046875
-0.18543708984375,-0.06732767333984375,0.8200897802734375
-0.2085358203125,0.0162481298828125,0.98647376953125
-0.28366748046875,0.02874773681640625,1.0978060400390626
-0.28755779296875,0.07433453857421875,1.161951123046875
-0.2878009375,0.08266760986328126,1.1022298388671874
-0.28220861328125,0.10668646240234375,1.0304659912109375
-0.2630001953125,0.158890703125,1.01203349609375
-0.25157240234375,0.07923634521484375,0.969270107421875
-0.2114535546875,0.103010107421875,0.92748978515625
-0.24938410156250002,0.00963069091796875,0.874895732421875
-0.30020130859375,0.05105095703125,0.823776279296875
-0.23357970703125,0.0740894482421875,0.7827332568359375
-0.27613,-0.00850599365234375,0.7950215869140624
-0.21315556640625,0.04590406005859375,0.9631259423828125
-0.17960162109375,0.05619785400390625,1.1238572998046874
-0.2960678515625,0.02090484619140625,1.195375380859375
-0.22093619140625,0.053992041015625,0.97664310546875
-0.195406015625,-0.04281864013671875,0.7866655224609375
-0.22239505859375,-0.0371815625,0.79379275390625
-0.1064151171875,-0.02272123291015625,0.88620099609375
-0.1920019921875,-0.061690595703125004,0.9768888720703125
-0.23892888671875,-0.0582593310546875,1.028254091796875
-0.27540056640625,-0.051886982421875,0.9439561474609375
-0.251815546875,-0.05899460205078125,0.8820229638671875
-0.16258150390625,0.0956573974609375,0.9975332666015625
-0.226528515625,0.01208159423828125,1.1835785839843749
-0.2561921484375,0.04124734375,1.252884765625
-0.23795630859375,0.01012087158203125,1.12803533203125
-0.27807515625,-0.042328459472656246,0.910286123046875
-0.111764296875,0.079481435546875,0.817877880859375
-0.1744955859375,0.00472888427734375,0.7365291357421875
-0.09693248046875,0.02752228515625,0.797233486328125
-0.20877896484375,0.17678229736328124,0.918150654296875
-0.26810623046875,0.0436982470703125,1.0353813232421876
-0.232363984375,0.11354899169921875,1.10444173828125
-0.29339326171875,0.10987263671875,1.1327048974609375
-0.2785614453125,0.07727562255859374,1.19390078125
-0.32402947265625,0.127519140625,1.1872650830078124
-0.37119951171875,0.080461796875,1.0565172509765626
-0.21899103515625,0.02531647216796875,0.8893959619140624
-0.244034921875,0.1191860693359375,0.6893419482421875
-0.17303671874999998,-0.00311400634765625,0.572111279296875
-0.05024873046875,-0.10262068115234375,0.522957958984375
-0.05802935546875,-0.11757119140625,0.5512211181640625
-0.05413904296875,-0.15359947021484374,0.6913080810546874
-0.2027003515625,-0.08448399658203125,0.8382765087890625
-0.290718671875,0.0255615625,0.909303056640625
-0.40815748046875,-0.06340622802734375,1.012525029296875
-0.45532751953125,0.024581201171875,1.070525947265625
-0.28220861328125,0.13266603759765624,0.9537868115234375
-0.18981369140625,0.11011772705078125,0.84786140625
-0.3009307421875,0.0829127001953125,0.8127167822265625
-0.203186640625,0.07384435791015626,0.756927763671875
-0.14604767578125,0.04982550537109375,0.7271900048828125
-0.09644619140624999,-0.022476142578125,0.658621123046875
-0.019369375,0.11943115966796874,0.6627991552734375
-0.14264365234375,0.08168724853515624,0.8800568310546875
-0.21899103515625,0.05497240234375,1.194392314453125
-0.31819400390625,0.09002031982421875,1.363479736328125
-0.41399294921875,0.12678386962890625,1.40132779296875
-0.43879369140625,0.08756941650390625,1.162934189453125
-0.3967296875,0.07433453857421875,0.973202373046875
-0.3544225390625,-0.12811007568359375,0.851793671875
-0.20804953125,-0.08963089355468751,0.7389868017578125
-0.14264365234375,0.05276658935546875,0.8431918408203125
-0.1088465625,-0.0935523388671875,1.1209081005859376
-0.14993798828125,-0.01291761962890625,1.212087509765625
-0.18349193359375,0.16477287109375,1.1882481494140624
-0.29436583984375,-0.00654527099609375,1.1312302978515625
-0.341292734375,-0.0210056005859375,1.09952640625
-0.3942982421875,-0.06389640869140625,0.9191337207031249
-0.329621796875,-0.11438501708984375,0.7473428662109375
-0.2450075,-0.0876701708984375,0.5988998388671875
-0.25546271484375,-0.0808076416015625,0.57358587890625
-0.20732009765625,-0.02272123291015625,0.598654072265625
-0.268349375,0.0711483642578125,0.7050710107421875
-0.3072525,0.1152646240234375,0.8623616357421875
-0.28415376953125,0.11354899169921875,0.8338527099609375
-0.1443456640625,0.04100225341796875,0.7684787939453125
-0.0869635546875,0.06453092529296875,0.8726838330078125
-0.081614375,0.0486000537109375,1.0289913916015625
-0.15188314453125001,0.12286242431640625,1.163917255859375
-0.33229638671875,-0.010711806640625,1.2236385400390626
-0.2814791796875,0.0044837939453125,1.260749296875
-0.45873154296875,0.07850107421875,1.1479424267578124
-0.3690112109375,0.05889384765625,0.9734481396484375
-0.2591098828125,0.04002189208984375,0.812471015625
-0.2775888671875,-0.06732767333984375,0.6406801611328125
-0.1205175,-0.17271651611328126,0.679265517578125
-0.12562353515625,-0.09183670654296874,1.0149826953125
-0.28609892578125,0.0691876416015625,1.27942755859375
-0.3952708203125,-0.0001729223632812504,1.2860632568359376
-0.26227076171875,0.10472573974609375,1.13786599609375
-0.27929087890625,0.0593840283203125,0.9493630126953125
-0.1890842578125,-0.1587463671875,0.8490902392578125
0.01345513671875,-0.07075893798828126,0.9166760546875
-0.20051205078125,-0.0646316796875,1.0896957421875
-0.29290697265625,0.022620478515625,1.23813876953125
-0.32548833984375003,0.01894412353515625,1.1290183984375
-0.37922328125,-0.0200252392578125,0.9134810888671875
-0.2800203125,0.0182088525390625,0.8154202148437499
-0.29776986328125,0.07286399658203124,0.8898874951171875
-0.325731484375,0.1392834765625,1.0309575244140625
-0.32597462890625,0.01747358154296875,1.003677431640625
-0.29144810546875,-0.04036773681640625,0.9346170166015625
-0.2785614453125,0.01453249755859375,0.909303056640625
-0.28609892578125,0.04712951171875,0.8653108349609375
-0.393811953125,0.013552136230468751,0.7935469873046875
-0.40767119140625,0.13732275390625,0.754961630859375
-0.4127772265625,0.09688284912109375,0.632078330078125
-0.4118046484375,0.026051743164062502,0.598654072265625
-0.27248283203125,-0.11732610107421874,0.6087305029296874
-0.253760703125,-0.15997181884765624,0.6711552197265624
-0.337402421875,-0.06291604736328126,0.7790467578125
-0.40864376953125,0.0270321044921875,0.926015185546875
-0.34834392578125,-0.03742665283203125,1.0565172509765626
-0.3339983984375,0.2495741259765625,1.119679267578125
-0.28998923828125,0.31795432861328127,1.0599579833984376
-0.1219763671875,0.29442565673828125,1.104933271484375
-0.03955037109375,0.150067451171875,1.1422897949218749
-0.10228166015625,-0.0710040283203125,1.0879753759765625
-0.15091056640625,-0.0018885546875000003,1.0307117578125
-0.35126166015625,0.112813720703125,1.158510390625
-0.43004048828125,0.08242251953125,1.1916888818359375
-0.356853984375,0.07482471923828125,1.2319946044921875
-0.35612455078125,0.189281904296875,1.3067076513671876
-0.28366748046875,-0.0121823486328125,1.22634197265625
-0.0597313671875,0.07065818359375,1.32071634765625
-0.09523046875,-0.030319033203124998,1.2590289306640625
-0.070916015625,-0.14502130859375,1.08084814453125
0.0180748828125,-0.076396015625,0.882760263671875
0.0229377734375,-0.09771887451171875,0.8323781103515625
-0.234309140625,-0.03546593017578125,0.9324051171875
-0.26713365234374997,0.0765403515625,1.2039772119140626
-0.37800755859375,0.1113431787109375,1.30302115234375
-0.29752671875000003,0.089285048828125,1.28729208984375
-0.21801845703125,-0.05801424072265625,1.14376439453125
-0.20440236328125,-0.048455717773437504,1.0189149609375
-0.21583015625000002,-0.1464918505859375,0.835573076171875
-0.1958923046875,-0.1298257080078125,0.7257154052734375
-0.27977716796875,-0.085219267578125,0.7434106005859376
-0.25935302734375,-0.14869766357421876,0.9169218212890625
-0.19832375,-0.044534272460937496,0.9518206787109375
-0.142886796875,-0.12663953369140624,0.885709462890625
-0.172064140625,-0.18791211669921876,0.835573076171875
-0.06751199218750001,0.00472888427734375,1.0304659912109375
-0.3670660546875,0.12163697265625,1.353649072265625
-0.48596373046875,0.2378097900390625,1.46424404296875
-0.4361191015625,0.1142842626953125,1.441633515625
-0.43052677734375,0.1956542529296875,1.1722733203125
-0.2834243359375,0.0064445166015625,0.8662939013671875
-0.15139685546875,0.0035034326171875,0.7237492724609375
-0.14021220703125,-0.11095375244140625,0.6347817626953125
-0.07748091796875001,0.06673673828125,0.6689433203125
-0.2177753125,-0.0553182470703125,1.074458212890625
-0.3072525,-0.10311086181640625,1.3956751611328124
-0.37654869140625,0.0535018603515625,1.6060513720703125
-0.61872064453125,0.08634396484375,1.228799638671875
-0.26956509765625,-0.01585870361328125,0.8301662109375
-0.16501294921875,0.0299731884765625,0.6809858837890626
-0.426879609375,0.19442880126953124,0.9449392138671875
-0.32646091796875,0.10423555908203125,1.1290183984375
-0.24330548828125,0.008405239257812499,1.29319048828125
-0.4234755859375,-0.0180645166015625,1.1012467724609376
-0.2488978125,-0.100905048828125,0.9242948193359375
-0.22774423828125,-0.11389483642578124,0.8717007666015625
-0.38092529296875,-0.14428603759765624,0.9611598095703124
-0.28974609375,-0.0249270458984375,1.010558896484375
-0.2488978125,-0.0028689160156250004,0.9606682763671874
-0.22531279296875,-0.116590830078125,0.843437607421875
-0.25862359375,-0.0641414990234375,0.8608870361328125
-0.1424005078125,0.0976181201171875,0.9483799462890625
-0.30068759765624997,0.02139502685546875,1.1209081005859376
-0.39162365234375,0.1789881103515625,1.3244028466796876
-0.37703498046875,0.1392834765625,1.255342431640625
-0.29533841796875,0.030708459472656248,1.0299744580078125
-0.2279873828125,0.009140510253906251,1.0417712548828124
-0.1890842578125,-0.03522083984375,0.9815584374999999
