ax,ay,az
-0.21193984375,0.02972809814453125,1.0221099267578124
-0.24306234375,0.18266446533203126,1.1361456298828125
-0.3067662109375,0.1544790771484375,0.945676513671875
-0.3262177734375,0.106931552734375,1.049881552734375
-0.19370400390625,0.06698182861328125,1.030220224609375
-0.177899609375,0.0750698095703125,0.843437607421875
-0.1890842578125,0.0037485229492187503,0.7905977880859375
-0.0111024609375,-0.04428918212890625,0.8397511083984375
-0.0743200390625,0.14541073486328124,1.12017080078125
-0.4332013671875,0.2554562939453125,1.34037767578125
-0.28220861328125,0.0878145068359375,1.3986243603515625
-0.22701480468750002,0.2451625,1.489312236328125
-0.5236511328125,0.35128661376953124,1.49176990234375
-0.54042810546875,0.2417312353515625,1.3204705810546875
-0.16938955078125,0.1309504052734375,1.19291771484375
-0.24938410156250002,0.10202974609375,1.3278435791015626
-0.3359435546875,0.07065818359375,1.18701931640625
-0.1920019921875,0.01575794921875,0.9385492822265625
-0.13097271484375,0.010856142578125,0.7016302783203126
-0.066053125,-0.08227818359375,0.722520439453125
-0.0344443359375,0.02090484619140625,1.055779951171875
-0.4020788671875,0.0358553564453125,1.354632138671875
-0.57787236328125,0.026296833496093748,1.2693511279296874
-0.34834392578125,0.05105095703125,0.876861865234375
-0.24962724609375,-0.05090662109375,0.6976980126953125
-0.24670951171875,-0.10115013916015625,0.72301197265625
-0.10228166015625,0.07139345458984375,0.8510563720703125
-0.1764407421875,0.10276501708984374,0.951574912109375
-0.24136033203125,0.1103628173828125,1.0801108447265624
-0.032012890625,0.13560712158203125,1.3099026171875
-0.3194097265625,0.16869431640625,1.3553694384765624
-0.3077387890625,0.10521592041015625,1.160968056640625
-0.25692158203125,0.02727719482421875,0.9965502001953125
-0.25983931640625,0.0020328906249999995,0.747097099609375
-0.24525064453125,0.00227798095703125,0.606518603515625
-0.27540056640625,-0.020515419921875,0.7271900048828125
-0.21193984375,0.10031411376953125,0.895540126953125
-0.3359435546875,0.13168567626953126,0.974185439453125
-0.183735078125,0.021885207519531248,0.9980247998046875
-0.0256911328125,0.1858506396484375,1.1661291552734374
-0.47404964843749997,0.2525152099609375,1.19684998046875
-0.27442798828125,0.01453249755859375,0.89504859375
-0.07018658203125,-0.07909200927734375,0.65026505859375
-0.0466015625,-0.03595611083984375,0.58046734375
-0.0777240625,-0.10580685546875,0.661570322265625
-0.23309341796875,0.06060947998046875,0.8495817724609375
-0.3388612890625,0.021640117187500002,0.9704989404296875
-0.36439146484375,-0.098944326171875,0.9749227392578125
-0.27418484375,0.1338914892578125,0.8839890966796875
-0.2756437109375,0.0486000537109375,1.00515203125
-0.20537494140625,0.2338883447265625,1.2319946044921875
-0.29363640625,0.31378779296875,1.2197062744140625
-0.096203046875,0.23658433837890624,1.19881611328125
-0.2775888671875,0.1079119140625,1.1872650830078124
-0.304334765625,0.11452935302734375,1.0845346435546874
-0.13340416015625,0.06355056396484375,0.7729025927734375
-0.14021220703125,0.03659062744140625,0.667468720703125
-0.1103054296875,0.1123235400390625,0.7149016748046875
-0.13875333984375,0.16354741943359374,0.9223286865234375
-0.32646091796875,0.21575166015625,1.1395863623046876
-0.49714837890625,0.136342392578125,1.1695698876953124
-0.154557734375,0.032424091796875,0.8638362353515625
-0.2211793359375,0.0387964404296875,0.7846993896484376
-0.21704587890625,0.07850107421875,0.8151744482421874
-0.18592337890625,0.1471263671875,1.0444746875
-0.2488978125,0.14688127685546876,1.2575543310546875
-0.376305546875,0.17653720703125,1.322190947265625
-0.21266927734375,0.1544790771484375,1.087729609375
-0.1686601171875,0.06109966064453125,0.9048792578125
-0.08331638671875,0.20472259521484376,0.8407341748046875
-0.25303126953125,0.22138873779296875,0.9498545458984375
-0.2255559375,0.1427147412109375,0.9365831494140625
-0.28950294921874997,0.10129447509765625,0.9532952783203125
-0.2756437109375,0.061834931640625,1.1076367041015625
-0.25473328125,0.18217428466796876,1.2541135986328125
-0.35758341796875,0.04345315673828125,1.25386783203125
-0.30992708984375,0.08462833251953125,1.1919346484375
-0.18592337890625,0.0451687890625,1.003677431640625
-0.23357970703125,-0.05017135009765625,0.953541044921875
-0.31576255859375,0.17531175537109375,0.9599309765625
-0.07115916015625,-0.015368522949218751,0.8933282275390625
-0.10908970703125,0.059874208984374996,0.998762099609375
-0.298499296875,-0.028358310546875,1.0127707958984375
-0.18884111328125,0.04639424072265625,0.851793671875
-0.244034921875,0.1054610107421875,0.813945615234375
-0.2960678515625,0.14541073486328124,0.8028861181640625
-0.34493990234375,0.20668331787109376,0.8864467626953125
-0.35199109375,0.216732021484375,1.022355693359375
-0.50201126953125,0.1427147412109375,1.03366095703125
-0.31041337890625,0.1799684716796875,0.8834975634765625
-0.140941640625,0.07286399658203124,0.883251796875
-0.30530734375,0.024581201171875,0.917167587890625
-0.2707808203125,0.17874302001953124,0.8879213623046875
-0.4730770703125,0.03217900146484375,0.8151744482421874
-0.22774423828125,-0.07762146728515625,0.749554765625
-0.36487775390625,-0.01953505859375,0.721537373046875
-0.43174250000000003,-0.0018885546875000003,0.7751144921875
-0.2785614453125,0.0005623486328125002,0.79575888671875
-0.49763466796875,0.038306259765625,0.9127437890625
-0.50881931640625,-0.0141430712890625,0.93142205078125
-0.1589343359375,0.00399361328125,0.97860923828125
-0.31187224609374997,-0.0724745703125,0.97369390625
-0.2017277734375,0.03610044677734375,1.085271943359375
-0.1399690625,0.026541923828125,1.0857634765625
-0.220693046875,-0.034240478515625,1.08674654296875
-0.1676875390625,0.026296833496093748,1.0953483740234375
-0.17425244140625,0.057668395996093746,1.0791277783203126
-0.29242068359375,-0.00997653564453125,1.0491442529296875
-0.41788326171875,0.1378129345703125,0.9321593505859375
-0.220693046875,0.0436982470703125,0.8294289111328125
-0.24281919921875,-0.13497260498046876,0.725469638671875
-0.100093359375,0.026051743164062502,0.7350545361328125
-0.08088494140625,0.01110123291015625,0.7483259326171875
-0.01863994140625,-0.0371815625,0.956490244140625
-0.04854671875,0.15374380615234376,1.250427099609375
-0.063135390625,0.14737145751953126,1.43671818359375
-0.15139685546875,0.06992291259765625,1.32464861328125
-0.2561921484375,0.12874459228515625,1.097068740234375
-0.25789416015625,0.08070688720703124,0.9198710205078124
-0.23747001953125,-0.00850599365234375,0.8087845166015625
-0.2435486328125,-0.02909358154296875,0.7802755908203125
-0.1842213671875,-0.04477936279296875,0.8082929833984375
-0.22701480468750002,-0.0327699365234375,0.8299204443359375
-0.14604767578125,0.0074248779296875,0.7709364599609375
-0.1015522265625,0.04639424072265625,0.7625803955078125
-0.1190586328125,0.07531489990234375,0.83508154296875
-0.12270580078125,0.05962911865234375,0.8458952734375
-0.1706052734375,0.02090484619140625,0.8525309716796875
-0.2600824609375,0.02727719482421875,0.9375662158203125
-0.39551396484375,-0.022476142578125,0.8348357763671875
-0.2221519140625,-0.029338671875,0.6510023583984375
-0.08963814453125,0.0530116796875,0.69745224609375
-0.36366203125,0.09026541015625,0.946168046875
-0.2970404296875,0.012816865234374999,1.0869923095703125
-0.2698082421875,0.0182088525390625,1.12606919921875
-0.29363640625,0.19982078857421876,1.1307387646484375
-0.294608984375,-0.04379900146484375,1.0899415087890625
-0.21996361328125,0.222614189453125,0.9577190771484375
-0.2639727734375,0.10864718505859375,0.879811064453125
-0.31284482421875,0.0608545703125,0.88030259765625
-0.25351755859375,0.230457080078125,0.9567360107421875
-0.39065107421875,-0.11340465576171875,0.92355751953125
-0.4127772265625,0.20423241455078125,0.9351085498046875
-0.4545980859375,0.1887917236328125,0.9513291455078126
-0.44657431640625,0.19982078857421876,1.004660498046875
-0.29242068359375,0.17874302001953124,1.0383305224609374
-0.3767918359375,0.14124419921875,1.038084755859375
-0.31527626953125,0.03806116943359375,1.0958399072265625
-0.33326896484375,-0.030319033203124998,1.02972869140625
-0.23649744140625,-0.04968116943359375,0.951574912109375
-0.2114535546875,-0.03301502685546875,0.873912666015625
-0.30141703125,-0.014633251953124999,0.9419900146484375
-0.31624884765625,0.0799716162109375,1.0796193115234376
-0.27734572265625,0.0035034326171875,1.0464408203125
-0.3719289453125,0.12947986328125,1.107882470703125
-0.3811684375,0.0505607763671875,1.1022298388671874
-0.18300564453125,0.03144373046875,0.9105318896484375
-0.26518849609375,0.13756784423828125,0.778555224609375
-0.24136033203125,0.049090234375,0.7394783349609375
-0.05024873046875,0.0789912548828125,0.7886316552734375
-0.152612578125,-0.0033590966796874996,0.9405154150390624
-0.22725794921875,0.03659062744140625,1.090187275390625
-0.2333365625,0.175556845703125,1.217985908203125
-0.40232201171875,-0.02027032958984375,1.14179826171875
-0.19613544921875,0.1005592041015625,1.0255506591796875
-0.2289599609375,0.0721287255859375,0.9233117529296875
-0.34007701171875,0.101049384765625,1.05233921875
-0.3553951171875,0.0770305322265625,1.0058893310546875
-0.2464663671875,0.1299700439453125,0.8785822314453124
-0.2221519140625,0.03928662109375,0.821810146484375
-0.28755779296875,-0.042083369140625,0.937811982421875
-0.207076953125,0.14050892822265626,1.113780869140625
-0.45313921875,0.023845930175781252,1.15949345703125
-0.39259623046875003,0.10913736572265625,1.2103671435546874
-0.347128203125,-0.042328459472656246,1.1390948291015626
-0.315033125,0.0289928271484375,1.11230626953125
-0.40669861328125,0.16599832275390625,1.1435186279296874
-0.46894361328125,0.0299731884765625,0.9559987109375
-0.3320532421875,0.10570610107421875,0.9277355517578125
-0.3417790234375,-0.13301188232421876,0.98942296875
-0.2717533984375,-0.06928839599609375,0.9444476806640625
-0.3019033203125,-0.06242586669921875,0.7515208984375
-0.06435111328125,-0.07124911865234375,0.726452705078125
-0.19078626953125,0.0221302978515625,0.881777197265625
-0.43101306640625,0.026296833496093748,0.9936010009765625
-0.216802734375,0.14148928955078124,1.1292641650390625
-0.5134390625,0.057913486328125,1.11623853515625
-0.33618669921875,0.05374695068359375,0.9257694189453125
-0.181789921875,-0.0161037939453125,0.7109694091796875
-0.2065906640625,0.0917359521484375,0.7149016748046875
-0.244034921875,-0.00997653564453125,0.7984623193359375
-0.12562353515625,0.1044806494140625,1.0267794921875
-0.35661083984374997,0.0633054736328125,1.146222060546875
-0.36730919921875,0.05276658935546875,1.12803533203125
-0.1920019921875,0.0123266845703125,0.904387724609375
-0.28658521484375,0.038306259765625,0.860149736328125
-0.253760703125,-0.006790361328125,0.977626171875
-0.30992708984375,0.11109808837890625,1.0992806396484376
-0.4200715625,0.04198261474609375,1.0865007763671874
-0.35612455078125,-0.013652890625,0.9444476806640625
-0.18251935546875,0.10766682373046875,0.9429730810546875
-0.34883021484375,0.106931552734375,1.0127707958984375
-0.11249373046875,0.07041309326171875,1.2256046728515626
-0.3806821484375,0.0765403515625,1.4327859179687499
-0.2333365625,-0.042083369140625,1.39837859375
-0.47575166015625,-0.0013983740234375002,1.216019775390625
-0.33083751953125,-0.05458297607421875,1.0098215966796875
-0.269321953125,-0.17835359375,0.8653108349609375
-0.255705859375,0.01747358154296875,0.75840236328125
-0.1725504296875,-0.07468038330078125,0.636993662109375
-0.21169669921875,-0.12271808837890624,0.7227662060546876
-0.2488978125,-0.0097314453125,0.821810146484375
-0.21583015625000002,-0.01732924560546875,0.9365831494140625
-0.31624884765625,0.0927163134765625,1.0098215966796875
-0.31868029296875,0.114774443359375,0.9773804052734375
-0.2795340234375,0.1299700439453125,0.953541044921875
-0.3009307421875,0.079481435546875,0.8515479052734375
-0.1754681640625,0.00227798095703125,0.894557060546875
-0.2133987109375,0.0427178857421875,0.921099853515625
-0.191515703125,0.05178622802734375,0.9356000830078125
-0.1676875390625,0.08266760986328126,0.8800568310546875
-0.21583015625000002,0.02139502685546875,0.971236240234375
-0.33132380859375,0.057913486328125,0.985982236328125
-0.0966893359375,0.00276816162109375,0.8923451611328125
-0.26372962890625,0.0221302978515625,0.9763973388671875
-0.22750109375,0.0682072802734375,1.1076367041015625
-0.288773515625,0.06011929931640625,1.230765771484375
-0.37022693359375003,0.13021513427734374,1.2698426611328124
-0.42371873046874997,-0.0337502978515625,1.0727378466796875
-0.2620276171875,0.1780077490234375,0.9292101513671875
-0.1482359765625,0.0059543359375,0.8392595751953125
-0.14969484375,-0.00948635498046875,1.083305810546875
-0.20683380859375,0.05276658935546875,1.110831669921875
-0.2367405859375,-0.04036773681640625,1.0211268603515624
-0.183735078125,0.07433453857421875,0.8984893261718749
-0.20002576171875,-0.03889719482421875,0.9803296044921875
-0.2386857421875,0.169674677734375,1.1447474609375
-0.3835998828125,0.021885207519531248,1.028254091796875
-0.31819400390625,0.02972809814453125,0.9306847509765624
-0.27540056640625,-0.0337502978515625,0.776589091796875
-0.2036729296875,-0.05360261474609375,0.7674957275390625
-0.1710915625,0.05889384765625,0.9478884130859375
-0.3301080859375,-0.07713128662109375,1.0973145068359376
-0.12319208984375,-0.022476142578125,1.1405694287109376
-0.27977716796875,0.08119706787109375,1.116730068359375
-0.25838044921875,-0.05654369873046875,1.0304659912109375
-0.277102578125,0.01992448486328125,0.84491220703125
-0.26129818359375,-0.024436865234375,0.6696806201171875
-0.159420625,-0.0881603515625,0.7134270751953125
-0.20342978515625,0.032424091796875,0.9395323486328125
-0.35272052734375,0.020659755859375,1.0142453955078126
-0.3019033203125,-0.01928996826171875,0.8159117480468749
-0.16404037109375,0.00987578125,0.63846826171875
-0.11152115234375,0.03708080810546875,0.66796025390625
-0.03298546875,0.00423870361328125,0.905370791015625
-0.1866528125,0.15913579345703124,1.2029941455078126
-0.22701480468750002,0.05717821533203125,1.1479424267578124
-0.17303671874999998,-0.0023787353515625003,0.9282270849609375
-0.086477265625,-0.071494208984375,0.7856824560546875
-0.19127255859375,0.03462990478515625,0.8200897802734375
-0.13948277343749999,0.1868310009765625,0.937811982421875
-0.2095083984375,0.15692998046875,1.1317218310546875
-0.25546271484375,0.0012976196289062499,1.0771616455078126
-0.10519939453125,0.12776423095703124,1.0540595849609375
-0.2678630859375,0.05423713134765625,1.0751955126953125
-0.21558701171875,0.177517568359375,1.0004824658203124
-0.2124261328125,0.06306038330078124,0.8884128955078126
-0.2221519140625,-0.0229663232421875,0.827708544921875
-0.21193984375,-0.0327699365234375,0.802148818359375
-0.1151683203125,-0.06732767333984375,0.7942842871093749
-0.12513724609375,-0.03105430419921875,0.943710380859375
-0.2931501171875,-0.055073156738281254,1.0857634765625
-0.259596171875,0.130460224609375,1.19488384765625
-0.35320681640625,0.03144373046875,1.2791817919921875
-0.3660934765625,0.08854977783203125,1.3180129150390625
-0.271267109375,0.0682072802734375,1.275003759765625
-0.28220861328125,-0.0190448779296875,1.2784444921875
-0.374360390625,-0.028358310546875,1.18505318359375
-0.37119951171875,0.0270321044921875,1.0152284619140626
-0.28561263671875,-0.09967959716796874,0.8105048828125
-0.17133470703125,-0.03840701416015625,0.54999228515625
-0.08331638671875,-0.0553182470703125,0.4578298095703125
-0.0286088671875,-0.05164189208984375,0.531805556640625
-0.0855046875,-0.02517213623046875,0.712689775390625
-0.25862359375,0.06673673828125,0.90586232421875
-0.40694175781249997,0.05864875732421875,1.028254091796875
-0.17133470703125,0.11207844970703125,1.258291630859375
-0.24816837890625,0.0907555908203125,1.1587561572265626
-0.183735078125,-0.0055649096679687505,0.9233117529296875
-0.199296328125,0.019434304199218752,0.8672769677734375
-0.0714023046875,-0.139139140625,0.862115869140625
-0.08963814453125,-0.02958376220703125,1.0501273193359375
-0.21169669921875,-0.1013952294921875,1.10640787109375
-0.24476435546875,-0.075415654296875,0.9375662158203125
-0.234309140625,0.00963069091796875,0.6886046484375
-0.19637859375,-0.10948321044921874,0.5895607080078125
-0.14118478515625,-0.0004180126953125,0.679265517578125
-0.18106048828125,0.12188206298828125,1.0088385302734375
-0.28172232421875,0.09933375244140626,1.4335232177734376
-0.29436583984375,0.061834931640625,1.6389840966796876
-0.3320532421875,0.24712322265625,1.5392028564453124
-0.27540056640625,0.02335574951171875,1.2511643994140624
-0.30652306640625,0.09100068115234375,1.1115689697265625
-0.35612455078125,-0.01193725830078125,1.0363643896484376
-0.1414279296875,-0.0332601171875,0.8780906982421874
-0.1064151171875,-0.06487677001953125,0.6335529296875
-0.07602205078125,-0.11634573974609375,0.569162080078125
-0.0932853125,-0.140119501953125,0.6716467529296875
-0.15382830078125,-0.07713128662109375,0.809030283203125
-0.279047734375,0.081442158203125,1.06708521484375
-0.3942982421875,0.080461796875,1.258291630859375
-0.35855599609375,0.0338946337890625,1.3492252734375
-0.38141158203125003,0.12972495361328126,1.262223896484375
-0.21972046875,-0.02419177490234375,0.9311762841796875
-0.1297569921875,-0.03840701416015625,0.855234404296875
-0.049762441406249996,0.0574233056640625,0.9700074072265625
-0.19637859375,0.0270321044921875,1.1422897949218749
-0.24622322265625,0.09198104248046875,1.2329776708984375
-0.2386857421875,0.08364797119140625,1.0582376171875
-0.26470220703125,0.050070595703125,0.8795652978515625
-0.21412814453125,0.0054641552734375,0.72497810546875
-0.21583015625000002,-0.08105273193359375,0.6952403466796875
-0.18495080078125,-0.067572763671875,0.6291291308593749
-0.237226875,0.03659062744140625,0.739232568359375
-0.28998923828125,-0.01634888427734375,0.964354775390625
-0.35977171875,0.06649164794921875,1.1061621044921874
-0.2445212109375,0.093206494140625,1.1848074169921876
-0.26761994140625,0.030463369140625002,1.2265877392578124
-0.2357680078125,0.0633054736328125,1.14179826171875
-0.10228166015625,-0.05752406005859375,1.1228742333984374
-0.3388612890625,0.046149150390625,1.2902412890625
-0.31965287109375,-0.079337099609375,1.1041959716796874
-0.1929745703125,-0.2190385888671875,0.8576920703124999
-0.33910443359375,-0.1259042626953125,0.7257154052734375
-0.20440236328125,-0.10948321044921874,0.550483818359375
-0.08963814453125,-0.16487362548828124,0.517059560546875
-0.282938046875,-0.0474753564453125,0.64043439453125
-0.21072412109375,0.14394019287109375,0.7960046533203124
-0.249870390625,0.222614189453125,0.9297016845703125
-0.24865466796875,0.1721255810546875,1.0186691943359376
-0.2095083984375,0.263789365234375,1.0324321240234375
-0.28512634765625,0.17237067138671874,0.9953213671875
-0.2022140625,0.2025167822265625,1.1388490625
-0.34591248046875,0.195164072265625,1.341852275390625
-0.3145468359375,0.1240878759765625,1.4885749365234375
-0.42177357421875,0.04100225341796875,1.5008632666015624
-0.33618669921875,-0.09281706787109376,1.1213996337890624
-0.1851939453125,-0.06683749267578125,0.7861739892578125
-0.22750109375,-0.1396293212890625,0.7043337109375
-0.10763083984374999,-0.15408965087890625,0.84491220703125
-0.2357680078125,-0.006790361328125,1.088221142578125
-0.22361078125,0.06453092529296875,1.2737749267578125
-0.3787369921875,-0.0013983740234375002,1.20962984375
-0.39794541015625,-0.02419177490234375,1.091170341796875
-0.31381740234375,0.00987578125,0.902913125
-0.35952857421875,-0.00850599365234375,0.9326508837890625
-0.43684853515625,0.03928662109375,0.9631259423828125
-0.230418828125,-0.061690595703125004,0.955507177734375
-0.27734572265625,-0.06389640869140625,1.082322744140625
-0.421044140625,-0.0999246875,1.0520934521484375
-0.10325423828125,-0.0023787353515625003,0.870963466796875
-0.04465640625,-0.00458454833984375,0.8141913818359375
-0.4511940625,0.09026541015625,0.9208540869140625
-0.16355408203125,0.042227705078125,1.012525029296875
-0.40718490234375,0.10325519775390625,1.2536220654296875
-0.4633512890625,0.12874459228515625,1.27156302734375
-0.39405509765625,0.06624655761718751,1.076424345703125
-0.1706052734375,0.064776015625,0.9048792578125
-0.25983931640625,0.206928408203125,0.78789435546875
-0.1258666796875,-0.100905048828125,0.7753602587890625
-0.070916015625,-0.14502130859375,0.9609140429687499
-0.1472633984375,-0.063651318359375,1.2575543310546875
-0.42906791015625,0.00668960693359375,1.3413607421875
-0.1832487890625,-0.2249207568359375,1.17522251953125
-0.376305546875,-0.15948163818359376,1.15949345703125
-0.401592578125,-0.12124754638671875,0.8889044287109376
-0.148722265625,-0.22075422119140625,0.7124440087890624
-0.2250696484375,0.00178780029296875,0.7257154052734375
-0.27102396484375,0.021640117187500002,0.761843095703125
-0.19248828125,0.008405239257812499,0.820827080078125
-0.240144609375,0.167713955078125,0.851302138671875
-0.22434021484375,0.146146005859375,0.8431918408203125
-0.0986344921875,-0.05458297607421875,0.993355234375
-0.1579617578125,0.11403917236328125,1.2587831640625
-0.3694975,0.09933375244140626,1.3671662353515626
-0.42809533203125,0.0299731884765625,1.2457575341796876
-0.23309341796875,0.0123266845703125,1.0053977978515625
-0.12513724609375,-0.00213364501953125,0.8576920703124999
-0.33642984375,-0.107767578125,0.9675497412109375
-0.2328502734375,-0.07615092529296875,1.20864677734375
-0.31284482421875,0.0780108935546875,1.2260962060546876
-0.3320532421875,0.12482314697265626,1.104933271484375
-0.28220861328125,-0.04330882080078125,0.9980247998046875
-0.28269490234375,0.02580665283203125,0.906353857421875
-0.1696326953125,-0.02713285888671875,0.9813126708984374
-0.31673513671875,-0.12320826904296875,1.0936280078125
-0.3408064453125,-0.05703387939453125,1.105916337890625
-0.3359435546875,-0.0396324658203125,0.858183603515625
-0.2639727734375,-0.07370002197265625,0.6986810791015625
-0.27929087890625,-0.171491064453125,0.658621123046875
-0.28269490234375,-0.15752091552734376,0.6927826806640625
-0.20829267578125,-0.16634416748046876,0.639451328125
-0.35126166015625,-0.1366882373046875,0.7124440087890624
-0.39162365234375,-0.0121823486328125,0.780521357421875
-0.28804408203125,-0.0396324658203125,0.7045794775390625
-0.27005138671875,-0.034240478515625,0.61192546875
-0.1637972265625,-0.0827683642578125,0.5856284423828125
-0.10033650390625,-0.0881603515625,0.6765620849609375
-0.20342978515625,0.0182088525390625,0.8078014501953125
-0.29776986328125,0.15276344482421875,0.8805483642578125
-0.27637314453125,0.04835496337890625,0.810996416015625
-0.22288134765625,0.03413972412109375,0.796250419921875
-0.18203306640625,0.155949619140625,0.860149736328125
-0.2775888671875,-0.008996174316406251,0.856217470703125
-0.31673513671875,0.059874208984374996,0.827708544921875
-0.08428896484375001,0.08266760986328126,0.757910830078125
-0.12513724609375,0.0035034326171875,0.8530225048828125
-0.2824517578125,-0.03497574951171875,1.0093300634765625
-0.3330258203125,0.07335417724609375,1.1258234326171874
-0.3388612890625,0.0838930615234375,1.1130435693359375
-0.3592854296875,-0.044044091796875,1.0176861279296876
-0.082586953125,-0.02419177490234375,1.0442289208984374
-0.232363984375,0.00227798095703125,1.031203291015625
-0.2299325390625,0.16085142578125,1.032186357421875
-0.30555048828125,0.11354899169921875,1.0727378466796875
-0.36196001953125,0.099088662109375,1.12213693359375
-0.3641483203125,0.16011615478515626,1.0535680517578125
-0.221665625,0.00399361328125,0.9936010009765625
-0.23017568359375,-0.02713285888671875,1.0982975732421876
-0.378250703125,-0.12712971435546874,1.1715360205078125
-0.20780638671875,-0.10605194580078126,1.0186691943359376
-0.3680386328125,-0.0072805419921875,0.8707177001953125
-0.2630001953125,-0.03522083984375,0.8490902392578125
-0.19953947265625,-0.013162709960937501,0.9690243408203125
-0.1676875390625,-0.00997653564453125,1.126560732421875
-0.3641483203125,0.036345537109375,1.1297556982421875
-0.30919765625,-0.1553151025390625,1.0575003173828126
-0.3835998828125,-0.151883837890625,1.0339067236328126
-0.36220316406249997,-0.0494360791015625,0.8889044287109376
-0.34688505859375,-0.11561046875,0.6952403466796875
-0.13972591796875,-0.093062158203125,0.63846826171875
-0.07164544921875,0.016738310546875,0.68958771484375
-0.17182099609375,0.07188363525390624,0.916184521484375
-0.308225078125,0.03364954345703125,1.201273779296875
-0.37898013671874997,0.21207530517578124,1.3450472412109375
-0.35320681640625,0.28266132080078127,1.22240970703125
-0.30020130859375,0.06894255126953125,1.0582376171875
-0.28172232421875,-0.05213207275390625,1.0228472265625
-0.23819945312500002,-0.04306373046875,0.926998251953125
-0.13024328125,-0.1553151025390625,0.90586232421875
-0.25546271484375,-0.0016434643554687498,1.1386032958984376
-0.19613544921875,-0.0180645166015625,1.4074719580078126
-0.35028908203125,-0.0690433056640625,1.3937090283203124
-0.29874244140625,0.00227798095703125,1.40132779296875
-0.43149935546875,0.0505607763671875,1.1739936865234375
-0.341292734375,-0.0494360791015625,0.928964384765625
-0.245980078125,-0.01438816162109375,0.8338527099609375
-0.12027435546875,-0.0680629443359375,1.0319405908203125
-0.3660934765625,0.00717978759765625,1.2374014697265625
-0.500795546875,-0.10213050048828125,1.26959689453125
-0.3096839453125,0.057668395996093746,1.1027213720703124
-0.37922328125,0.04320806640625,0.9763973388671875
-0.03274232421875,-0.05850442138671875,1.139340595703125
-0.35101851562499997,-0.00654527099609375,1.511922763671875
-0.4409819921875,-0.06634731201171876,1.394937861328125
-0.4905834765625,-0.07419020263671874,1.070525947265625
-0.46797103515625,-0.0553182470703125,0.8122252490234375
-0.08817927734375,-0.11487519775390626,0.6846723828125
-0.10276794921875,-0.2214894921875,0.8461410400390625
-0.37898013671874997,0.05423713134765625,1.09461107421875
-0.2785614453125,-0.0053198193359375,1.1538408251953125
-0.14118478515625,0.10815700439453126,1.2025026123046876
-0.2873146484375,0.2544759326171875,1.204222978515625
-0.16525609375,0.071638544921875,1.0444746875
-0.1492085546875,0.1956542529296875,1.009575830078125
-0.25351755859375,-0.037916833496093746,0.9400238818359374
-0.22579908203125,-0.024436865234375,0.927981318359375
-0.36730919921875,-0.14918784423828124,0.7837163232421875
-0.13875333984375,-0.1866866650390625,0.651739658203125
-0.22701480468750002,-0.09526797119140624,0.5374581884765625
-0.13778076171875,-0.10654212646484375,0.588823408203125
-0.0791829296875,-0.1866866650390625,0.720554306640625
-0.199296328125,-0.16732452880859375,0.94518498046875
-0.2027003515625,-0.00801581298828125,0.973202373046875
-0.2882872265625,-0.14085477294921875,0.915201455078125
-0.08355953125,0.01747358154296875,0.95894791015625
-0.133161015625,0.0008074389648437498,0.9424815478515625
-0.29339326171875,0.1378129345703125,0.9552614111328125
-0.1910294140625,0.07261890625,0.9414984814453125
-0.0869635546875,0.11501953369140624,0.950591845703125
-0.20391607421875,0.16060633544921876,1.1091113037109375
-0.24670951171875,0.05717821533203125,1.2954023876953125
-0.32208431640625,0.16085142578125,1.15752732421875
-0.31041337890625,0.01257177490234375,0.9061080908203125
-0.39989056640625,0.09394176513671874,0.74463943359375
-0.26664736328125,-0.0631611376953125,0.5979167724609376
-0.11589775390625,-0.1523740185546875,0.6569007568359375
-0.14458880859375,0.089285048828125,0.7694618603515625
-0.257651015625,-0.12124754638671875,0.7645465283203124
-0.090367578125,-0.17026561279296876,0.7458682666015625
-0.2022140625,0.0883046875,0.747097099609375
-0.30627992187499997,0.08609887451171874,0.7121982421874999
-0.21607330078125,-0.0955130615234375,0.757419296875
-0.0869635546875,0.0603643896484375,0.891116328125
-0.26032560546875,-0.0964934228515625,0.924049052734375
-0.28366748046875,-0.2406065380859375,0.7969877197265625
-0.255705859375,-0.1317864306640625,0.5674417138671874
-0.265431640625,-0.05262225341796875,0.4288293505859375
-0.2542469921875,-0.0006631030273437505,0.3752522314453125
-0.0568136328125,-0.075415654296875,0.46594010742187497
-0.06970029296875,0.00227798095703125,0.8461410400390625
-0.3500459375,0.14982236083984374,1.1508916259765625
-0.584437265625,0.19835024658203124,1.3425895751953125
-0.59343361328125,0.2436919580078125,1.1784174853515625
-0.2843969140625,0.24834867431640625,0.8490902392578125
-0.12027435546875,0.1407540185546875,0.8579378369140624
-0.31381740234375,0.1446754638671875,1.0339067236328126
-0.16015005859375,0.0338946337890625,0.9542783447265625
-0.17279357421875,0.0299731884765625,0.666485654296875
-0.24719580078125,0.01306195556640625,0.5910353076171875
-0.249870390625,-0.13546278564453124,0.6141373681640625
-0.14507509765624998,-0.050661530761718754,0.7380037353515625
-0.35393625,0.0309535498046875,1.0560257177734376
-0.42128728515625,-0.1665892578125,1.213562109375
-0.3500459375,-0.2474690673828125,1.1646545556640624
-0.32840607421875,-0.1239435400390625,0.7581565966796875
-0.11832919921875,-0.09134652587890625,0.644858193359375
-0.24914095703125,-0.05458297607421875,0.7947758203124999
-0.370470078125,-0.06291604736328126,1.052830751953125
-0.27442798828125,0.22947671875,1.25780009765625
-0.252788125,0.273592978515625,1.3942005615234374
-0.3904079296875,0.08658905517578125,1.2034856787109376
-0.1754681640625,0.128499501953125,0.9144641552734375
-0.18932740234375,0.11452935302734375,0.9070911572265625
-0.29752671875000003,0.09002031982421875,1.072000546875
-0.26056875,-0.06536695068359374,1.2211808740234376
-0.3344846875,0.0182088525390625,1.3489795068359376
-0.34007701171875,-0.029338671875,1.359547470703125
-0.4939875,-0.09134652587890625,1.2059433447265624
-0.343237890625,-0.1298257080078125,1.009084296875
-0.15334201171875,-0.08448399658203125,1.0496357861328125
-0.36439146484375,0.00865032958984375,1.2511643994140624
-0.21121041015625,-0.110708662109375,1.17522251953125
-0.1248941015625,-0.1366882373046875,0.90782845703125
-0.0932853125,-0.02517213623046875,0.8844806298828125
-0.1744955859375,-0.068553125,1.0388220556640624
-0.3009307421875,0.1348718505859375,1.20962984375
-0.5158705078125,0.1838899169921875,1.2260962060546876
-0.42979734375,-0.048945898437499996,1.1533492919921875
-0.3476144921875,0.05374695068359375,1.091170341796875
-0.22531279296875,-0.044044091796875,1.0385762890625
-0.1871391015625,-0.04698517578125,1.0909245751953125
-0.24427806640625,0.08462833251953125,1.0604495166015624
-0.08769298828125,0.0633054736328125,1.1636714892578124
-0.20197091796875,-0.14232531494140624,1.2587831640625
-0.09985021484375001,0.09492212646484376,1.4408962158203125
-0.47648109375000003,-0.09281706787109376,1.37183580078125
-0.37071322265625,0.01747358154296875,1.289749755859375
-0.411318359375,0.010611052246093749,1.1852989501953124
-0.39502767578125,-0.0504164404296875,1.1513831591796875
-0.333512109375,-0.06683749267578125,0.8245135791015625
-0.3048210546875,-0.08252327392578125,0.74463943359375
-0.226528515625,-0.144040947265625,0.7502920654296875
-0.1219763671875,-0.18791211669921876,0.801165751953125
-0.05243703125,-0.17026561279296876,0.67484171875
-0.024232265625,-0.07566074462890625,0.788385888671875
-0.13437673828125,-0.0866898095703125,0.9685328076171875
-0.34007701171875,0.103010107421875,1.2467406005859374
-0.34737134765625,0.130460224609375,1.4907868359375
-0.45775896484375,0.23119235107421876,1.540431689453125
-0.42055785156250003,0.18903681396484376,1.054796884765625
-0.29339326171875,0.0809519775390625,0.778555224609375
-0.1881116796875,0.02335574951171875,0.6849181494140625
-0.12562353515625,-0.065612041015625,0.6210188330078125
-0.0310403125,-0.1327667919921875,0.7741314257812499
-0.2022140625,0.10276501708984374,1.117713134765625
-0.3972159765625,-0.010221625976562499,1.2430541015625
-0.220693046875,-0.040122646484374996,1.0663479150390625
-0.2542469921875,0.06624655761718751,0.825742412109375
-0.3330258203125,-0.16095218017578125,0.8682600341796876
-0.067025703125,0.0211499365234375,0.3359295751953125
-0.046358417968749996,-0.006790361328125,0.4951863330078125
-0.2902323828125,-0.018554697265625,0.8530225048828125
-0.2581373046875,0.096147578125,1.3374284765625
-0.212912421875,0.15374380615234376,1.7215616748046876
-0.5683897265625,0.3289833935546875,1.798978154296875
-0.50395642578125,0.2740831591796875,1.3919886621093749
-0.3855450390625,0.06698182861328125,0.9641090087890625
-0.11784291015625001,0.0564429443359375,0.6996641455078125
0.0180748828125,-0.09085634521484375,0.61684080078125
0.03144783203125,-0.089140712890625,1.041033955078125
-0.30117388671875,-0.10360104248046875,1.468667841796875
-0.53070232421875,-0.09722869384765626,1.564025283203125
-0.40329458984375,-0.037916833496093746,1.4143534228515624
-0.30749564453125,-0.1141399267578125,1.14376439453125
-0.2328502734375,-0.046249904785156254,0.9931094677734374
-0.26372962890625,0.03413972412109375,0.8908705615234375
-0.339347578125,-0.05164189208984375,0.76430076171875
-0.2795340234375,-0.0053198193359375,0.662553388671875
-0.24962724609375,-0.0817880029296875,0.61290853515625
-0.16185207031249998,-0.1013952294921875,0.7581565966796875
0.0034862109374999978,-0.11928682373046876,0.9056165576171875
-0.15382830078125,-0.13056097900390626,1.068559814453125
-0.251815546875,-0.044534272460937496,1.1553154248046875
-0.38724705078125,-0.01095689697265625,0.9405154150390624
-0.392839375,0.091245771484375,0.725469638671875
-0.1744955859375,-0.03252484619140625,0.525907158203125
0.02269462890625,0.05374695068359375,0.6903250146484375
-0.2318776953125,0.15423398681640624,1.0280083251953125
-0.29922873046875,0.140263837890625,1.2944193212890625
-0.41788326171875,0.2182025634765625,1.3300554785156251
-0.33375525390625,0.091245771484375,1.268122294921875
-0.28512634765625,0.011346323242187501,1.19488384765625
-0.04854671875,0.04394333740234375,1.292698955078125
-0.2955815625,0.13413657958984376,1.4082092578125
-0.45824525390625,0.0780108935546875,1.24403716796875
-0.39989056640625,0.1123235400390625,0.941744248046875
-0.26227076171875,-0.03301502685546875,0.81148794921875
-0.17230728515625,-0.04772044677734375,0.784453623046875
-0.22190876953125,-0.114630107421875,0.7311222705078125
-0.23795630859375,-0.1759026904296875,0.6807401171875
-0.2260422265625,-0.18938265869140625,0.6335529296875
-0.1997826171875,-0.20212735595703124,0.6040609375
-0.15358515625,-0.2317832861328125,0.7414444677734375
-0.244034921875,-0.271487919921875,0.9896687353515625
-0.33229638671875,-0.008996174316406251,1.1867735498046874
-0.37581925781250003,-0.059729873046875,1.19488384765625
-0.3631757421875,0.11943115966796874,1.1076367041015625
-0.376305546875,0.19442880126953124,0.941744248046875
-0.2542469921875,0.1809488330078125,0.9306847509765624
-0.12805498046875,0.1123235400390625,0.985490703125
-0.2445212109375,-0.05360261474609375,0.8967689599609375
-0.154557734375,0.05889384765625,0.7212916064453125
-0.2484115234375,-0.071494208984375,0.59128107421875
-0.218747890625,-0.00507472900390625,0.58145041015625
-0.29339326171875,0.040266982421875,0.7203085400390625
-0.30141703125,0.0486000537109375,0.984016103515625
-0.28634207031250003,0.09247122314453125,1.229291171875
-0.29971501953125,0.07850107421875,1.2580458642578125
-0.2775888671875,0.0838930615234375,1.34037767578125
-0.33108066406250003,0.09810830078125,1.306461884765625
-0.37168580078125,0.10423555908203125,1.313343349609375
-0.2785614453125,-0.09036616455078125,1.14671359375
-0.12756869140625,-0.1347275146484375,1.012525029296875
-0.2581373046875,-0.085219267578125,0.9891772021484375
-0.26178447265625,-0.196980458984375,0.8989808593749999
-0.1210037890625,-0.15261910888671876,0.9724650732421874
-0.40183572265625,-0.09624833251953124,1.06708521484375
-0.26956509765625,-0.1729616064453125,0.969270107421875
-0.29825615234375,0.00619942626953125,0.7434106005859376
-0.3033621875,0.0564429443359375,0.6711552197265624
-0.19905318359375002,-0.04968116943359375,0.6190527001953126
-0.226528515625,0.024091020507812498,0.7974792529296875
-0.2163164453125,0.0672269189453125,0.9827872705078124
-0.32086859375,0.09149086181640625,1.1420440283203126
-0.29874244140625,0.171635400390625,1.180629384765625
-0.26056875,0.03659062744140625,0.9719735400390626
-0.10860341796875,-0.013407800292968751,0.899472392578125
-0.257651015625,-0.00948635498046875,0.9439561474609375
-0.216802734375,-0.030073942871093752,1.0137538623046876
-0.26251390625,-0.15948163818359376,0.9105318896484375
-0.2873146484375,-0.12761989501953125,0.930438984375
-0.37703498046875,-0.18987283935546875,0.9520664453125
-0.3106565234375,-0.08497417724609375,0.9872110693359375
-0.27151025390625,0.0946770361328125,1.00416896484375
-0.30360533203125,0.03610044677734375,1.0398051220703124
-0.1472633984375,0.01012087158203125,1.1120605029296875
-0.06921400390625,0.08609887451171874,1.186527783203125
-0.247925234375,0.05276658935546875,1.17718865234375
-0.29582470703125,-0.01438816162109375,0.8970147265625
-0.25254498046875,-0.010221625976562499,0.7242408056640625
-0.2678630859375,-0.0582593310546875,0.6293748974609374
-0.08672041015625,-0.13889405029296875,0.742181767578125
-0.1997826171875,-0.0474753564453125,0.9365831494140625
-0.27005138671875,-0.17835359375,1.1926719482421875
-0.4448723046875,-0.05115171142578125,1.152120458984375
-0.42080099609375,0.026296833496093748,0.8989808593749999
-0.19905318359375002,0.05178622802734375,0.72104583984375
-0.11735662109375,0.06502110595703126,0.733825703125
-0.08769298828125,0.0917359521484375,0.9380577490234375
-0.21461443359375,0.0799716162109375,1.079373544921875
-0.28658521484375,0.111833359375,1.0464408203125
-0.19953947265625,0.09492212646484376,0.9336339501953125
-0.339347578125,0.122617333984375,0.97860923828125
-0.2746711328125,0.11256863037109376,1.0334151904296875
-0.19467658203125,-0.0249270458984375,1.07691587890625
-0.2153438671875,-0.013652890625,1.127543798828125
-0.38676076171875,-0.0016434643554687498,1.213070576171875
-0.36730919921875,-0.00752563232421875,1.2329776708984375
-0.4137498046875,-0.1759026904296875,1.111323203125
-0.273212265625,0.0005623486328125002,0.8952943603515625
-0.170118984375,-0.106787216796875,0.639451328125
-0.0344443359375,-0.140119501953125,0.6814774169921874
-0.13948277343749999,-0.004829638671875,0.8576920703124999
-0.140941640625,0.06306038330078124,0.9459222802734375
-0.16720125,0.1289896826171875,1.128526865234375
-0.35588140625,0.1417343798828125,1.24010490234375
-0.31187224609374997,0.224574912109375,1.1054248046875
-0.210967265625,0.06624655761718751,0.9709904736328125
-0.44317029296875,0.06257020263671875,1.088221142578125
-0.52292169921875,-0.0915916162109375,0.9646005419921875
-0.19029998046875,-0.23840072509765625,0.6814774169921874
-0.11735662109375,-0.18301031005859375,0.4765080712890625
-0.0383346484375,-0.16242272216796874,0.5042796972656249
0.00810595703125,-0.132276611328125,0.6519854248046875
0.0404441796875,-0.04919098876953125,1.0884669091796875
-0.24719580078125,0.0770305322265625,1.4035396923828125
-0.413263515625,0.1235976953125,1.7048495458984374
-0.34737134765625,0.2726126171875,1.4966852343750001
-0.26275705078125,0.09100068115234375,1.14573052734375
-0.23163455078125,-0.0268877685546875,0.8933282275390625
-0.30360533203125,-0.059729873046875,0.837539208984375
-0.28561263671875,-0.1259042626953125,0.733825703125
-0.21583015625000002,-0.17639287109375001,0.7006472119140625
-0.113709453125,-0.2376654541015625,0.6662398876953125
0.02658494140625,-0.1523740185546875,0.852285205078125
-0.310170234375,-0.10727739746093751,1.204222978515625
-0.52972974609375,-0.057769150390625,1.3160467822265625
-0.4186126953125,0.1142842626953125,0.9970417333984375
-0.2172890234375,0.06355056396484375,0.68270625
-0.11638404296875,-0.02419177490234375,0.6689433203125
-0.13607875,0.1113431787109375,0.9402696484374999
-0.35466568359375,0.17286085205078125,1.15949345703125
-0.30020130859375,0.1133039013671875,1.0919076416015625
-0.32597462890625,0.16697868408203126,1.0466865869140625
-0.22142248046875002,0.16305723876953124,1.11034013671875
-0.1783858984375,0.0789912548828125,1.2098756103515624
-0.13972591796875,0.00325834228515625,1.4630152099609375
-0.463837578125,0.07923634521484375,1.56058455078125
-0.5606091015625,-0.02615249755859375,1.166866455078125
-0.1414279296875,-0.1092381201171875,0.664519521484375
-0.30627992187499997,-0.06977857666015624,0.474787705078125
-0.230418828125,-0.1866866650390625,0.450702578125
-0.09255587890625,-0.206784072265625,0.603569404296875
-0.15236943359375,-0.0170841552734375,0.8540055712890625
-0.3466419140625,-0.06340622802734375,0.9405154150390624
-0.417153828125,-0.02174087158203125,1.0614325830078124
-0.25157240234375,-0.008751083984375,0.8436833740234375
-0.082586953125,0.07776580322265625,0.828200078125
-0.09790505859375,0.044188427734375,0.951574912109375
-0.2610550390625,-0.024436865234375,1.2290454052734374
-0.2542469921875,-0.0592396923828125,1.4327859179687499
-0.45240978515625,-0.1415900439453125,1.339394609375
-0.33424154296874997,-0.248939609375,0.9375662158203125
-0.22725794921875,-0.10360104248046875,0.6699263867187499
-0.08380267578125,-0.048455717773437504,0.714655908203125
-0.34202216796875,-0.08301345458984374,0.97860923828125
-0.339347578125,0.06011929931640625,1.189476982421875
-0.19078626953125,0.032424091796875,1.2093840771484374
-0.21753216796875,-0.01879978759765625,1.1061621044921874
-0.28755779296875,-0.008751083984375,0.996795966796875
-0.2805066015625,0.01575794921875,0.8092760498046875
-0.152612578125,0.1201664306640625,0.7743771923828124
-0.2873146484375,0.07825598388671876,0.8785822314453124
-0.29193439453125003,-0.013407800292968751,1.0629071826171874
-0.26640421875,-0.07762146728515625,1.0992806396484376
-0.31333111328125,-0.02419177490234375,1.097068740234375
-0.2450075,-0.02860340087890625,0.99237216796875
-0.1803310546875,-0.00948635498046875,1.007609697265625
-0.296554140625,0.106931552734375,1.0211268603515624
-0.22385392578125,-0.052867343750000004,1.0206353271484374
-0.25473328125,-0.03497574951171875,1.13786599609375
-0.24768208984375,-0.16046199951171874,1.095102607421875
-0.179844765625,-0.14894275390625,1.124594599609375
-0.23163455078125,-0.12958061767578125,0.9818042041015624
-0.31284482421875,-0.05899460205078125,0.9483799462890625
-0.41788326171875,-0.0464949951171875,0.882760263671875
-0.2805066015625,0.01698340087890625,0.82328474609375
-0.146777109375,0.0897752294921875,0.7633176953125
-0.11857234375,0.024581201171875,0.7930554541015625
-0.00891416015625,0.01012087158203125,0.98843990234375
-0.15723232421875,0.0010525292968750002,1.180629384765625
-0.22239505859375,-0.03252484619140625,1.285817490234375
-0.39794541015625,-0.0190448779296875,1.159984990234375
-0.3301080859375,-0.011201987304687501,1.0053977978515625
-0.23698373046875,-0.053847705078125,0.8852179296875
-0.24816837890625,-0.0396324658203125,0.89996392578125
-0.14653396484375,0.02923791748046875,1.070525947265625
-0.28707150390625,0.146146005859375,1.1744852197265625
-0.22677166015625,0.0760501708984375,1.1789090185546875
-0.26421591796875,0.10570610107421875,1.1489254931640625
-0.15577345703125,-0.02664267822265625,1.0697886474609375
-0.24768208984375,-0.0053198193359375,0.9759058056640625
-0.16598552734375,-0.110708662109375,0.9144641552734375
-0.3262177734375,-0.00360418701171875,0.9488714794921875
-0.36755234375,0.0593840283203125,1.00023669921875
-0.32889236328125,0.0020328906249999995,1.048898486328125
-0.27296912109375,0.0093856005859375,1.03759322265625
-0.19248828125,-0.05115171142578125,1.021372626953125
-0.30409162109375,0.0368357177734375,0.985982236328125
-0.21558701171875,-0.08227818359375,0.7866655224609375
-0.0699434375,-0.18399067138671876,0.84491220703125
-0.17376615234375,0.00865032958984375,1.1356540966796875
-0.3242726171875,0.01404231689453125,1.2546051318359375
-0.3126016796875,0.02237538818359375,1.2226554736328126
-0.36098744140625,0.0348749951171875,1.0692971142578125
-0.29971501953125,-0.01561361328125,0.9704989404296875
-0.31041337890625,0.05668803466796875,0.92650671875
-0.107873984375,0.01747358154296875,0.902421591796875
-0.23844259765625,-0.096983603515625,0.819844013671875
-0.2795340234375,-0.04306373046875,0.7384952685546875
-0.1715778515625,0.00399361328125,0.7266984716796875
-0.191515703125,-0.0700236669921875,0.8026403515625
-0.13000013671875,-0.09845414550781251,0.95108337890625
-0.15869119140625,-0.1337471533203125,1.0444746875
-0.21315556640625,-0.16977543212890625,1.1061621044921874
-0.29825615234375,-0.1102184814453125,1.094119541015625
-0.31187224609374997,0.15962597412109375,0.9503460791015625
-0.26859251953125,-0.00752563232421875,0.7684787939453125
-0.24768208984375,0.03806116943359375,0.7591396630859375
-0.11881548828124999,-0.00850599365234375,0.838522275390625
-0.15771861328125,-0.046004814453125,0.947642646484375
-0.20732009765625,-0.1141399267578125,1.12803533203125
-0.34348103515625,0.026296833496093748,1.1553154248046875
-0.24038775390625,-0.0006631030273437505,1.0909245751953125
-0.2766162890625,0.0289928271484375,1.07888201171875
-0.33375525390625,-0.02517213623046875,1.0319405908203125
-0.17960162109375,0.06453092529296875,1.0540595849609375
-0.27151025390625,-0.05482806640625,0.905370791015625
-0.26761994140625,-0.02027032958984375,0.8569547705078124
-0.2007551953125,0.0201695751953125,0.9621428759765625
-0.3748466796875,-0.035711020507812496,1.041033955078125
-0.21753216796875,0.091245771484375,1.0692971142578125
-0.2474389453125,0.046149150390625,1.010558896484375
-0.18640966796875,0.021885207519531248,0.98843990234375
-0.1686601171875,0.0037485229492187503,0.970253173828125
-0.26056875,0.0456589697265625,1.0609410498046874
-0.11468203125,-0.059729873046875,1.0732293798828125
-0.33108066406250003,-0.09967959716796874,1.071509013671875
-0.31576255859375,0.052031318359375,1.0923991748046875
-0.2143712890625,-0.24134180908203126,0.8989808593749999
-0.23163455078125,-0.177373232421875,0.78592822265625
-0.2114535546875,0.011346323242187501,0.7436563671875001
-0.15334201171875,-0.163648173828125,0.6886046484375
-0.08988128906250001,0.1152646240234375,0.8154202148437499
-0.18786853515625002,-0.01438816162109375,0.9124980224609375
-0.2523018359375,-0.12026718505859375,1.1005094726562499
-0.22361078125,-0.14526639892578125,1.0968229736328126
-0.14069849609375001,-0.1268846240234375,1.0432458544921874
-0.26251390625,0.00276816162109375,0.9397781152343749
-0.13826705078125,0.02433611083984375,0.9970417333984375
-0.3009307421875,-0.12565917236328125,1.0786362451171876
-0.467727890625,0.07384435791015626,0.985982236328125
-0.133161015625,0.05717821533203125,1.1046875048828124
-0.21121041015625,-0.04821062744140625,1.1086197705078125
-0.24525064453125,0.04786478271484375,1.0661021484375
-0.22288134765625,0.0191892138671875,1.1066536376953124
-0.25862359375,0.11158826904296874,1.1012467724609376
-0.2766162890625,-0.04772044677734375,0.91176072265625
-0.19029998046875,0.0162481298828125,0.9056165576171875
-0.31746457031249997,0.021640117187500002,0.9324051171875
-0.2022140625,-0.1038461328125,0.9336339501953125
-0.26032560546875,-0.01291761962890625,0.97664310546875
-0.1385101953125,-0.0719843896484375,1.0368559228515626
-0.205131796875,-0.1249239013671875,0.99827056640625
-0.2882872265625,-0.08595453857421875,0.967303974609375
-0.0855046875,-0.08889562255859375,0.883743330078125
-0.24306234375,-0.06487677001953125,0.9611598095703124
-0.3135742578125,-0.038161923828125,1.0053977978515625
-0.224583359375,-0.10188541015625,0.9587021435546875
-0.30700935546875,0.03021827880859375,0.9827872705078124
-0.2075632421875,0.10031411376953125,1.0196522607421874
-0.2386857421875,-0.0259074072265625,0.969270107421875
-0.26129818359375,0.022620478515625,1.0378389892578126
-0.27151025390625,0.04541387939453125,0.93928658203125
-0.2211793359375,-0.05164189208984375,0.8427003076171875
-0.22482650390625,-0.03693647216796875,0.8928366943359375
-0.22288134765625,-0.06267095703125,0.91176072265625
-0.22482650390625,0.00227798095703125,1.06806828125
-0.24306234375,0.00399361328125,1.1388490625
-0.37922328125,-0.12026718505859375,1.1331964306640625
-0.19346085937500002,-0.02762303955078125,0.9768888720703125
-0.20732009765625,-0.030073942871093752,0.756927763671875
-0.18884111328125,0.09688284912109375,0.7842078564453125
-0.24306234375,0.024581201171875,0.9080742236328125
-0.22579908203125,0.03217900146484375,1.007609697265625
-0.2177753125,0.12041152099609376,0.9803296044921875
-0.187625390625,-0.060710234375,1.00220283203125
-0.179844765625,-0.0837487255859375,1.03661015625
-0.3592854296875,-0.0053198193359375,1.1494170263671875
-0.263486484375,-0.016593974609375,1.0594664501953126
-0.2114535546875,-0.046740085449218746,0.9677955078125
-0.308225078125,-0.0719843896484375,0.86850580078125
-0.10033650390625,0.0064445166015625,0.875878798828125
-0.2299325390625,-0.085219267578125,0.8864467626953125
-0.21801845703125,0.020659755859375,0.95698177734375
-0.0957167578125,-0.0004180126953125,1.075441279296875
-0.32646091796875,-0.0004180126953125,1.1823497509765626
-0.2513292578125,0.03953171142578125,1.2315030712890624
-0.2425760546875,-0.018554697265625,1.2128248095703125
-0.2843969140625,-0.0055649096679687505,1.0997721728515626
-0.29728357421875,-0.06585713134765625,0.966320908203125
-0.1686601171875,-0.0543378857421875,0.9046334912109375
-0.34250845703125,0.016738310546875,0.8183694140625
-0.19248828125,-0.09845414550781251,0.7448852001953125
-0.12756869140625,-0.1219828173828125,0.65812958984375
-0.12854126953125,-0.12565917236328125,0.8132083154296875
-0.2338228515625,-0.010221625976562499,1.0206353271484374
-0.33521412109375,0.04100225341796875,1.2398591357421875
-0.13000013671875,0.1407540185546875,1.177680185546875
-0.30506419921875,0.1093824560546875,1.1366371630859375
-0.35515197265625,0.1878113623046875,1.1784174853515625
-0.30020130859375,0.0476196923828125,1.1194335009765626
-0.35369310546875,0.11943115966796874,1.0825685107421874
-0.24670951171875,0.030463369140625002,1.040542421875
-0.23528171875,-0.0906112548828125,0.9972875
-0.21704587890625,-0.07566074462890625,0.9390408154296875
-0.24330548828125,-0.0366913818359375,1.0132623291015626
-0.20732009765625,-0.08105273193359375,1.1093570703125
-0.44706060546875,-0.07517056396484376,1.148188193359375
-0.27102396484375,0.0015427099609375003,0.990897568359375
-0.23795630859375,-0.0415931884765625,0.8589209033203125
-0.06410796875,-0.09379742919921875,0.810996416015625
-0.24914095703125,-0.0925719775390625,0.8141913818359375
-0.25157240234375,-0.08227818359375,0.8567090039062499
-0.2600824609375,-0.1906081103515625,0.84491220703125
-0.29509527343749997,0.0172284912109375,0.9513291455078126
-0.16306779296875,0.08707923583984375,1.009084296875
-0.29509527343749997,-0.11144393310546875,1.1405694287109376
-0.331566953125,0.07041309326171875,1.2349438037109375
-0.28366748046875,-0.14428603759765624,0.9835245703125
-0.27102396484375,-0.14502130859375,0.8490902392578125
-0.15091056640625,-0.13840386962890625,0.7394783349609375
-0.17960162109375,-0.116590830078125,0.6957318798828125
-0.25643529296875,-0.05997496337890625,0.765775361328125
-0.19370400390625,-0.0837487255859375,0.82525087890625
-0.17036212890625,0.06109966064453125,0.9778719384765625
-0.37314466796875,0.09296140380859375,1.1808751513671876
-0.33326896484375,-0.05997496337890625,1.2452660009765626
-0.20026890625,0.19148771728515626,1.236664169921875
-0.27880458984375,0.1025199267578125,1.1233657666015624
-0.34834392578125,-0.01953505859375,1.0810939111328124
-0.1385101953125,-0.05311243408203125,1.03169482421875
-0.2668905078125,0.0451687890625,0.9739396728515625
-0.271267109375,0.004973974609375,1.004660498046875
-0.27783201171875,-0.05874951171875,1.0373474560546876
-0.2921775390625,-0.0259074072265625,1.071509013671875
-0.30457791015625,-0.12369844970703125,0.971236240234375
-0.25205869140625,-0.09404251953125001,0.961897109375
-0.232363984375,-0.0710040283203125,0.8655566015625
-0.34493990234375,-0.146001669921875,0.7414444677734375
-0.2318776953125,0.04124734375,0.690079248046875
-0.1599069140625,-0.02737794921875,0.66796025390625
-0.2182616015625,-0.0288484912109375,0.8574463037109374
-0.16841697265625,-0.04379900146484375,1.0565172509765626
-0.32937865234375,-0.02737794921875,1.284834423828125
-0.4730770703125,0.132420947265625,1.17718865234375
-0.378250703125,-0.05017135009765625,1.083305810546875
-0.2552195703125,-0.042328459472656246,0.938795048828125
-0.267376796875,-0.1033559521484375,0.7237492724609375
-0.03322861328125,-0.12320826904296875,0.5627721484375
-0.05365275390625,-0.15457983154296875,0.5930014404296875
-0.1385101953125,-0.1611972705078125,0.804114951171875
-0.2445212109375,0.0907555908203125,1.0742124462890625
-0.44171142578125,0.20325205322265624,1.24600330078125
-0.27248283203125,0.23609415771484374,1.2791817919921875
-0.3835998828125,0.19736988525390625,1.316292548828125
-0.2484115234375,0.112813720703125,1.3084280175781249
-0.1754681640625,0.019679394531249998,1.3740477001953124
-0.22385392578125,0.05717821533203125,1.434260517578125
-0.331566953125,-0.17810850341796874,1.214053642578125
-0.338375,-0.18497103271484375,0.9090572900390625
-0.20634751953125,-0.2136466015625,0.6647652880859375
-0.09644619140624999,0.0137972265625,0.57555201171875
-0.15917748046875,0.05227640869140625,0.6020948046875
-0.009643593750000002,-0.10065995849609374,0.8712092333984375
-0.15723232421875,0.0721287255859375,1.238630302734375
-0.187625390625,-0.0474753564453125,1.144255927734375
-0.16938955078125,-0.06046514404296875,1.0245675927734375
-0.39600025390625,-0.06487677001953125,0.745130966796875
-0.2843969140625,-0.06193568603515625,0.617332333984375
-0.16209521484375,-0.0396324658203125,0.6986810791015625
-0.34737134765625,-0.05850442138671875,1.0073639306640625
-0.41058892578125,-0.0455146337890625,1.29712275390625
-0.31041337890625,-0.12860025634765626,1.2265877392578124
-0.14215736328125,0.0123266845703125,1.019406494140625
-0.09109701171875,0.069677822265625,0.8122252490234375
-0.07942607421875,-0.05874951171875,0.78396208984375
-0.156502890625,-0.10115013916015625,0.8576920703124999
-0.1949197265625,-0.029338671875,0.837539208984375
-0.1205175,-0.11634573974609375,0.713672841796875
-0.20464550781250002,-0.07370002197265625,0.828691611328125
-0.3009307421875,0.04884514404296875,1.0712632470703125
-0.38457246093749997,0.16942958740234376,1.237647236328125
-0.52146283203125,0.05031568603515625,1.2801648583984375
-0.2912049609375,0.26746572021484377,1.233714970703125
-0.1287844140625,0.048109873046875,1.08379734375
-0.1219763671875,-0.04526954345703125,1.0997721728515626
-0.13802390625,-0.1219828173828125,1.1587561572265626
-0.2143712890625,-0.18055940673828125,1.0624156494140624
-0.22871681640625,-0.042083369140625,0.98450763671875
-0.27029453125,-0.17247142578125,0.7979707861328125
-0.23552486328125,-0.075415654296875,0.7281730712890625
-0.226528515625,-0.22369530517578126,0.6682060205078125
-0.12756869140625,-0.28594824951171877,0.736283369140625
-0.2416034765625,-0.12860025634765626,0.8923451611328125
-0.3544225390625,-0.046249904785156254,0.6910623144531249
-0.3884627734375,-0.02272123291015625,0.6632906884765625
-0.376305546875,0.05570767333984375,0.62273919921875
-0.142886796875,0.0270321044921875,0.67975705078125
-0.0801555078125,-0.045024453125,1.0633987158203124
-0.33278267578125,0.1044806494140625,1.50749896484375
-0.477453671875,0.25864246826171877,1.7446637353515624
-0.450221484375,0.13413657958984376,1.4010820263671875
-0.3033621875,0.09443194580078125,0.9972875
-0.0996070703125,-0.1337471533203125,0.756927763671875
-0.25157240234375,-0.048455717773437504,0.8112421826171875
-0.31333111328125,-0.04821062744140625,0.75250396484375
-0.27540056640625,0.00717978759765625,0.7522581982421875
-0.315033125,0.030463369140625002,0.7227662060546876
-0.36098744140625,0.0348749951171875,0.802148818359375
-0.2571647265625,0.05080586669921875,0.973202373046875
-0.493014921875,-0.045024453125,1.0751955126953125
-0.28172232421875,0.2348687060546875,0.9980247998046875
-0.1686601171875,-0.1396293212890625,0.8854636962890625
-0.27248283203125,-0.20727425292968749,0.9370746826171875
-0.2231244921875,-0.0411030078125,0.9660751416015625
-0.28366748046875,-0.11928682373046876,1.0393135888671874
-0.32840607421875,0.0044837939453125,1.1238572998046874
-0.3495596484375,0.00227798095703125,1.1872650830078124
-0.36244630859375,-0.06830803466796875,1.181612451171875
-0.30749564453125,0.05815857666015625,1.1572815576171875
-0.2581373046875,-0.09379742919921875,1.1007552392578126
-0.2318776953125,-0.108747939453125,1.0766701123046876
-0.224583359375,-0.17908886474609376,1.03366095703125
-0.30944080078125,-0.1808044970703125,0.953541044921875
-0.3699837890625,-0.17320669677734374,0.97664310546875
-0.391866796875,-0.17957904541015626,0.9365831494140625
-0.1744955859375,0.09149086181640625,0.9606682763671874
-0.32159802734375,0.22359455078125,1.000728232421875
-0.15236943359375,0.21942801513671875,1.1194335009765626
-0.36439146484375,0.1397736572265625,1.2683680615234374
-0.36828177734375,0.08364797119140625,1.33644541015625
-0.34032015625,0.0074248779296875,1.29908888671875
-0.29825615234375,-0.09036616455078125,1.2364184033203125
-0.2921775390625,-0.077376376953125,1.135408330078125
-0.2878009375,0.0525214990234375,1.0732293798828125
-0.397702265625,0.00791505859375,1.0840431103515624
-0.38578818359375,0.05178622802734375,1.315801015625
-0.39867484375,0.057913486328125,1.5057785986328125
-0.257651015625,0.13609730224609376,1.5608303173828124
-0.2221519140625,0.06060947998046875,1.3590559375
-0.286828359375,0.048109873046875,1.032186357421875
-0.19346085937500002,-0.05874951171875,0.796741953125
-0.0782103515625,-0.10801266845703125,0.7291561376953125
-0.16209521484375,-0.08742508056640624,0.8741584326171875
-0.1871391015625,-0.15801109619140624,1.1961126806640625
-0.27734572265625,-0.33888776123046876,1.36003900390625
-0.40475345703125,-0.33006450927734376,1.3686408349609376
-0.28318119140625,-0.06267095703125,1.31481794921875
-0.50736044921875,-0.10654212646484375,1.0575003173828126
-0.23114826171875,-0.02468195556640625,0.950591845703125
-0.19248828125,-0.114630107421875,0.9213456201171875
-0.1346198828125,0.05668803466796875,1.0582376171875
-0.13948277343749999,-0.1406096826171875,1.0319405908203125
-0.072861171875,-0.0376717431640625,1.10247560546875
-0.2805066015625,0.02752228515625,1.2654188623046876
-0.40815748046875,0.0740894482421875,1.21061291015625
-0.27685943359375,0.21452620849609375,1.0516019189453125
-0.3111428125,0.02972809814453125,0.798216552734375
-0.13389044921874999,0.1191860693359375,0.653705791015625
-0.23139140625,-0.0097314453125,0.5064915966796875
-0.11735662109375,-0.16585398681640626,0.473804638671875
-0.19175884765625,-0.2798209912109375,0.8422087744140625
-0.5003092578125,-0.13129625,1.1194335009765626
-0.5100350390625,0.00276816162109375,1.0697886474609375
-0.36585033203125,-0.02272123291015625,0.979100771484375
-0.1910294140625,-0.0778665576171875,0.820827080078125
-0.09352845703125,-0.26634102294921874,0.6883588818359375
-0.08769298828125,-0.108747939453125,0.584399609375
-0.05365275390625,-0.1582561865234375,0.6215103662109375
-0.23114826171875,0.046149150390625,0.7788009912109375
-0.3592854296875,0.17237067138671874,0.9677955078125
-0.21947732421875,0.19736988525390625,1.0506188525390625
-0.40475345703125,0.07139345458984375,1.26566462890625
-0.35101851562499997,0.1103628173828125,1.0402966552734374
-0.2746711328125,-0.12149263671875,0.757419296875
-0.2523018359375,-0.09085634521484375,0.695977646484375
-0.3155194140625,0.0093856005859375,0.7109694091796875
-0.19832375,-0.20653898193359374,0.769707626953125
-0.21412814453125,-0.1396293212890625,0.7517666650390625
-0.07188859375000001,-0.12909043701171874,0.7856824560546875
-0.21193984375,-0.03644629150390625,0.8589209033203125
-0.27685943359375,-0.1415900439453125,0.772656826171875
-0.24962724609375,0.0103659619140625,0.6898334814453125
-0.279047734375,0.02237538818359375,0.7928096875
-0.271267109375,0.04712951171875,0.92159138671875
-0.39989056640625,-0.035711020507812496,0.7298934375
-0.28415376953125,0.055462583007812497,0.6131543017578125
-0.1851939453125,-0.0808076416015625,0.5487634521484375
-0.039307226562500006,-0.09477779052734375,0.5954591064453125
-0.22044990234375,0.1348718505859375,0.7620888623046875
-0.2386857421875,0.01575794921875,1.0250591259765625
-0.496905234375,-0.03105430419921875,1.29908888671875
-0.62552869140625,0.06845237060546874,1.2688595947265624
-0.3495596484375,-0.10850284912109374,0.882760263671875
-0.1871391015625,-0.0009081933593750001,0.65026505859375
-0.19710802734375,0.06747200927734374,0.5954591064453125
-0.0529233203125,-0.05801424072265625,0.6775451513671875
-0.29971501953125,0.079481435546875,1.097068740234375
-0.40694175781249997,-0.0474753564453125,1.1395863623046876
-0.2542469921875,0.00178780029296875,1.1071451708984374
-0.2318776953125,-0.10752248779296875,0.8717007666015625
-0.27515742187500003,-0.10262068115234375,0.85277673828125
-0.2736985546875,0.04884514404296875,0.8417172412109375
-0.2513292578125,-0.087179990234375,0.781012890625
-0.187625390625,-0.01193725830078125,0.8810398974609375
-0.28804408203125,-0.08203309326171875,1.0496357861328125
-0.21193984375,-0.03938737548828125,1.136391396484375
-0.423961875,0.14786163818359374,1.1880023828125
-0.3699837890625,0.103010107421875,1.0363643896484376
-0.21607330078125,-0.0646316796875,1.090187275390625
-0.40645546875,0.09933375244140626,1.1958669140625
-0.29193439453125003,-0.0229663232421875,1.2098756103515624
-0.109819140625,-0.010711806640625,1.22044357421875
-0.2474389453125,-0.05311243408203125,1.218968974609375
-0.284883203125,-0.05360261474609375,1.0594664501953126
-0.17425244140625,-0.1386489599609375,0.860149736328125
-0.27807515625,-0.11438501708984375,0.7935469873046875
-0.28026345703125,-0.05556333740234375,0.953541044921875
-0.35126166015625,-0.08595453857421875,1.19095158203125
-0.323786328125,-0.0778665576171875,1.3416065087890625
-0.2746711328125,0.026051743164062502,1.2550966650390625
-0.39940427734375,-0.1082577587890625,1.14376439453125
-0.321841171875,-0.048455717773437504,1.0629071826171874
-0.28561263671875,-0.08448399658203125,1.05233921875
-0.28804408203125,-0.013652890625,1.041033955078125
-0.121490078125,0.013552136230468751,0.9709904736328125
-0.32354318359375,0.0035034326171875,1.0776531787109376
-0.27199654296875,-0.02664267822265625,1.13098453125
-0.21364185546875,0.0711483642578125,0.99827056640625
-0.19564916015625,-0.00360418701171875,0.9284728515625
-0.2445212109375,0.03168882080078125,1.03759322265625
-0.3923530859375,0.0652661962890625,1.0127707958984375
-0.4750222265625,-0.012427438964843749,0.9763973388671875
-0.28755779296875,-0.15850127685546875,1.0201437939453124
-0.32840607421875,-0.02468195556640625,1.0206353271484374
-0.32281375,0.06624655761718751,0.931913583984375
-0.23892888671875,-0.01169216796875,0.95304951171875
-0.33813185546875,-0.13693332763671875,0.9341254833984375
-0.20294349609375,-0.0347306591796875,0.86064126953125
-0.24914095703125,-0.032279755859375,0.7736398925781249
-0.18592337890625,-0.18031431640625,0.7370206689453125
-0.03031087890625,-0.11438501708984375,0.7537327978515624
-0.20537494140625,0.0358553564453125,0.8515479052734375
-0.294608984375,-0.106787216796875,0.978117705078125
-0.2202067578125,0.02531647216796875,1.2194605078125
-0.48061455078125,0.15300853515625001,1.368395068359375
-0.47964197265624997,-0.05409279541015625,1.3371827099609375
-0.3495596484375,0.03266918212890625,1.2108586767578124
-0.41399294921875,0.02286556884765625,0.929947451171875
-0.10301109375,-0.14281549560546875,0.75643623046875
-0.047087851562500005,-0.059729873046875,0.6819689501953125
-0.1064151171875,-0.057278969726562504,0.86653966796875
-0.19613544921875,-0.02174087158203125,1.1346710302734375
-0.46942990234375,0.0338946337890625,1.2683680615234374
-0.43368765625,-0.0729647509765625,0.9429730810546875
-0.22579908203125,-0.0788469189453125,0.6564092236328125
-0.2542469921875,0.0059543359375,0.529347890625
-0.16793068359375,-0.02860340087890625,0.4632366748046875
-0.066053125,0.0486000537109375,0.5767808447265625
-0.35101851562499997,0.02360083984375,0.6807401171875
-0.40937320312500003,0.010856142578125,0.81148794921875
-0.30603677734375,0.0035034326171875,0.89996392578125
-0.34737134765625,0.026051743164062502,0.9719735400390626
-0.2279873828125,0.004973974609375,1.0031858984375
-0.06751199218750001,-0.11340465576171875,0.9916348681640625
-0.22361078125,-0.03154448486328125,1.0299744580078125
-0.32013916015625,0.008895419921875,1.0629071826171874
-0.28026345703125,-0.13203152099609375,1.0388220556640624
-0.31868029296875,-0.00997653564453125,0.9749227392578125
-0.358799140625,-0.0332601171875,0.6768078515625
-0.24330548828125,-0.10654212646484375,0.4932202001953125
-0.20026890625,-0.1768830517578125,0.4853556689453125
-0.1317021484375,-0.00850599365234375,0.651248125
-0.02885201171875,-0.07909200927734375,0.991880634765625
-0.3067662109375,0.19222298828125,1.5210161279296874
-0.56863287109375,0.3196699609375,1.6714252880859375
-0.3694975,-0.093062158203125,1.4121415234375
-0.255705859375,0.01183650390625,1.0936280078125
-0.2970404296875,-0.0523771630859375,1.0742124462890625
-0.1579617578125,-0.11144393310546875,1.0122792626953125
-0.15164,-0.03350520751953125,0.8790737646484375
-0.28464005859375,-0.21560732421875,0.8694888671875
-0.43587595703125,-0.16879507080078124,0.844420673828125
-0.41447923828125,-0.1180613720703125,0.63453599609375
-0.22336763671875,-0.1151202880859375,0.442838046875
-0.09255587890625,-0.05458297607421875,0.4396430810546875
-0.205131796875,0.11649007568359375,0.5905437744140625
-0.32646091796875,0.09982393310546875,0.736283369140625
-0.30871136718750003,-0.0006631030273437505,0.91077765625
-0.28901666015625,0.00276816162109375,1.07101748046875
-0.30020130859375,-0.029338671875,1.2138078759765625
-0.481343984375,-0.12418863037109375,1.1995534130859375
-0.27053767578125,-0.11585555908203125,0.9582106103515625
-0.125380390625,-0.010221625976562499,0.8780906982421874
-0.19808060546875,0.096147578125,0.9837703369140625
-0.19856689453125,-0.012427438964843749,1.047915419921875
-0.20440236328125,0.15472416748046874,1.18701931640625
-0.36366203125,0.05570767333984375,1.20962984375
-0.42858162109375,-0.05213207275390625,1.17817171875
-0.279047734375,-0.015368522949218751,1.1715360205078125
-0.343237890625,-0.00777072265625,1.2172486083984375
-0.46310814453125,-0.18742193603515625,1.0582376171875
-0.3378887109375,-0.1641383544921875,0.9434646142578125
-0.34834392578125,-0.07835673828125,0.9007012255859375
-0.28658521484375,-0.106787216796875,0.7925639208984375
-0.13024328125,-0.11095375244140625,0.9007012255859375
-0.13340416015625,0.07531489990234375,1.1263149658203124
-0.2099946875,-0.12614935302734376,1.2258504394531249
-0.382141015625,-0.09820905517578125,1.266156162109375
-0.4711319140625,0.14197947021484375,1.27254609375
-0.253760703125,0.08315779052734375,1.224867373046875
-0.3116291015625,-0.04968116943359375,1.229782705078125
-0.3408064453125,0.0035034326171875,1.1941465478515625
-0.31989601562500003,-0.1141399267578125,0.9788550048828125
-0.42615017578125003,-0.186196484375,0.7790467578125
-0.34226531250000003,-0.22345021484375,0.698926845703125
-0.327676640625,-0.1660990771484375,0.5816961767578125
-0.1579617578125,-0.07320984130859375,0.54802615234375
0.0020273437500000005,-0.075415654296875,0.6905707812499999
-0.15358515625,-0.24305744140625,0.9518206787109375
-0.43198564453125,-0.05090662109375,1.2929447216796874
-0.54650671875,0.07580508056640625,1.414599189453125
-0.23990146484375,0.10031411376953125,1.4315570849609376
-0.2814791796875,0.1623219677734375,1.3170298486328125
-0.25789416015625,0.22947671875,1.2285538720703124
-0.0558410546875,0.1280093212890625,1.2772156591796875
-0.27831830078124997,0.21452620849609375,1.4082092578125
-0.4847480078125,0.0003172583007812497,1.251410166015625
-0.30457791015625,0.024091020507812498,1.02186416015625
-0.1229489453125,-0.253841416015625,1.0147369287109376
-0.3806821484375,-0.263645029296875,1.060695283203125
-0.20780638671875,-0.27222319091796876,1.0461950537109375
-0.172064140625,-0.24134180908203126,1.0110504296875
-0.47477908203125,-0.0955130615234375,0.9218371533203125
-0.18495080078125,-0.0964934228515625,0.7419360009765625
-0.005996425781250002,-0.08423890625,0.76823302734375
-0.2075632421875,0.08634396484375,0.965337841796875
-0.2022140625,0.05815857666015625,1.120662333984375
-0.36487775390625,0.01894412353515625,1.2398591357421875
-0.3446967578125,0.06551128662109375,1.245020234375
-0.33424154296874997,0.06109966064453125,1.129509931640625
-0.30141703125,-0.03154448486328125,1.062661416015625
-0.174981875,0.06600146728515625,1.111323203125
-0.3500459375,-0.10801266845703125,1.001219765625
-0.1827625,-0.2455083447265625,0.82525087890625
-0.21412814453125,-0.08301345458984374,0.626179931640625
-0.19224513671875,-0.1053166748046875,0.5192714599609375
-0.0621628125,-0.13399224365234375,0.4883048681640625
0.0039725,-0.05850442138671875,0.7080202099609375
-0.19419029296875,-0.0474753564453125,1.107882470703125
-0.4905834765625,0.0387964404296875,1.338903076171875
-0.43393080078125,-0.015368522949218751,1.407717724609375
-0.430769921875,0.14197947021484375,1.2777071923828125
-0.31697828125,0.14443037353515625,0.9464138134765625
-0.2065906640625,0.14786163818359374,0.86653966796875
-0.20732009765625,-0.02125069091796875,0.8264797119140626
-0.20975154296875,-0.179333955078125,0.6922911474609375
-0.07383375,-0.179333955078125,0.6028321044921875
-0.1005796484375,-0.23913599609375,0.5182883935546875
-0.10203851562499999,-0.240116357421875,0.5885776416015625
-0.16306779296875,-0.198941181640625,0.7901062548828125
-0.29339326171875,-0.05360261474609375,0.936828916015625
-0.4263933203125,0.09394176513671874,1.1054248046875
-0.446331171875,0.14908708984375,0.9972875
-0.4341739453125,0.081442158203125,0.822793212890625
-0.34810078125,0.028257556152343752,0.578992744140625
-0.14507509765624998,-0.14477621826171874,0.52443255859375
-0.0986344921875,-0.1533543798828125,0.6215103662109375
-0.11930177734375,-0.07762146728515625,0.7375122021484375
-0.175954453125,-0.19771572998046874,0.8778449316406249
-0.10179537109375,-0.1553151025390625,1.1307387646484375
-0.2591098828125,-0.0612004150390625,1.36200513671875
-0.36925435546875,0.081442158203125,1.4094380908203126
-0.51319591796875,0.14148928955078124,1.166866455078125
-0.35126166015625,0.13462676025390624,0.8795652978515625
-0.30530734375,0.055462583007812497,0.686146982421875
-0.26567478515625,-0.0175743359375,0.68270625
-0.268349375,-0.03938737548828125,0.798216552734375
-0.27831830078124997,0.0054641552734375,0.8997181591796874
-0.34591248046875,-0.028358310546875,0.9070911572265625
-0.2552195703125,0.00717978759765625,1.0496357861328125
-0.22823052734375,0.02972809814453125,1.1430270947265626
-0.21072412109375,0.13462676025390624,1.33644541015625
-0.31770771484375,0.0495804150390625,1.188493916015625
-0.22239505859375,-0.0759058349609375,0.973202373046875
-0.2406308984375,-0.08203309326171875,0.8608870361328125
-0.2834243359375,-0.09575815185546875,0.7979707861328125
-0.16938955078125,-0.08595453857421875,0.7065456103515625
-0.22239505859375,-0.13448242431640625,0.6726298193359375
-0.23114826171875,-0.19526482666015624,0.8525309716796875
-0.27199654296875,-0.1837455810546875,1.0712632470703125
-0.33083751953125,-0.059729873046875,1.248460966796875
-0.2017277734375,0.0574233056640625,1.316292548828125
-0.37606240234375,0.071638544921875,1.2423168017578126
-0.29436583984375,-0.10311086181640625,1.124594599609375
-0.2133987109375,0.04712951171875,1.0570087841796876
-0.2921775390625,-0.12418863037109375,1.0083469970703125
-0.20391607421875,-0.11683592041015625,0.816894814453125
-0.08744984375,-0.0288484912109375,0.6608330224609374
-0.04465640625,-0.10654212646484375,0.6662398876953125
-0.15164,-0.05482806640625,0.9469053466796875
-0.28998923828125,0.06306038330078124,1.197341513671875
-0.34591248046875,0.08609887451171874,1.3248943798828126
-0.39016478515624997,0.0995788427734375,1.4202518212890625
-0.277102578125,0.095167216796875,1.34627607421875
-0.38141158203125003,0.0221302978515625,1.2865547900390626
-0.28269490234375,-0.01781942626953125,1.2369099365234375
-0.2333365625,0.0044837939453125,1.154578125
-0.23114826171875,-0.076396015625,1.1484339599609374
-0.25692158203125,-0.20702916259765625,1.075441279296875
-0.13583560546875,-0.10850284912109374,0.9282270849609375
-0.15771861328125,-0.100905048828125,0.817877880859375
-0.22190876953125,-0.00801581298828125,0.8721922998046875
-0.257651015625,-0.00948635498046875,0.9036504248046875
-0.2644590625,0.00325834228515625,0.9990078662109375
-0.28634207031250003,-0.116590830078125,1.0122792626953125
-0.310170234375,-0.042328459472656246,1.10444173828125
-0.230418828125,0.00570924560546875,1.1041959716796874
-0.40378087890625003,-0.049926259765625,1.0149826953125
-0.37581925781250003,0.0152677685546875,0.9233117529296875
-0.41302037109375,-0.07909200927734375,0.8380307421875
-0.2163164453125,-0.16928525146484374,0.6986810791015625
-0.07966921874999999,-0.022476142578125,0.588331875
-0.0431975390625,-0.11536537841796875,0.640925927734375
-0.052680175781250005,-0.1366882373046875,0.8653108349609375
-0.2717533984375,-0.0004180126953125,1.316292548828125
-0.55647564453125,0.077520712890625,1.43475205078125
-0.4049966015625,-0.046004814453125,1.2128248095703125
-0.41447923828125,-0.08497417724609375,1.02088109375
-0.43101306640625,0.00963069091796875,0.914218388671875
-0.428824765625,-0.03889719482421875,0.8417172412109375
-0.28269490234375,-0.10556176513671875,0.810996416015625
-0.10179537109375,-0.08301345458984374,0.9144641552734375
-0.23114826171875,-0.13448242431640625,0.974185439453125
-0.13875333984375,-0.0464949951171875,0.937811982421875
-0.23406599609375,0.00276816162109375,0.865065068359375
-0.17376615234375,0.04320806640625,0.875387265625
-0.13607875,0.06011929931640625,0.8970147265625
-0.30603677734375,0.0686974609375,1.1014925390624999
-0.51659994140625,-0.108747939453125,1.1250861328125
-0.4186126953125,-0.107767578125,0.7340714697265625
-0.20051205078125,-0.1445311279296875,0.5020677978515625
-0.2736985546875,-0.1621776318359375,0.5531872509765625
-0.3111428125,-0.1200220947265625,0.538687021484375
-0.14021220703125,0.12335260498046875,0.6414174609375
-0.24476435546875,0.17040994873046875,0.83704767578125
-0.10908970703125,-0.09918941650390625,0.9252778857421875
-0.02058509765625,-0.0759058349609375,1.06806828125
-0.15674603515625,-0.00605509033203125,1.278936025390625
-0.36925435546875,0.00276816162109375,1.445074248046875
-0.34056330078125,0.059874208984374996,1.4212348876953125
-0.5000661132812501,0.04345315673828125,1.1528577587890625
-0.4507077734375,0.040266982421875,0.7736398925781249
-0.17668388671875,-0.01193725830078125,0.6126627685546875
-0.06386482421875,-0.02419177490234375,0.7571735302734375
-0.2260422265625,-0.01561361328125,1.024813359375
-0.39891798828125,-0.02860340087890625,1.141306728515625
-0.04465640625,-0.08350363525390625,1.01203349609375
-0.004051269531250002,-0.10752248779296875,1.0486527197265625
-0.33667298828125003,-0.026397587890625,1.3275978125
-0.29533841796875,-0.0553182470703125,1.1789090185546875
-0.39113736328125,-0.05262225341796875,0.963371708984375
-0.25303126953125,-0.013652890625,0.9798380712890625
-0.39478453125,-0.144040947265625,0.8800568310546875
-0.14896541015625,-0.08056255126953125,0.92552365234375
-0.23406599609375,-0.0092412646484375,1.0422627880859374
-0.40062,-0.0018885546875000003,1.1132893359375
-0.181789921875,-0.00948635498046875,1.0044147314453125
-0.257651015625,7.216796875000007e-05,1.0240760595703124
-0.3962433984375,0.11698025634765626,0.9985163330078125
-0.011588750000000002,-0.03497574951171875,1.057746083984375
-0.08915185546875,-0.07664110595703125,1.234698037109375
-0.442440859375,-0.0161037939453125,1.2590289306640625
-0.34931650390625,0.03266918212890625,1.029237158203125
-0.33715927734375,0.03928662109375,0.8490902392578125
-0.39065107421875,0.05497240234375,0.6996641455078125
-0.17571130859375,-0.00948635498046875,0.532788623046875
-0.0743200390625,-0.12026718505859375,0.6785282177734375
-0.321841171875,-0.089140712890625,0.9311762841796875
-0.3578265625,-0.04968116943359375,1.1997991796875
-0.39697283203125,-0.06879821533203125,1.2344522705078125
-0.34348103515625,-0.0006631030273437505,1.1572815576171875
-0.27734572265625,-0.0641414990234375,0.986965302734375
-0.1710915625,0.01208159423828125,0.935845849609375
-0.265431640625,0.0319339111328125,0.932896650390625
-0.35952857421875,0.02776737548828125,0.9940925341796875
-0.277102578125,-0.04281864013671875,1.0184234277343749
-0.35126166015625,0.02678701416015625,0.9552614111328125
-0.197351171875,-0.02272123291015625,0.8938197607421875
-0.26567478515625,-0.0006631030273437505,0.988931435546875
