ax,ay,az
-0.23406599609375,0.0995788427734375,1.0073639306640625
-0.18981369140625,0.12947986328125,1.016457294921875
-0.22336763671875,0.0858537841796875,0.9990078662109375
-0.19370400390625,0.0985984814453125,1.034152490234375
-0.1696326953125,0.124578056640625,1.0147369287109376
-0.213885,0.12727405029296876,1.037101689453125
-0.16914640625,0.1054610107421875,1.02972869140625
-0.1968648828125,0.11771552734375,1.00023669921875
-0.18495080078125,0.09198104248046875,1.0149826953125
-0.15625974609374998,0.1250682373046875,1.058729150390625
-0.19516287109375,0.12555841796875,1.04545775390625
-0.1735230078125,0.10031411376953125,1.0707717138671875
-0.1540714453125,0.0868341455078125,1.039067822265625
-0.16015005859375,0.12874459228515625,1.0191607275390624
-0.1210037890625,0.1123235400390625,0.995812900390625
-0.1424005078125,0.08756941650390625,1.0191607275390624
-0.168173828125,0.09737302978515625,1.0098215966796875
-0.13510617187500001,0.1289896826171875,0.9874568359375
-0.16015005859375,0.10717664306640624,1.0024485986328124
-0.13680818359375,0.10962754638671875,0.9827872705078124
-0.14629082031250001,0.12041152099609376,0.985490703125
-0.15236943359375,0.12947986328125,0.9975332666015625
-0.15431458984375,0.12433296630859375,0.99237216796875
-0.1560166015625,0.15227326416015624,1.0132623291015626
-0.1715778515625,0.11992134033203125,1.0228472265625
-0.1404553515625,0.12825441162109374,1.003677431640625
-0.16793068359375,0.13756784423828125,0.999745166015625
-0.1492085546875,0.12629368896484375,1.0122792626953125
-0.16112263671875,0.13315621826171875,0.9599309765625
-0.14580453125,0.1235976953125,0.9650920751953125
-0.183735078125,0.120656611328125,1.0014655322265624
-0.1453182421875,0.11060790771484375,0.957473310546875
-0.1667149609375,0.16207687744140625,0.987948369140625
-0.1686601171875,0.1299700439453125,1.0103131298828125
-0.19516287109375,0.13021513427734374,0.9677955078125
-0.15771861328125,0.13340130859375,0.988931435546875
-0.177899609375,0.1093824560546875,0.9994993994140625
-0.1783858984375,0.12923477294921876,0.984016103515625
-0.17619759765625,0.12580350830078124,0.9587021435546875
-0.19953947265625,0.120656611328125,1.0044147314453125
-0.2036729296875,0.10766682373046875,1.014491162109375
-0.21072412109375,0.158890703125,0.97664310546875
-0.1842213671875,0.11354899169921875,0.9301932177734376
-0.20245720703125,0.11771552734375,0.9501003125
-0.18786853515625002,0.1157548046875,0.9267524853515625
-0.1871391015625,0.1338914892578125,0.9557529443359375
-0.1988100390625,0.1074217333984375,0.9842618701171875
-0.20002576171875,0.110852998046875,1.0058893310546875
-0.23114826171875,0.09149086181640625,0.9700074072265625
-0.18300564453125,0.13413657958984376,0.955507177734375
-0.21461443359375,0.12090170166015625,0.95501564453125
-0.2114535546875,0.09026541015625,0.987948369140625
-0.21121041015625,0.11305881103515625,1.009575830078125
-0.2007551953125,0.1201664306640625,0.98254150390625
-0.2192341796875,0.11992134033203125,0.99433830078125
-0.24427806640625,0.1133039013671875,0.989914501953125
-0.18495080078125,0.14345001220703124,0.973202373046875
-0.21023783203125002,0.136342392578125,0.971236240234375
-0.2250696484375,0.13266603759765624,1.0019570654296874
-0.2056180859375,0.15080272216796875,1.00416896484375
-0.222638203125,0.1260485986328125,0.9744312060546875
-0.2099946875,0.14394019287109375,0.993846767578125
-0.24233291015625,0.1103628173828125,0.950591845703125
-0.1832487890625,0.14099910888671874,0.9596852099609375
-0.18251935546875,0.15815543212890626,0.9820499707031249
-0.24379177734375002,0.12555841796875,1.058729150390625
-0.1949197265625,0.13707766357421874,1.044966220703125
-0.21072412109375,0.16158669677734375,1.0179318945312499
-0.2036729296875,0.12776423095703124,1.0004824658203124
-0.20342978515625,0.12629368896484375,0.97467697265625
-0.18397822265625,0.14516564453125,0.971236240234375
-0.19953947265625,0.10717664306640624,1.0270252587890625
-0.14361623046875,0.13952856689453125,0.9815584374999999
-0.16306779296875,0.122617333984375,1.0044147314453125
-0.21023783203125002,0.11011772705078125,1.02088109375
-0.179844765625,0.1623219677734375,1.0228472265625
-0.1774133203125,0.0907555908203125,0.966320908203125
-0.1832487890625,0.14050892822265626,0.9980247998046875
-0.16501294921875,0.1015395654296875,1.0049062646484375
-0.16890326171875,0.1084020947265625,1.0152284619140626
-0.15431458984375,0.127519140625,1.027271025390625
-0.2095083984375,0.11649007568359375,1.044966220703125
-0.15674603515625,0.12874459228515625,1.002694365234375
-0.14069849609375001,0.12531332763671876,0.965829375
-0.18495080078125,0.12874459228515625,0.9916348681640625
-0.15625974609374998,0.11796061767578125,1.00416896484375
-0.14945169921875,0.124578056640625,1.009575830078125
-0.1492085546875,0.111833359375,1.043983154296875
-0.1637972265625,0.13609730224609376,1.02579642578125
-0.16209521484375,0.111833359375,1.0174403613281249
-0.20537494140625,0.11379408203125,1.0255506591796875
-0.16452666015625,0.14933218017578126,0.9754142724609375
-0.160393203125,0.1015395654296875,0.9719735400390626
-0.18738224609375,0.09051050048828126,1.00613509765625
-0.189570546875,0.11992134033203125,1.0196522607421874
-0.17473873046875,0.13364639892578126,0.966320908203125
-0.18543708984375,0.1123235400390625,0.97860923828125
-0.16720125,0.1319307666015625,0.973202373046875
-0.1725504296875,0.1093824560546875,0.9881941357421875
-0.1944334375,0.10374537841796876,0.9955671337890625
-0.16841697265625,0.13609730224609376,0.98254150390625
-0.17327986328125,0.13266603759765624,0.9734481396484375
-0.20026890625,0.10178465576171875,0.9985163330078125
-0.19419029296875,0.11109808837890625,1.008592763671875
-0.1827625,0.128499501953125,0.9940925341796875
-0.18592337890625,0.14516564453125,0.9700074072265625
-0.20440236328125,0.10987263671875,0.98450763671875
-0.2202067578125,0.0917359521484375,0.9410069482421874
-0.17911533203125,0.1358522119140625,0.9788550048828125
-0.20804953125,0.112813720703125,0.9960586669921875
-0.2007551953125,0.11599989501953126,1.001711298828125
-0.20464550781250002,0.13658748291015624,0.9719735400390626
-0.20197091796875,0.11747043701171875,0.9690243408203125
-0.221665625,0.11550971435546875,0.988931435546875
-0.207076953125,0.13217585693359374,0.99433830078125
-0.20586123046875,0.11992134033203125,0.9793465380859375
-0.2377131640625,0.1084020947265625,0.990897568359375
-0.2240970703125,0.14394019287109375,0.9685328076171875
-0.20440236328125,0.10619628173828125,0.9813126708984374
-0.23357970703125,0.13413657958984376,1.0189149609375
-0.21583015625000002,0.1240878759765625,0.9975332666015625
-0.2056180859375,0.12874459228515625,0.994829833984375
-0.23066197265625,0.1250682373046875,1.0098215966796875
-0.19662173828125,0.09198104248046875,0.979100771484375
-0.18689595703125,0.14786163818359374,0.9926179345703126
-0.22434021484375,0.09149086181640625,0.9913891015625
-0.2279873828125,0.12433296630859375,0.99630443359375
-0.20464550781250002,0.128499501953125,0.9567360107421875
-0.23552486328125,0.06453092529296875,0.9857364697265625
-0.22725794921875,0.11379408203125,1.0191607275390624
-0.19346085937500002,0.08168724853515624,0.9965502001953125
-0.2027003515625,0.1000690234375,0.9756600390625
-0.2177753125,0.12286242431640625,0.99630443359375
-0.2075632421875,0.0966377587890625,0.9690243408203125
-0.1997826171875,0.13462676025390624,0.98057537109375
-0.19467658203125,0.0843832421875,0.996795966796875
-0.18859796875,0.1319307666015625,1.0058893310546875
-0.21121041015625,0.11967625,0.988931435546875
-0.18932740234375,0.0883046875,0.984016103515625
-0.160393203125,0.122617333984375,0.97271083984375
-0.2386857421875,0.111833359375,0.9822957373046874
-0.17230728515625,0.1221271533203125,1.011541962890625
-0.1589343359375,0.13315621826171875,1.0174403613281249
-0.23552486328125,0.12237224365234375,1.0597122167968749
-0.2017277734375,0.1309504052734375,1.0412797216796874
-0.18446451171875,0.14443037353515625,1.042017021484375
-0.22093619140625,0.0966377587890625,1.0031858984375
-0.18081734375,0.12678386962890625,0.9965502001953125
-0.174981875,0.15276344482421875,0.998762099609375
-0.20197091796875,0.07776580322265625,0.9972875
-0.1788721875,0.1309504052734375,0.9921264013671875
-0.16063634765625,0.10962754638671875,0.9591936767578125
-0.15747546875,0.103010107421875,0.9646005419921875
-0.15747546875,0.09810830078125,0.9820499707031249
-0.1997826171875,0.1157548046875,0.9994993994140625
-0.1803310546875,0.15031254150390624,0.9921264013671875
-0.212912421875,0.09982393310546875,0.9990078662109375
-0.19127255859375,0.097127939453125,1.009575830078125
-0.1744955859375,0.12825441162109374,0.9700074072265625
-0.1881116796875,0.11894097900390625,1.0093300634765625
-0.21072412109375,0.10987263671875,1.0228472265625
-0.177899609375,0.16501796142578126,1.030220224609375
-0.1881116796875,0.1628121484375,1.0265337255859375
-0.2017277734375,0.14786163818359374,1.056763017578125
-0.19808060546875,0.15570452880859376,1.0560257177734376
-0.25983931640625,0.14197947021484375,1.03366095703125
-0.226528515625,0.1613416064453125,1.006626630859375
-0.1988100390625,0.1270289599609375,1.0029401318359374
-0.1978374609375,0.104970830078125,1.05725455078125
-0.20926525390625,0.03708080810546875,1.0511103857421875
-0.1764407421875,0.00717978759765625,1.0540595849609375
-0.2027003515625,0.02433611083984375,0.97860923828125
-0.22920310546875,0.085363603515625,0.920116787109375
-0.21558701171875,0.032424091796875,0.89504859375
-0.21899103515625,0.03904153076171875,0.8820229638671875
-0.1968648828125,0.08119706787109375,0.9070911572265625
-0.15723232421875,0.08413815185546875,0.930438984375
-0.1346198828125,0.09418685546875,0.9385492822265625
-0.15358515625,0.09198104248046875,0.9818042041015624
-0.2255559375,0.11109808837890625,1.0108046630859375
-0.2192341796875,0.11796061767578125,0.9763973388671875
-0.2338228515625,0.120656611328125,0.957473310546875
-0.28950294921874997,0.09443194580078125,0.9798380712890625
-0.23698373046875,0.1093824560546875,0.9547698779296875
-0.2435486328125,0.13315621826171875,0.963371708984375
-0.25862359375,0.1191860693359375,0.9795923046875
-0.30141703125,0.13732275390625,0.9881941357421875
-0.24136033203125,0.1613416064453125,0.91569298828125
-0.2240970703125,0.1525183544921875,0.879811064453125
-0.1997826171875,0.1392834765625,0.8353273095703125
-0.18300564453125,0.1510478125,0.8365561425781249
-0.1827625,0.1471263671875,0.8313950439453125
-0.1842213671875,0.17727247802734375,0.884726396484375
-0.19953947265625,0.17678229736328124,0.9088115234375
-0.19273142578125,0.163792509765625,0.9193794873046874
-0.18470765625,0.185360458984375,0.967303974609375
-0.2255559375,0.22580036376953125,1.0348897900390626
-0.23309341796875,0.21844765380859374,1.0830600439453124
-0.24136033203125,0.20374223388671875,1.0614325830078124
-0.26810623046875,0.216732021484375,0.9685328076171875
-0.2163164453125,0.1642826904296875,0.9036504248046875
-0.23795630859375,0.16256705810546876,0.9085657568359375
-0.24136033203125,0.1691844970703125,0.92650671875
-0.19273142578125,0.1427147412109375,0.9228202197265625
-0.18081734375,0.12629368896484375,0.943710380859375
-0.1788721875,0.110852998046875,0.9744312060546875
-0.2036729296875,0.11771552734375,1.009575830078125
-0.27248283203125,0.11771552734375,1.0162115283203126
-0.2878009375,0.09394176513671874,1.004660498046875
-0.29193439453125003,0.1476165478515625,0.9818042041015624
-0.29679728515625,0.13413657958984376,0.946659580078125
-0.30700935546875,0.15080272216796875,0.9931094677734374
-0.263486484375,0.095167216796875,0.990897568359375
-0.2668905078125,0.1270289599609375,0.9820499707031249
-0.24087404296875,0.091245771484375,0.9591936767578125
-0.23552486328125,0.085363603515625,0.9587021435546875
-0.2377131640625,0.09198104248046875,0.9572275439453125
-0.27394169921875,0.11771552734375,0.961897109375
-0.253760703125,0.1152646240234375,0.9913891015625
-0.27151025390625,0.07825598388671876,0.984999169921875
-0.23649744140625,0.101049384765625,0.999745166015625
-0.2853694921875,0.0765403515625,1.02579642578125
-0.2955815625,0.085363603515625,1.0373474560546876
-0.28026345703125,0.0848734228515625,1.0127707958984375
-0.29144810546875,0.11771552734375,1.000728232421875
-0.27248283203125,0.10080429443359375,1.0162115283203126
-0.294608984375,0.09541230712890625,1.0019570654296874
-0.2211793359375,0.12482314697265626,1.0240760595703124
-0.23892888671875,0.1044806494140625,1.011541962890625
-0.2435486328125,0.11943115966796874,1.002694365234375
-0.20026890625,0.11992134033203125,0.9994993994140625
-0.2411171875,0.1123235400390625,1.0162115283203126
-0.2163164453125,0.12776423095703124,1.0471781201171875
-0.23066197265625,0.12041152099609376,1.03661015625
-0.23528171875,0.111833359375,1.0324321240234375
-0.23601115234375,0.0780108935546875,1.0228472265625
-0.220693046875,0.11011772705078125,1.0174403613281249
-0.2416034765625,0.09394176513671874,1.00220283203125
-0.245980078125,0.091245771484375,0.987948369140625
-0.20683380859375,0.085363603515625,0.9827872705078124
-0.19808060546875,0.097127939453125,0.9820499707031249
-0.1832487890625,0.09688284912109375,1.004660498046875
-0.20464550781250002,0.08805959716796875,0.9822957373046874
-0.1958923046875,0.09247122314453125,1.00416896484375
-0.20732009765625,0.09639266845703125,0.979100771484375
-0.19321771484375,0.0956573974609375,0.951574912109375
-0.18689595703125,0.11698025634765626,0.9872110693359375
-0.20829267578125,0.11305881103515625,1.0110504296875
-0.2289599609375,0.10619628173828125,1.0149826953125
-0.203186640625,0.1240878759765625,1.0228472265625
-0.207076953125,0.11403917236328125,0.9936010009765625
-0.21850474609375,0.0922261328125,0.985982236328125
-0.20804953125,0.1260485986328125,1.01203349609375
-0.21972046875,0.1074217333984375,0.97074470703125
-0.20877896484375,0.13168567626953126,0.9754142724609375
-0.19832375,0.11698025634765626,0.9783634716796875
-0.2007551953125,0.11060790771484375,0.9626344091796875
-0.19370400390625,0.1515379931640625,0.95894791015625
-0.21899103515625,0.13340130859375,0.9444476806640625
-0.20732009765625,0.1270289599609375,0.9414984814453125
-0.222638203125,0.12041152099609376,0.9301932177734376
-0.228473671875,0.1495772705078125,0.91569298828125
-0.2124261328125,0.14443037353515625,0.930930517578125
-0.24476435546875,0.1314405859375,0.9444476806640625
-0.2435486328125,0.13462676025390624,0.966320908203125
-0.24379177734375002,0.13364639892578126,0.95796484375
-0.22093619140625,0.130460224609375,0.9405154150390624
-0.20926525390625,0.1079119140625,0.9080742236328125
-0.2133987109375,0.1201664306640625,0.9363373828125
-0.2221519140625,0.11967625,0.9154472216796875
-0.2260422265625,0.13756784423828125,0.9026673583984375
-0.24427806640625,0.1280093212890625,0.906845390625
-0.22190876953125,0.1103628173828125,0.9233117529296875
-0.22920310546875,0.1387932958984375,0.954524111328125
-0.2396583203125,0.11256863037109376,0.9390408154296875
-0.23114826171875,0.108892275390625,0.9444476806640625
-0.23066197265625,0.1280093212890625,0.9397781152343749
-0.228473671875,0.1642826904296875,0.9606682763671874
-0.25740787109375,0.13756784423828125,0.9700074072265625
-0.2454937890625,0.13315621826171875,0.97664310546875
-0.21996361328125,0.158890703125,0.99630443359375
-0.23260712890625002,0.13217585693359374,0.9955671337890625
-0.2523018359375,0.16256705810546876,1.0122792626953125
-0.2255559375,0.132420947265625,0.9626344091796875
-0.23139140625,0.13732275390625,0.9778719384765625
-0.2104809765625,0.10129447509765625,0.9778719384765625
-0.2163164453125,0.13119549560546875,0.9931094677734374
-0.22579908203125,0.0936966748046875,0.95796484375
-0.22361078125,0.11305881103515625,0.9552614111328125
-0.22142248046875002,0.1250682373046875,0.9636174755859375
-0.209022109375,0.1162449853515625,0.991880634765625
-0.23892888671875,0.1152646240234375,1.0245675927734375
-0.25351755859375,0.108892275390625,1.0368559228515626
-0.23139140625,0.106931552734375,0.997779033203125
-0.22482650390625,0.1093824560546875,0.945676513671875
-0.21023783203125002,0.10595119140625,0.9402696484374999
-0.2104809765625,0.09933375244140626,0.9523122119140625
-0.23357970703125,0.08413815185546875,0.9911433349609375
-0.21947732421875,0.11403917236328125,0.9972875
-0.2211793359375,0.11109808837890625,0.9626344091796875
-0.23114826171875,0.10521592041015625,0.965829375
-0.2561921484375,0.07678544189453125,0.991880634765625
-0.18495080078125,0.0883046875,0.9916348681640625
-0.21072412109375,0.10570610107421875,1.0093300634765625
-0.2377131640625,0.11011772705078125,1.0029401318359374
-0.23455228515625,0.09835339111328124,0.996795966796875
-0.26421591796875,0.0995788427734375,0.9677955078125
-0.23309341796875,0.09296140380859375,0.97074470703125
-0.220693046875,0.1133039013671875,0.965829375
-0.23114826171875,0.1035002880859375,0.999745166015625
-0.2445212109375,0.11599989501953126,1.043000087890625
-0.23698373046875,0.10987263671875,1.0346440234375
-0.25886673828125,0.13658748291015624,1.014491162109375
-0.2503566796875,0.10766682373046875,0.9955671337890625
-0.2566784375,0.08805959716796875,0.991880634765625
-0.20197091796875,0.099088662109375,1.000728232421875
-0.22920310546875,0.08021670654296875,1.02776255859375
-0.23990146484375,0.07261890625,1.0592206835937499
-0.21899103515625,0.08217742919921875,1.05233921875
-0.22750109375,0.0515411376953125,1.026287958984375
-0.18203306640625,0.08266760986328126,1.0171945947265626
-0.20732009765625,0.06109966064453125,0.9994993994140625
-0.15869119140625,0.08217742919921875,0.9631259423828125
-0.19808060546875,0.06306038330078124,0.97271083984375
-0.2036729296875,0.07580508056640625,0.9675497412109375
-0.1472633984375,0.12531332763671876,0.970253173828125
-0.1978374609375,0.06673673828125,0.9773804052734375
-0.22968939453125,0.079481435546875,1.0044147314453125
-0.2036729296875,0.05913893798828125,0.9223286865234375
-0.21972046875,0.159871064453125,0.908319990234375
-0.242089765625,0.1123235400390625,0.92159138671875
-0.23892888671875,0.09933375244140626,0.9798380712890625
-0.221665625,0.10202974609375,0.9763973388671875
-0.21121041015625,0.12384278564453124,0.98450763671875
-0.20975154296875,0.15570452880859376,0.9759058056640625
-0.2182616015625,0.11403917236328125,0.97074470703125
-0.2124261328125,0.0966377587890625,0.9749227392578125
-0.1900568359375,0.1079119140625,0.9798380712890625
-0.21023783203125002,0.11158826904296874,0.94125271484375
-0.22774423828125,0.10619628173828125,0.9709904736328125
-0.23406599609375,0.0907555908203125,0.9670582080078125
-0.220693046875,0.091245771484375,0.954524111328125
-0.20634751953125,0.114774443359375,0.9577190771484375
-0.21996361328125,0.0927163134765625,0.9609140429687499
-0.22701480468750002,0.0878145068359375,0.9400238818359374
-0.21801845703125,0.10619628173828125,0.91372685546875
-0.214857578125,0.1015395654296875,0.87637033203125
-0.2007551953125,0.0976181201171875,0.9011927587890625
-0.23260712890625002,0.07972652587890625,0.87637033203125
-0.2386857421875,0.04492369873046875,0.8422087744140625
-0.17376615234375,0.04786478271484375,0.80853875
-0.174981875,0.0633054736328125,0.846386806640625
-0.212912421875,0.0456589697265625,0.90782845703125
-0.23455228515625,0.0819323388671875,0.9901602685546875
-0.26324333984375,0.0819323388671875,1.0633987158203124
-0.27394169921875,0.10276501708984374,1.055779951171875
-0.2143712890625,0.10913736572265625,0.9891772021484375
-0.22336763671875,0.11501953369140624,0.9351085498046875
-0.2255559375,0.14933218017578126,0.96484630859375
-0.2668905078125,0.16085142578125,1.0228472265625
-0.2800203125,0.17335103271484376,1.0550426513671876
-0.27734572265625,0.1878113623046875,1.0240760595703124
-0.2707808203125,0.169674677734375,0.9837703369140625
-0.2644590625,0.14835181884765625,0.9464138134765625
-0.27807515625,0.1672237744140625,0.9284728515625
-0.3038484765625,0.138303115234375,0.91176072265625
-0.298499296875,0.13119549560546875,0.9365831494140625
-0.32840607421875,0.12188206298828125,0.9292101513671875
-0.31697828125,0.11943115966796874,0.948625712890625
-0.317950859375,0.12384278564453124,0.9503460791015625
-0.33861814453125,0.1113431787109375,0.9547698779296875
-0.33521412109375,0.09835339111328124,0.9677955078125
-0.33642984375,0.07923634521484375,0.9424815478515625
-0.30555048828125,0.09492212646484376,0.9311762841796875
-0.28950294921874997,0.07065818359375,0.90782845703125
-0.29776986328125,0.056933125,0.9154472216796875
-0.30798193359375,0.08511851318359374,0.8977520263671875
-0.3135742578125,0.07237381591796875,0.8692431005859375
-0.31430369140625003,0.04198261474609375,0.875878798828125
-0.323786328125,0.05178622802734375,0.8982435595703124
-0.34202216796875,0.05374695068359375,0.9070911572265625
-0.3349709765625,0.07384435791015626,0.9301932177734376
-0.35101851562499997,0.06257020263671875,0.9179048876953125
-0.3437241796875,0.093206494140625,0.954032578125
-0.35126166015625,0.0887948681640625,1.00810123046875
-0.32694720703125,0.0799716162109375,1.044966220703125
-0.32548833984375003,0.15129290283203126,1.0759328125
-0.34737134765625,0.13462676025390624,1.0550426513671876
-0.3330258203125,0.18119392333984374,1.0471781201171875
-0.39989056640625,0.096147578125,1.004660498046875
-0.3913805078125,0.14492055419921876,1.0108046630859375
-0.42469130859375,0.1005592041015625,1.012525029296875
-0.41010263671875,0.1142842626953125,1.0353813232421876
-0.39843169921875,0.04198261474609375,1.0747039794921875
-0.360744296875,-0.0386521044921875,1.06806828125
-0.27685943359375,0.05913893798828125,1.09952640625
-0.28804408203125,0.0907555908203125,1.14966279296875
-0.24768208984375,0.0020328906249999995,1.2034856787109376
-0.316005703125,0.05864875732421875,1.2705799609375
-0.36196001953125,0.12727405029296876,1.304495751953125
-0.378250703125,0.1966346142578125,1.3381657763671875
-0.48207341796875003,0.136342392578125,1.345784541015625
-0.5314317578125,0.179478291015625,1.3905140625
-0.58273525390625,0.18707609130859376,1.3534033056640624
-0.63379560546875,0.18658591064453126,1.31186875
-0.59975537109375,0.12237224365234375,1.2315030712890624
-0.54285955078125,0.0799716162109375,1.166374921875
-0.49568951171875,-0.028113220214843748,1.0334151904296875
-0.41107521484375,-0.0646316796875,0.915201455078125
-0.40134943359374997,-0.0415931884765625,0.7950215869140624
-0.386031328125,-0.1013952294921875,0.7660211279296875
-0.45630009765625,-0.10213050048828125,0.801165751953125
-0.49179919921875,-0.10016977783203125,0.8736668994140625
-0.52511,-0.01438816162109375,0.924049052734375
-0.48353228515625,0.0348749951171875,0.912252255859375
-0.487179453125,0.03168882080078125,0.8495817724609375
-0.44535859375,0.04198261474609375,0.76823302734375
-0.362689453125,0.0868341455078125,0.7193254736328125
-0.3344846875,0.09639266845703125,0.6470700927734375
-0.2980130078125,0.09786321044921875,0.593738740234375
-0.2561921484375,0.0976181201171875,0.60111173828125
-0.22823052734375,0.13266603759765624,0.6492819921874999
-0.230418828125,0.17335103271484376,0.7856824560546875
-0.25862359375,0.22040837646484374,0.9233117529296875
-0.325731484375,0.2544759326171875,1.0496357861328125
-0.299471875,0.2799653271484375,1.06315294921875
-0.290718671875,0.2642795458984375,1.0388220556640624
-0.23892888671875,0.2868278564453125,0.977626171875
-0.187625390625,0.2897689404296875,0.9272440185546875
-0.18397822265625,0.26844608154296873,0.8756330322265625
-0.2075632421875,0.2407508740234375,0.8407341748046875
-0.144831953125,0.16746886474609374,0.7670041943359375
-0.1710915625,0.1848702783203125,0.79575888671875
-0.159420625,0.2123203955078125,0.8033776513671875
-0.17814275390625,0.19786006591796876,0.7822417236328125
-0.1744955859375,0.224574912109375,0.8033776513671875
-0.19808060546875,0.2338883447265625,0.819844013671875
-0.207076953125,0.230457080078125,0.851793671875
-0.2172890234375,0.24148614501953125,0.8535140380859375
-0.2396583203125,0.23560397705078126,0.8053437841796875
-0.1861665234375,0.2309472607421875,0.8105048828125
-0.1210037890625,0.24834867431640625,0.875878798828125
-0.159420625,0.25079957763671873,0.849336005859375
-0.209022109375,0.23928033203125,0.8028861181640625
-0.26518849609375,0.2280061767578125,0.7935469873046875
-0.28391062499999997,0.23658433837890624,0.820827080078125
-0.33715927734375,0.26011301025390626,0.86653966796875
-0.35369310546875,0.2593777392578125,0.831640810546875
-0.36366203125,0.23364325439453126,0.7711822265625
-0.34542619140624997,0.24001560302734376,0.7768348583984375
-0.360744296875,0.2309472607421875,0.739232568359375
-0.40937320312500003,0.195164072265625,0.770690693359375
-0.4137498046875,0.2103596728515625,0.7935469873046875
-0.38676076171875,0.244182138671875,0.7561904638671875
-0.40572603515625,0.2172222021484375,0.8078014501953125
-0.45386865234375,0.208889130859375,0.82328474609375
-0.4789125390625,0.206928408203125,0.86653966796875
-0.493014921875,0.2083989501953125,0.8989808593749999
-0.4409819921875,0.23707451904296875,0.8989808593749999
-0.3806821484375,0.1201664306640625,0.89406552734375
-0.4001337109375,0.13119549560546875,0.8530225048828125
-0.41399294921875,0.10766682373046875,0.8191067138671875
-0.42566388671875,0.20521277587890624,0.8564632373046875
-0.46942990234375,0.10619628173828125,0.875387265625
-0.52000396484375,0.12531332763671876,0.9183964208984375
-0.557205078125,0.09492212646484376,0.8726838330078125
-0.5265688671875,0.10178465576171875,0.8156659814453124
-0.43830740234375,0.14933218017578126,0.791335087890625
-0.44608802734374997,0.14786163818359374,0.8038691845703125
-0.48742259765625,0.09884357177734375,0.8267254785156251
-0.50954875,0.09639266845703125,0.9127437890625
-0.508576171875,0.0922261328125,0.9473968798828125
-0.486206875,0.057668395996093746,0.9660751416015625
-0.47575166015625,0.019434304199218752,0.9031588916015625
-0.4536255078125,-0.05850442138671875,0.8154202148437499
-0.38700390625000003,-0.06683749267578125,0.7719195263671875
-0.37533296875,-0.1386489599609375,0.72301197265625
-0.33083751953125,0.0059543359375,0.7606142626953125
-0.35417939453125,-0.0210056005859375,0.749554765625
-0.37533296875,0.08854977783203125,0.8734211328125
-0.37606240234375,0.193203349609375,0.931913583984375
-0.41156150390625,0.18707609130859376,0.984999169921875
-0.40134943359374997,0.17653720703125,1.009084296875
-0.37168580078125,0.14908708984375,0.9768888720703125
-0.35393625,0.0907555908203125,0.955507177734375
-0.35563826171875,0.12163697265625,0.9614055761718749
-0.397702265625,0.25619156494140627,0.9665666748046875
-0.45873154296875,0.26648535888671876,1.014491162109375
-0.4565432421875,0.3152583349609375,1.0653648486328124
-0.450221484375,0.3642764013671875,1.1390948291015626
-0.45727267578124997,0.39442251220703123,1.24796943359375
-0.4200715625,0.42383335205078126,1.257308564453125
-0.3651208984375,0.477508134765625,1.2391218359375
-0.3203823046875,0.4777532250976563,1.2605035302734375
-0.2892598046875,0.49490954833984374,1.271071494140625
-0.26227076171875,0.48804701904296877,1.370852734375
-0.30263275390625,0.5221145751953125,1.4074719580078126
-0.34542619140624997,0.5042229809570312,1.3912513623046876
-0.38141158203125003,0.418686455078125,1.2482152001953124
-0.4195852734375,0.34736516845703125,1.155069658203125
-0.36439146484375,0.1505576318359375,1.065610615234375
-0.31819400390625,0.05129604736328125,1.0284998583984375
-0.2960678515625,0.0250713818359375,0.9567360107421875
-0.2552195703125,-0.01291761962890625,0.8962774267578125
-0.2104809765625,-0.07222947998046875,0.8063268505859374
-0.1317021484375,-0.122472998046875,0.7534870312499999
-0.13145900390625,-0.16046199951171874,0.7792925244140625
-0.26907880859375,-0.1484525732421875,0.86260740234375
-0.316005703125,-0.12565917236328125,0.818860947265625
-0.3019033203125,-0.05801424072265625,0.8267254785156251
-0.38530189453125,-0.09575815185546875,0.8535140380859375
-0.40378087890625003,-0.08154291259765625,0.827708544921875
-0.43004048828125,-0.00948635498046875,0.8151744482421874
-0.40329458984375,0.11158826904296874,0.798216552734375
-0.4244481640625,0.09786321044921875,0.7950215869140624
-0.33375525390625,0.03953171142578125,0.7925639208984375
-0.32548833984375003,0.118695888671875,0.7571735302734375
-0.21169669921875,0.13560712158203125,0.7522581982421875
-0.26761994140625,0.12163697265625,0.83114927734375
-0.2717533984375,0.1672237744140625,0.8984893261718749
-0.38384302734375,0.2113400341796875,0.997779033203125
-0.39891798828125,0.2564366552734375,1.055779951171875
-0.38724705078125,0.29834710205078124,1.09657720703125
-0.40937320312500003,0.306925263671875,1.1366371630859375
-0.44292714843750003,0.32040523193359377,1.0953483740234375
-0.34032015625,0.28854348876953123,1.0267794921875
-0.15674603515625,0.18438009765625,1.091170341796875
-0.0927990234375,0.1407540185546875,1.203239912109375
-0.01572220703125,0.11109808837890625,1.326123212890625
0.052601406249999996,0.038306259765625,1.4880834033203125
0.07764529296875,0.019434304199218752,1.57238134765625
0.12141130859375,-0.04477936279296875,1.6178481689453126
0.11727785156250001,-0.04723026611328125,1.672162587890625
0.088586796875,0.048109873046875,1.7564605322265625
-0.23601115234375,0.03315936279296875,1.702637646484375
-0.432715078125,0.07261890625,1.4325401513671876
-0.461892421875,-0.06585713134765625,1.5785255126953124
-0.564013125,-0.0602200537109375,1.5736101806640626
-0.5897864453125,0.02531647216796875,1.5571438183593749
-0.4409819921875,0.05031568603515625,1.2437914013671876
-0.29776986328125,-0.06683749267578125,0.8952943603515625
-0.16914640625,-0.05409279541015625,0.785436689453125
-0.07991236328125,-0.14428603759765624,0.8166490478515624
-0.15747546875,-0.1798241357421875,0.87243806640625
-0.268349375,-0.0778665576171875,0.8235305126953125
-0.3359435546875,-0.01634888427734375,0.7458682666015625
-0.37460353515625,-0.026397587890625,0.695977646484375
-0.4200715625,-0.022476142578125,0.659604189453125
-0.42031470703125,0.02433611083984375,0.655180390625
-0.45727267578124997,0.09026541015625,0.6465785595703125
-0.43198564453125,0.09786321044921875,0.6392055615234375
-0.44851947265625003,0.08217742919921875,0.603569404296875
-0.3670660546875,0.14835181884765625,0.578009677734375
-0.26421591796875,0.11354899169921875,0.6062728369140625
-0.2450075,0.14001874755859375,0.6170865673828125
-0.218747890625,0.1731059423828125,0.6416632275390625
-0.1881116796875,0.20815385986328125,0.7139186083984375
-0.16549923828125,0.232417802734375,0.7635634619140625
-0.1793584765625,0.240260693359375,0.7498005322265625
-0.206104375,0.25128975830078126,0.708757509765625
-0.18470765625,0.2495741259765625,0.714655908203125
-0.18081734375,0.2868278564453125,0.75053783203125
-0.21947732421875,0.291239482421875,0.7389868017578125
-0.21218298828125,0.3054547216796875,0.7561904638671875
-0.21072412109375,0.2900140307617187,0.7807671240234375
-0.1764407421875,0.28021041748046877,0.8242678125
-0.14604767578125,0.30717035400390624,0.858183603515625
-0.12513724609375,0.299082373046875,0.908319990234375
-0.005753281249999999,0.20717349853515626,0.8576920703124999
0.0560054296875,0.146146005859375,0.9606682763671874
0.09466541015625,0.11011772705078125,0.9459222802734375
0.12773306640624998,0.02727719482421875,0.9166760546875
0.11897986328125,-0.02419177490234375,0.9085657568359375
0.12676048828125,-0.07615092529296875,0.8864467626953125
0.09661056640625,-0.11536537841796875,0.8778449316406249
-0.16355408203125,0.081442158203125,0.999745166015625
-0.29144810546875,0.08756941650390625,1.002694365234375
-0.27394169921875,0.14124419921875,1.00613509765625
-0.205131796875,0.2417312353515625,1.05332228515625
-0.23357970703125,0.2809456884765625,1.0525849853515625
-0.2406308984375,0.2936903857421875,1.002694365234375
-0.1278118359375,0.29785692138671876,0.929947451171875
-0.0025924023437500013,0.2495741259765625,0.917167587890625
-0.01426333984375,0.291239482421875,1.0068723974609375
-0.02909515625,0.31305252197265626,1.0742124462890625
-0.040766093749999996,0.332414658203125,1.197833046875
-0.16501294921875,0.44393075927734377,1.3905140625
-0.3369161328125,0.44687184326171875,1.348733740234375
-0.38530189453125,0.412804287109375,1.2211808740234376
-0.37071322265625,0.37236438232421876,1.1533492919921875
-0.4030514453125,0.35692369140625,1.0978060400390626
-0.43830740234375,0.365746943359375,1.0511103857421875
-0.44535859375,0.34246336181640624,1.0987891064453126
-0.3670660546875,0.3603549560546875,0.9301932177734376
-0.23066197265625,0.34001245849609374,0.83704767578125
-0.13729447265625,0.26158355224609375,0.7940385205078125
0.0180748828125,0.16673359375,0.7901062548828125
-0.007941582031250002,0.11649007568359375,0.8633447021484375
-0.27880458984375,0.0250713818359375,0.9284728515625
-0.081614375,0.11698025634765626,1.0235845263671874
-0.14215736328125,0.13511694091796875,0.967303974609375
-0.1317021484375,0.09639266845703125,0.9080742236328125
-0.2532744140625,0.09247122314453125,0.9803296044921875
-0.31235853515625,0.0530116796875,0.9874568359375
-0.27734572265625,0.0789912548828125,1.002694365234375
-0.2561921484375,0.04198261474609375,1.0235845263671874
-0.25205869140625,0.04149243408203125,0.99433830078125
-0.17911533203125,-0.01781942626953125,0.93928658203125
-0.1278118359375,0.01404231689453125,0.983033037109375
-0.18689595703125,0.022620478515625,1.060695283203125
-0.1433730859375,-0.00752563232421875,1.0874838427734375
-0.22482650390625,-0.01879978759765625,1.0525849853515625
-0.216802734375,0.0348749951171875,0.9272440185546875
-0.2192341796875,0.0623251123046875,0.854251337890625
-0.19516287109375,0.0858537841796875,0.8785822314453124
-0.19224513671875,0.08658905517578125,0.9950756005859375
-0.23990146484375,0.1299700439453125,1.124594599609375
-0.32159802734375,0.1544790771484375,1.1250861328125
-0.36220316406249997,0.1505576318359375,1.06905134765625
-0.35515197265625,0.158890703125,0.984016103515625
-0.34104958984375,0.13854820556640626,0.9127437890625
-0.26518849609375,0.127519140625,0.8834975634765625
-0.16355408203125,0.104970830078125,0.900455458984375
-0.242089765625,0.148106728515625,0.964354775390625
-0.222638203125,0.0838930615234375,0.9906518017578125
-0.31624884765625,0.16060633544921876,1.037101689453125
-0.31430369140625003,0.20864404052734375,1.0496357861328125
-0.39356880859375,0.18952699462890624,1.05528841796875
-0.37752126953125,0.22580036376953125,0.9818042041015624
-0.38724705078125,0.21697711181640625,0.9402696484374999
-0.3135742578125,0.21550656982421876,0.8554801708984375
-0.2085358203125,0.2319276220703125,0.9390408154296875
-0.23747001953125,0.275553701171875,1.0978060400390626
-0.32111173828125,0.27530861083984376,1.1845616503906249
-0.27880458984375,0.2848671337890625,1.2359268701171875
-0.22579908203125,0.2760438818359375,1.13000146484375
-0.228473671875,0.261828642578125,1.057746083984375
-0.32111173828125,0.2162418408203125,1.0909245751953125
-0.4278521875,0.16624341308593749,1.1132893359375
-0.37557611328125,0.2289865380859375,1.070525947265625
-0.28974609375,0.1564397998046875,0.97664310546875
-0.25011353515625,0.2020266015625,0.995812900390625
-0.1540714453125,0.1397736572265625,0.9835245703125
-0.18300564453125,0.23928033203125,1.083305810546875
-0.25886673828125,0.23952542236328125,1.1617053564453126
-0.407428046875,0.1780077490234375,1.1388490625
-0.3028758984375,0.2123203955078125,1.0304659912109375
-0.3194097265625,0.10595119140625,0.9788550048828125
-0.25838044921875,0.14148928955078124,0.99827056640625
-0.329621796875,0.1706550390625,1.055779951171875
-0.387976484375,0.07727562255859374,1.07494974609375
-0.42201671875,0.1182057080078125,1.0722463134765625
-0.42420501953125,0.04737460205078125,1.06020375
-0.39016478515624997,0.15521434814453125,1.0299744580078125
-0.33618669921875,0.06845237060546874,0.8854636962890625
-0.29533841796875,0.0740894482421875,0.7964961865234375
-0.3135742578125,0.0486000537109375,0.751029365234375
-0.384086171875,0.02678701416015625,0.7945300537109374
-0.47818310546875,0.008895419921875,0.951574912109375
-0.5148979296875,-0.0082609033203125,1.0098215966796875
-0.51319591796875,0.0162481298828125,0.9891772021484375
-0.45532751953125,-0.0023787353515625003,0.8537598046875
-0.37800755859375,0.026296833496093748,0.7539785644531249
-0.279047734375,0.07482471923828125,0.7901062548828125
-0.428824765625,0.10987263671875,0.9183964208984375
-0.51538421875,-0.00360418701171875,1.0307117578125
-0.424934453125,0.11967625,1.1388490625
-0.54966759765625,0.16746886474609374,1.167849521484375
-0.55501677734375,0.10399046875,1.053813818359375
-0.51416849609375,0.1299700439453125,0.9606682763671874
-0.486206875,0.1133039013671875,0.9174133544921875
-0.44608802734374997,0.05031568603515625,0.9252778857421875
-0.48742259765625,0.1201664306640625,1.0009739990234374
-0.49885039062500003,0.04443351806640625,0.9311762841796875
-0.405482890625,0.0270321044921875,0.8771076318359375
-0.315033125,0.032424091796875,0.873912666015625
-0.50979189453125,0.09492212646484376,0.9638632421875
-0.5367809375,0.10178465576171875,0.8687515673828125
-0.4983641015625,0.07825598388671876,0.7987080859375
-0.3476144921875,0.10570610107421875,0.7684787939453125
-0.34591248046875,0.0780108935546875,0.8510563720703125
-0.4156949609375,-0.00507472900390625,0.8785822314453124
-0.46991619140625,0.0397768017578125,0.901438525390625
-0.47818310546875,-0.038161923828125,0.8279543115234375
-0.38919220703125,0.101049384765625,0.81148794921875
-0.44268400390625,0.0446786083984375,0.8171405810546875
-0.3544225390625,-0.057769150390625,0.78789435546875
-0.36925435546875,-0.040122646484374996,0.7736398925781249
-0.338375,0.04590406005859375,0.6849181494140625
-0.3787369921875,0.062080021972656246,0.655180390625
-0.4458448828125,-0.013162709960937501,0.634044462890625
-0.4589746875,0.00276816162109375,0.6072559033203125
-0.4536255078125,0.0152677685546875,0.625196865234375
-0.42590703125,0.00865032958984375,0.6337986962890625
-0.3301080859375,-0.027868129882812502,0.6632906884765625
-0.42615017578125003,0.0985984814453125,0.659604189453125
-0.46748474609375,0.06453092529296875,0.64633279296875
-0.40183572265625,0.04100225341796875,0.6745959521484375
-0.2785614453125,0.069677822265625,0.81935248046875
-0.2766162890625,0.077520712890625,0.850319072265625
-0.3641483203125,0.08168724853515624,0.9444476806640625
-0.44730375,0.05105095703125,1.0211268603515624
-0.50103869140625,0.10423555908203125,0.9773804052734375
-0.321841171875,0.10717664306640624,0.94321884765625
-0.30506419921875,0.024581201171875,0.969761640625
-0.36196001953125,0.10423555908203125,0.942727314453125
-0.31624884765625,0.05080586669921875,0.87047193359375
-0.352963671875,0.10987263671875,0.9149556884765625
-0.3767918359375,0.05497240234375,0.969761640625
-0.3262177734375,0.0476196923828125,1.0260421923828125
-0.24379177734375002,-0.01561361328125,0.9749227392578125
-0.26810623046875,0.01257177490234375,0.9238032861328125
-0.251815546875,-0.0239466845703125,0.8205813134765625
-0.24281919921875,-0.06193568603515625,0.681231650390625
-0.187625390625,-0.0239466845703125,0.655180390625
-0.27685943359375,0.03536517578125,0.73677490234375
-0.24695265625,-0.0425735498046875,0.77806369140625
-0.21996361328125,0.08168724853515624,0.9301932177734376
-0.31235853515625,0.14345001220703124,0.9449392138671875
-0.41399294921875,0.022620478515625,0.93535431640625
-0.25546271484375,0.09296140380859375,0.9351085498046875
-0.2007551953125,0.189281904296875,1.001219765625
-0.2425760546875,0.158890703125,1.034152490234375
-0.31697828125,0.10129447509765625,1.11623853515625
-0.21996361328125,0.18168410400390625,1.0201437939453124
-0.25449013671875,0.0740894482421875,0.9591936767578125
-0.2367405859375,0.1182057080078125,0.9945840673828125
-0.310170234375,0.1564397998046875,0.9999909326171875
-0.4273658984375,0.1976149755859375,0.98057537109375
-0.22774423828125,0.11747043701171875,0.89603166015625
-0.25935302734375,0.1593808837890625,0.9508376123046876
-0.1910294140625,0.061834931640625,0.8702261669921875
-0.2017277734375,0.1250682373046875,0.924049052734375
-0.226528515625,0.14443037353515625,0.954032578125
-0.15869119140625,0.1505576318359375,1.0093300634765625
-0.27053767578125,0.183399736328125,1.180629384765625
-0.277102578125,0.208889130859375,1.2467406005859374
-0.2746711328125,0.13315621826171875,1.2162655419921875
-0.22482650390625,0.1476165478515625,1.1105859033203125
-0.26056875,0.22359455078125,1.0250591259765625
-0.1404553515625,0.122617333984375,0.968287041015625
-0.23503857421875,0.17825283935546876,1.095102607421875
-0.22579908203125,0.15692998046875,1.19390078125
-0.3670660546875,0.0505607763671875,1.2600119970703125
-0.39697283203125,0.03021827880859375,1.033169423828125
-0.36487775390625,0.163792509765625,0.7729025927734375
-0.218747890625,0.12923477294921876,0.632078330078125
-0.047087851562500005,0.020659755859375,0.637976728515625
-0.000890390625000001,0.12531332763671876,0.9591936767578125
-0.10860341796875,0.26795590087890625,1.2295369384765624
-0.33132380859375,0.25079957763671873,1.4315570849609376
-0.42858162109375,0.21011458251953125,1.5534573193359376
-0.55744822265625,0.15423398681640624,1.3440641748046875
-0.53459263671875,0.15766525146484375,0.994829833984375
-0.3048210546875,0.116735166015625,0.769707626953125
-0.12076064453125,0.106931552734375,0.656654990234375
-0.1667149609375,0.0338946337890625,0.54802615234375
-0.17717017578125,-0.01732924560546875,0.4956778662109375
-0.105928828125,0.06404074462890624,0.5942302734375
-0.10908970703125,0.01012087158203125,0.7694618603515625
-0.20148462890625,-0.04379900146484375,1.034152490234375
-0.325731484375,-0.042328459472656246,1.304495751953125
-0.40864376953125,-0.08203309326171875,1.3224367138671875
-0.38141158203125003,-0.0778665576171875,1.1346710302734375
-0.35855599609375,0.0505607763671875,0.992863701171875
-0.259596171875,0.04149243408203125,0.961897109375
-0.30214646484375,-0.09428760986328125,0.9414984814453125
-0.27151025390625,-0.0523771630859375,0.9277355517578125
-0.2143712890625,0.0329142724609375,0.840488408203125
-0.19467658203125,-0.03056412353515625,0.66599412109375
-0.21850474609375,-0.0018885546875000003,0.6333071630859375
-0.2007551953125,-0.063651318359375,0.594721806640625
-0.10860341796875,0.0319339111328125,0.63650212890625
-0.0947441796875,0.01208159423828125,0.8510563720703125
-0.25643529296875,-0.083258544921875,0.9916348681640625
-0.34445361328125,-0.07713128662109375,1.043000087890625
-0.30700935546875,-0.00409436767578125,0.9326508837890625
-0.3515048046875,-0.05997496337890625,0.7891231884765625
-0.16160892578125,-0.0494360791015625,0.77216529296875
-0.24525064453125,-0.08227818359375,0.8254966455078125
-0.19637859375,0.0005623486328125002,0.8156659814453124
-0.09644619140624999,0.0309535498046875,0.7896147216796875
-0.0500055859375,0.02090484619140625,0.780521357421875
-0.07748091796875001,0.03315936279296875,0.92159138671875
-0.15577345703125,-0.0210056005859375,1.0422627880859374
-0.228473671875,0.08511851318359374,1.1980788134765625
-0.28026345703125,0.0515411376953125,1.19291771484375
-0.07407689453124999,0.10031411376953125,1.0973145068359376
-0.1511537109375,0.014777587890624999,1.0747039794921875
-0.23114826171875,0.02433611083984375,1.0385762890625
-0.28561263671875,-0.03644629150390625,0.979100771484375
-0.2921775390625,0.026051743164062502,0.922574453125
-0.34421046875,0.0211499365234375,0.872929599609375
-0.16063634765625,0.0451687890625,0.8136998486328125
-0.030067734375000002,0.06894255126953125,0.8107506494140625
0.002756777343749999,-0.06879821533203125,0.9009469921875
-0.06921400390625,-0.02027032958984375,1.0319405908203125
-0.063135390625,-0.0778665576171875,1.0530765185546875
-0.14580453125,-0.07909200927734375,1.1720275537109375
-0.282938046875,-0.0798272802734375,1.27942755859375
-0.19637859375,-0.0004180126953125,1.1749767529296875
-0.22920310546875,-0.04968116943359375,1.0621698828125
-0.14896541015625,-0.0055649096679687505,0.9572275439453125
-0.14167107421875,0.0564429443359375,0.94518498046875
-0.2445212109375,-0.02370159423828125,0.9729566064453125
-0.3544225390625,0.0329142724609375,1.0466865869140625
-0.127325546875,0.0603643896484375,0.964354775390625
-0.1064151171875,0.00791505859375,0.98057537109375
-0.07383375,0.020659755859375,0.9454307470703125
-0.06872771484375,-0.02860340087890625,0.93338818359375
-0.16695810546875,0.0348749951171875,0.979100771484375
-0.11492517578125,0.004973974609375,0.9999909326171875
-0.17619759765625,0.09296140380859375,1.1445016943359374
-0.24184662109375,0.0103659619140625,1.17325638671875
-0.21753216796875,-0.04575972412109375,1.117713134765625
-0.2513292578125,0.063795654296875,1.0869923095703125
-0.2834243359375,0.07188363525390624,1.0938737744140625
-0.2450075,0.01183650390625,1.094119541015625
-0.2124261328125,0.02752228515625,1.128526865234375
-0.20780638671875,0.15031254150390624,1.0801108447265624
-0.14993798828125,0.06281529296875,0.98647376953125
-0.131215859375,0.0780108935546875,0.9587021435546875
-0.162338359375,0.10766682373046875,0.8717007666015625
-0.14896541015625,0.0436982470703125,0.8761245654296875
-0.1103054296875,7.216796875000007e-05,0.984016103515625
-0.16501294921875,0.00766996826171875,1.1449932275390624
-0.142886796875,-0.02370159423828125,1.16244265625
-0.10276794921875,0.1015395654296875,1.1388490625
-0.1385101953125,0.14884199951171875,1.21454517578125
-0.32086859375,-0.00360418701171875,1.2472321337890624
-0.36585033203125,0.046149150390625,1.245020234375
-0.2698082421875,0.067717099609375,1.1744852197265625
-0.33715927734375,0.024581201171875,1.091170341796875
-0.27540056640625,0.0927163134765625,0.8884128955078126
-0.17133470703125,0.0221302978515625,0.6922911474609375
-0.00016095703124999888,-0.03105430419921875,0.5998829052734375
-0.0013766796875,0.00865032958984375,0.67779091796875
-0.01572220703125,0.07261890625,0.88620099609375
-0.251815546875,-0.06340622802734375,0.9449392138671875
-0.22044990234375,-0.1886473876953125,0.8854636962890625
-0.0354169140625,-0.17835359375,0.8726838330078125
-0.19564916015625,0.0030132519531249997,0.9336339501953125
-0.18300564453125,-0.02860340087890625,0.9449392138671875
-0.24914095703125,-0.0504164404296875,0.9528037451171875
-0.15577345703125,0.02776737548828125,0.8392595751953125
-0.21169669921875,0.10374537841796876,0.7989538525390625
-0.10422681640625,0.02360083984375,0.84786140625
-0.02593427734375,0.0584036669921875,1.0307117578125
-0.19564916015625,0.18854663330078125,1.091661875
-0.11857234375,0.13609730224609376,1.06315294921875
-0.0558410546875,0.1133039013671875,1.0589749169921876
-0.15528716796875,0.0750698095703125,1.0149826953125
-0.218747890625,0.03413972412109375,0.9459222802734375
-0.249870390625,0.022620478515625,0.9400238818359374
-0.25789416015625,0.09026541015625,0.912252255859375
-0.2970404296875,0.11207844970703125,0.91765912109375
-0.25011353515625,0.04100225341796875,0.813945615234375
-0.13437673828125,0.0819323388671875,0.7620888623046875
-0.142886796875,0.06281529296875,0.7886316552734375
-0.1103054296875,0.16403760009765625,0.8731753662109375
-0.1385101953125,0.08364797119140625,0.932896650390625
-0.039793515625,-0.03399538818359375,0.95698177734375
-0.21461443359375,0.08609887451171874,1.26959689453125
-0.18203306640625,0.09198104248046875,1.2093840771484374
-0.32646091796875,0.132420947265625,1.1046875048828124
-0.17717017578125,-0.04379900146484375,1.0034316650390624
-0.16185207031249998,-0.07811164794921875,0.9842618701171875
-0.1355924609375,-0.08007237060546875,0.90586232421875
-0.11054857421875,-0.068553125,0.8195982470703125
-0.10811712890625,-0.12173772705078124,0.7276815380859375
-0.20926525390625,-0.17418705810546875,0.7006472119140625
-0.05948822265625,-0.169530341796875,0.70335064453125
-0.04465640625,-0.138158779296875,0.930930517578125
-0.142886796875,-0.08423890625,1.146222060546875
-0.14750654296875,-0.0011532836914062497,1.1548238916015625
-0.08137123046875,0.03904153076171875,1.095102607421875
-0.26859251953125,0.09394176513671874,0.9886856689453125
-0.16258150390625,0.1113431787109375,0.9616513427734374
-0.1064151171875,0.04590406005859375,1.0700344140625
-0.17182099609375,0.140263837890625,1.2147909423828125
-0.10811712890625,0.095167216796875,1.2246216064453126
-0.19321771484375,-0.03497574951171875,1.06806828125
-0.3111428125,-0.0798272802734375,0.915201455078125
-0.2980130078125,-0.0621807763671875,0.7436563671875001
-0.0869635546875,0.008895419921875,0.7153932080078125
-0.07115916015625,-0.04821062744140625,0.8417172412109375
-0.096203046875,0.03315936279296875,1.0294829248046875
-0.2240970703125,-0.02149578125,1.0633987158203124
-0.175954453125,0.049090234375,1.028254091796875
-0.10179537109375,-0.00458454833984375,1.08674654296875
-0.25643529296875,0.0613447509765625,1.1646545556640624
-0.181789921875,0.12163697265625,1.1150097021484375
-0.08331638671875,0.028502646484374998,1.0756870458984376
-0.1628246484375,-0.02762303955078125,1.1290183984375
-0.16185207031249998,-0.02762303955078125,1.19390078125
-0.13097271484375,0.0280124658203125,1.228799638671875
-0.2172890234375,-0.0646316796875,1.23027423828125
-0.31333111328125,0.00619942626953125,1.2393676025390625
-0.216802734375,-0.01978014892578125,1.07691587890625
-0.2114535546875,-0.05850442138671875,0.8844806298828125
-0.03711892578125,-0.042328459472656246,0.8677685009765626
0.010780546874999998,0.01551285888671875,1.026287958984375
-0.22336763671875,-0.0646316796875,1.196358447265625
-0.15869119140625,-0.1396293212890625,1.300071953125
-0.16501294921875,0.0035034326171875,1.35414060546875
-0.32475890625,-0.032279755859375,1.126560732421875
-0.19078626953125,-0.0121823486328125,0.9719735400390626
-0.1433730859375,-0.03399538818359375,0.8746499658203125
-0.14410251953125,-0.169530341796875,0.8215643798828125
-0.15358515625,-0.2141367822265625,0.9065996240234375
-0.22725794921875,-0.1665892578125,0.889641728515625
-0.26518849609375,-0.05899460205078125,0.710723642578125
-0.107873984375,-0.18497103271484375,0.716622041015625
0.01005111328125,-0.13889405029296875,0.862115869140625
-0.01669478515625,-0.05482806640625,1.12606919921875
-0.06872771484375,0.0809519775390625,1.4035396923828125
-0.271267109375,0.0466393310546875,1.560093017578125
-0.331566953125,0.0255615625,1.310394150390625
-0.35393625,0.00399361328125,0.9940925341796875
-0.27831830078124997,0.06355056396484375,0.83114927734375
-0.25351755859375,0.0672269189453125,0.72104583984375
-0.09401474609375,-0.028113220214843748,0.677299384765625
0.035095,-0.03301502685546875,0.7183424072265625
-0.02301654296875,-0.04379900146484375,0.8662939013671875
-0.068970859375,-0.089140712890625,0.924049052734375
-0.11298001953125,0.00717978759765625,1.1388490625
-0.15431458984375,-0.04477936279296875,1.3538948388671874
-0.26275705078125,-0.0494360791015625,1.4143534228515624
-0.3904079296875,0.0015427099609375003,1.1985703466796875
-0.37995271484375,-0.16462853515625,0.92748978515625
-0.10519939453125,-0.11193411376953125,0.7075286767578125
-0.012561328125,0.046149150390625,0.5998829052734375
0.008349101562499999,0.03413972412109375,0.538687021484375
-0.006239570312500001,-0.0876701708984375,0.588331875
-0.0855046875,-0.0837487255859375,0.8574463037109374
-0.21510072265625,0.0711483642578125,0.9994993994140625
-0.2182616015625,0.059874208984374996,1.1651460888671874
-0.03128345703125,0.0495804150390625,1.161951123046875
-0.112736875,0.11599989501953126,1.1346710302734375
-0.09790505859375,0.04712951171875,0.98843990234375
-0.14580453125,-0.03129939453125,0.870963466796875
-0.11395259765625,-0.03987755615234375,0.8918536279296875
-0.1268392578125,-0.03154448486328125,0.8554801708984375
-0.10811712890625,-0.076396015625,0.9906518017578125
-0.1667149609375,-0.0881603515625,1.1292641650390625
-0.2698082421875,-0.03301502685546875,1.0407881884765624
-0.27102396484375,0.0378160791015625,0.839996875
-0.20804953125,0.00178780029296875,0.7281730712890625
-0.01085931640625,0.04712951171875,0.6539515576171875
0.039957890625,0.049090234375,0.733825703125
0.02318091796875,0.118695888671875,0.958456376953125
-0.044170117187499996,0.05717821533203125,1.1115689697265625
-0.16185207031249998,-0.05360261474609375,1.18603625
-0.2192341796875,0.07874616455078125,1.1838243505859376
-0.2581373046875,0.09884357177734375,1.015474228515625
-0.28074974609375003,0.01110123291015625,0.99433830078125
-0.31989601562500003,0.03168882080078125,0.946659580078125
-0.40086314453125,0.0280124658203125,0.8471241064453126
-0.18640966796875,0.00668960693359375,0.704825244140625
0.034608710937499995,0.0152677685546875,0.6984353125
0.05673486328125,0.03512008544921875,0.7773263916015625
0.03971474609375,-0.03203466552734375,0.8982435595703124
-0.066053125,-0.05458297607421875,1.088221142578125
-0.2775888671875,-0.073454931640625,0.99827056640625
-0.19613544921875,-0.030319033203124998,0.8230389794921875
-0.12610982421875,0.04124734375,0.856217470703125
-0.039307226562500006,0.1182057080078125,0.8557259375
-0.16647181640625,0.018699033203125,0.9744312060546875
-0.20415921875,0.12923477294921876,1.0737209130859375
-0.203186640625,0.09247122314453125,1.0407881884765624
-0.3194097265625,0.00791505859375,1.0442289208984374
-0.3515048046875,0.071638544921875,0.9881941357421875
-0.121490078125,-0.051886982421875,0.9397781152343749
0.004701933593749999,0.09051050048828126,0.975168505859375
-0.168173828125,-0.027868129882812502,0.9611598095703124
-0.0363894921875,0.01183650390625,0.985490703125
-0.07869664062500001,-0.138158779296875,1.06806828125
-0.054868476562500004,-0.12369844970703125,1.15949345703125
-0.06872771484375,0.019679394531249998,1.1172216015625
-0.26178447265625,-0.06732767333984375,1.0358728564453126
-0.2279873828125,-0.09796396484375,0.9473968798828125
-0.09912078125,-0.146001669921875,0.9016842919921875
-0.17327986328125,-0.04183827880859375,0.838522275390625
-0.02398912109375,-0.09967959716796874,0.8215643798828125
-0.015479062500000002,0.044188427734375,1.028254091796875
-0.185680234375,0.026296833496093748,1.141306728515625
-0.06021765625,0.02139502685546875,1.2811479248046875
-0.0655668359375,0.052031318359375,1.3538948388671874
-0.25740787109375,0.0525214990234375,1.1621968896484376
-0.32986494140625,0.015022678222656249,0.9449392138671875
-0.3874901953125,0.0191892138671875,0.7773263916015625
-0.23819945312500002,-0.0553182470703125,0.55982294921875
0.0803198828125,-0.03938737548828125,0.6156119677734375
0.0764295703125,-0.0097314453125,0.894557060546875
-0.0344443359375,-0.02272123291015625,1.24796943359375
-0.35661083984374997,-0.00997653564453125,1.29712275390625
-0.25108611328125,-0.10801266845703125,1.25583396484375
-0.1910294140625,0.03119864013671875,1.2683680615234374
-0.14312994140625,-0.00458454833984375,1.1764513525390625
-0.16452666015625,-0.0974737841796875,1.2575543310546875
-0.25497642578125,-0.00311400634765625,1.2821309912109375
-0.24136033203125,-0.02517213623046875,1.048406953125
-0.16306779296875,-0.048455717773437504,0.838522275390625
-0.2347954296875,-0.12860025634765626,0.7232577392578124
-0.060947089843749996,-0.11634573974609375,0.8112421826171875
0.09490855468750001,-0.05556333740234375,1.04349162109375
-0.10908970703125,-0.1425704052734375,1.236664169921875
-0.0665394140625,-0.17467723876953126,1.1435186279296874
-0.159420625,-0.171491064453125,1.08084814453125
-0.17303671874999998,-0.059484782714843754,1.052830751953125
-0.1851939453125,-0.06585713134765625,1.136391396484375
-0.27929087890625,0.067717099609375,1.2152824755859375
-0.24281919921875,-0.15163874755859374,1.0063808642578125
-0.15431458984375,-0.08423890625,0.883251796875
-0.09352845703125,0.11207844970703125,0.868997333984375
-0.119544921875,0.13536203125,0.986965302734375
-0.0334717578125,0.06109966064453125,1.1287726318359375
-0.100093359375,0.07041309326171875,1.33447927734375
-0.0869635546875,0.0535018603515625,1.2251131396484376
-0.1560166015625,0.061834931640625,1.13000146484375
-0.10690140625,-0.161687451171875,0.92945591796875
-0.09523046875,-0.18742193603515625,1.00220283203125
-0.21364185546875,-0.1013952294921875,1.1956211474609375
-0.2941226953125,-0.24232217041015625,1.1327048974609375
-0.25935302734375,-0.220509130859375,0.9449392138671875
-0.03614634765625,-0.20604880126953126,0.79772501953125
-0.0067258593750000005,-0.16879507080078124,0.7960046533203124
-0.0237459765625,-0.0803174609375,0.9842618701171875
-0.1268392578125,0.03364954345703125,1.156052724609375
-0.1044699609375,0.03855135009765625,1.20078224609375
-0.14361623046875,0.0348749951171875,1.1405694287109376
-0.020828242187500002,-0.04379900146484375,0.995812900390625
-0.010616171875,-0.1004148681640625,0.86850580078125
-0.14215736328125,-0.15801109619140624,0.6905707812499999
-0.0538958984375,-0.179333955078125,0.7168678076171875
-0.12854126953125,-0.21683277587890626,0.7783094580078125
-0.1073876953125,-0.183255400390625,0.85474287109375
-0.12173322265625,-0.09820905517578125,0.9508376123046876
-0.23819945312500002,-0.15997181884765624,1.039067822265625
-0.0976619140625,-0.029338671875,0.99827056640625
-0.24695265625,0.0946770361328125,1.00416896484375
-0.22774423828125,0.08266760986328126,0.9449392138671875
-0.07748091796875001,-0.02419177490234375,0.8043607177734375
-0.04198181640625,-0.04379900146484375,0.7161305078125
0.0608683203125,-0.055808427734375,0.706791376953125
0.078861015625,-0.06928839599609375,0.7881401220703125
0.06791951171874999,0.01012087158203125,0.8889044287109376
-0.2027003515625,0.05962911865234375,0.797233486328125
-0.18738224609375,0.19099753662109376,0.8923451611328125
-0.2425760546875,-0.0327699365234375,1.0899415087890625
-0.17960162109375,0.0378160791015625,1.067576748046875
-0.12805498046875,0.12727405029296876,0.975168505859375
-0.09401474609375,-0.0415931884765625,0.9331424169921875
-0.22677166015625,-0.053847705078125,0.860149736328125
-0.1297569921875,-0.1219828173828125,0.7262069384765625
-0.0237459765625,-0.10458140380859375,0.78396208984375
0.00810595703125,-0.0592396923828125,0.74660556640625
-0.046358417968749996,0.04100225341796875,0.741690234375
-0.1715778515625,0.0843832421875,0.7846993896484376
-0.055354765624999996,-0.010711806640625,0.748080166015625
0.01880431640625,0.033404453125,0.8087845166015625
-0.0694571484375,0.20080114990234374,0.9397781152343749
-0.08623412109375,0.177517568359375,1.039067822265625
-0.13875333984375,0.0133070458984375,1.2076637109375
-0.2970404296875,0.09247122314453125,1.252884765625
-0.29776986328125,0.143204921875,0.9626344091796875
-0.2036729296875,0.03610044677734375,0.8154202148437499
-0.01231818359375,0.0309535498046875,0.8648193017578125
0.09150453124999999,0.06600146728515625,1.014491162109375
0.0034862109374999978,-0.08007237060546875,1.162934189453125
0.0404441796875,-0.08644471923828125,1.2017653125
0.0025136328124999996,-0.08742508056640624,1.0511103857421875
-0.09401474609375,-0.061690595703125004,0.8839890966796875
-0.020828242187500002,-0.01928996826171875,0.7711822265625
-0.052680175781250005,-0.11095375244140625,0.9798380712890625
0.0012979101562499984,-0.04968116943359375,1.1489254931640625
-0.0256911328125,0.080461796875,1.3327589111328124
-0.119544921875,0.01306195556640625,1.3327589111328124
-0.36366203125,-0.05409279541015625,1.2941735546875
-0.2800203125,-0.075415654296875,1.00515203125
-0.24670951171875,0.0309535498046875,0.8254966455078125
-0.205131796875,0.04002189208984375,0.7881401220703125
-0.0383346484375,0.00178780029296875,0.770690693359375
-0.0023492578125000017,-0.17957904541015626,0.9127437890625
-0.04052294921875,-0.0082609033203125,1.024321826171875
-0.09498732421875,-0.0749254736328125,0.9960586669921875
0.009078535156249998,-0.0680629443359375,1.091661875
-0.043683828125000004,-0.1180613720703125,1.2029941455078126
-0.13826705078125,-0.0553182470703125,1.3430811083984375
-0.23455228515625,-0.09673851318359375,1.2826225244140625
-0.2396583203125,-0.09404251953125001,1.1258234326171874
-0.27053767578125,0.06281529296875,0.9972875
-0.21193984375,-0.0523771630859375,0.9419900146484375
-0.11881548828124999,-0.07443529296875,1.147205126953125
-0.1579617578125,-0.1161006494140625,1.31875021484375
-0.13948277343749999,0.0584036669921875,1.365445869140625
-0.2299325390625,-0.03644629150390625,1.1997991796875
-0.3242726171875,-0.0960032421875,0.9567360107421875
-0.22385392578125,-0.1082577587890625,0.80165728515625
0.0049450781249999985,-0.1268846240234375,0.80067421875
0.0560054296875,-0.14820748291015626,0.7738856591796874
-0.00891416015625,-0.2180582275390625,0.82328474609375
-0.1365650390625,-0.2504101513671875,0.80952181640625
-0.26032560546875,-0.26266466796875,0.801165751953125
-0.0743200390625,-0.2820268041992188,0.8097675830078125
-0.0006472460937500014,-0.2474690673828125,1.08478041015625
-0.072861171875,-0.149923115234375,1.2605035302734375
-0.12951384765625001,0.020659755859375,1.2506728662109374
-0.1511537109375,-0.0011532836914062497,1.1125520361328125
-0.27005138671875,0.0451687890625,1.0221099267578124
-0.24962724609375,-0.0018885546875000003,1.0575003173828126
-0.14361623046875,-0.0710040283203125,1.06020375
-0.12610982421875,-0.1131595654296875,1.0973145068359376
-0.0621628125,-0.06879821533203125,0.9936010009765625
-0.043683828125000004,-0.154824921875,0.873912666015625
0.02026318359375,-0.187176845703125,0.845403740234375
-0.07310431640625001,-0.09379742919921875,0.9788550048828125
-0.20732009765625,0.0446786083984375,1.10640787109375
-0.26081189453125,0.085363603515625,1.119187734375
-0.3339983984375,0.03413972412109375,0.9223286865234375
-0.1988100390625,-0.0016434643554687498,0.766758427734375
-0.02885201171875,-0.00409436767578125,0.643875126953125
0.08153560546875,-0.00213364501953125,0.6829520166015625
0.06257033203125,0.0633054736328125,0.884726396484375
-0.1521262890625,-0.0190448779296875,1.1882481494140624
-0.21072412109375,-0.11487519775390626,1.3332504443359374
-0.037848359375,0.021885207519531248,1.3548779052734374
-0.2153438671875,0.00717978759765625,1.1346710302734375
-0.13923962890625,-0.0055649096679687505,1.0112961962890625
-0.06289224609374999,-0.0513968017578125,0.97467697265625
-0.0733474609375,-0.16585398681640626,0.9520664453125
-0.0140201953125,-0.09845414550781251,0.955507177734375
-0.007455292968749999,-0.08840544189453126,0.9385492822265625
0.086641640625,-0.07370002197265625,0.9604225097656249
-0.0714023046875,-0.1151202880859375,1.0245675927734375
-0.16258150390625,-0.11536537841796875,1.127543798828125
-0.1774133203125,-0.1435507666015625,1.149171259765625
-0.24914095703125,-0.0249270458984375,1.1808751513671876
-0.205131796875,0.036345537109375,1.09264494140625
-0.190543125,-0.0023787353515625003,0.964354775390625
-0.1268392578125,-0.11634573974609375,0.82918314453125
-0.2309051171875,-0.22173458251953124,0.7554531640625
-0.11006228515625,-0.2141367822265625,0.6136458349609375
-0.020828242187500002,-0.14698203125,0.5455684863281249
0.023910351562499998,-0.095022880859375,0.5182883935546875
0.08299447265625,-0.05017135009765625,0.6637822216796875
0.10730892578125,-0.02664267822265625,1.022355693359375
0.06354291015625,-0.06267095703125,1.2698426611328124
-0.20051205078125,0.01453249755859375,1.5239653271484375
-0.38092529296875,0.13707766357421874,1.438192783203125
-0.43927998046875,-0.01046671630859375,1.136391396484375
-0.370470078125,-0.0425735498046875,0.894557060546875
-0.14021220703125,0.0486000537109375,0.7987080859375
-0.084532109375,-0.19232374267578126,0.9498545458984375
-0.0752926171875,-0.09232688720703125,0.9881941357421875
0.1114423828125,-0.10065995849609374,1.056271484375
0.08980251953125,-0.196980458984375,1.15162892578125
0.07764529296875,-0.20310771728515625,1.196358447265625
-0.07383375,-0.22418548583984374,1.1852989501953124
-0.23649744140625,-0.1396293212890625,1.0776531787109376
-0.2736985546875,-0.17859868408203125,0.9778719384765625
-0.23844259765625,-0.232273466796875,0.9262609521484375
-0.12854126953125,-0.01291761962890625,0.9901602685546875
-0.02593427734375,-0.04428918212890625,0.962388642578125
-0.23309341796875,-0.24624361572265624,1.0663479150390625
-0.24306234375,-0.0866898095703125,1.03169482421875
-0.2007551953125,-0.06585713134765625,0.91176072265625
-0.1949197265625,-0.01561361328125,0.8559717041015625
-0.14118478515625,-0.09330724853515625,0.8245135791015625
0.008592246093749999,-0.08203309326171875,0.896523193359375
0.001541054687499998,0.0358553564453125,0.9773804052734375
0.0180748828125,0.09982393310546875,1.028254091796875
0.0209926171875,-0.00801581298828125,1.120662333984375
-0.0801555078125,-0.11536537841796875,1.34234380859375
-0.25789416015625,0.026296833496093748,1.4467946142578125
-0.32257060546875,0.0358553564453125,1.292698955078125
-0.3797095703125,-0.1430605859375,1.052830751953125
-0.26129818359375,-0.10997339111328125,0.866048134765625
-0.1307295703125,-0.04036773681640625,0.754961630859375
-0.13024328125,-0.15408965087890625,0.6453497265625
-0.02690685546875,-0.1935491943359375,0.66009572265625
0.09904201171875,-0.05801424072265625,0.7242408056640625
0.08591220703124999,-0.03448556884765625,0.8874298291015625
0.07618642578125,0.00570924560546875,1.11230626953125
-0.040766093749999996,0.01306195556640625,1.2231470068359376
-0.15625974609374998,0.02286556884765625,1.231748837890625
-0.13534931640625,0.09100068115234375,1.1926719482421875
-0.18203306640625,0.033404453125,1.2054518115234374
-0.10374052734375,0.05570767333984375,1.1695698876953124
-0.14458880859375,-0.0011532836914062497,1.1351625634765625
-0.22044990234375,-0.024436865234375,1.0801108447265624
-0.24427806640625,-0.11757119140625,0.948625712890625
-0.2805066015625,-0.179333955078125,0.8633447021484375
-0.15066742187499998,-0.05017135009765625,0.7318595703125
0.0744844140625,-0.0651218603515625,0.67779091796875
0.14402375,-0.06536695068359374,0.73480876953125
0.1299213671875,-0.14281549560546875,1.01399962890625
-0.01961251953125,-0.154824921875,1.317275615234375
-0.096203046875,-0.032279755859375,1.36790353515625
-0.137051328125,-0.00997653564453125,1.371344267578125
-0.24136033203125,0.1079119140625,1.231748837890625
-0.2620276171875,0.095167216796875,1.0402966552734374
-0.329621796875,0.04198261474609375,0.93338818359375
-0.3476144921875,-0.0200252392578125,0.7964961865234375
-0.31989601562500003,0.06109966064453125,0.6937657470703125
-0.07845349609375,0.030708459472656248,0.6229849658203125
-0.0587587890625,-0.09845414550781251,0.6165950341796875
-0.11443888671875,-0.15850127685546875,0.5232037255859375
-0.057299921875,-0.17369687744140624,0.6220018994140625
-0.06726884765625,-0.233253828125,0.8063268505859374
-0.03687578125,-0.26192939697265627,1.0004824658203124
0.04068732421875,-0.24232217041015625,1.2944193212890625
-0.002835546875000001,-0.3423190258789062,1.5057785986328125
-0.25108611328125,-0.1876670263671875,1.3106399169921874
-0.33472783203125,0.0255615625,1.1882481494140624
-0.4497351953125,-0.07517056396484376,1.0692971142578125
-0.2630001953125,-0.15457983154296875,0.952557978515625
-0.12829812499999999,-0.068553125,0.992863701171875
0.021965195312499998,0.03217900146484375,1.0771616455078126
-0.18349193359375,0.1471263671875,1.1400778955078126
-0.25546271484375,0.1338914892578125,1.135408330078125
-0.19637859375,-0.069533486328125,0.99630443359375
-0.119544921875,0.0917359521484375,0.9636174755859375
-0.18932740234375,-0.0038492773437499997,0.95501564453125
-0.2980130078125,-0.2278618408203125,0.896523193359375
-0.18349193359375,-0.306780927734375,0.7950215869140624
-0.14361623046875,-0.28300716552734373,0.8557259375
-0.1978374609375,-0.20776443359375,0.9061080908203125
-0.3281629296875,-0.24281235107421875,0.941744248046875
-0.1793584765625,-0.1808044970703125,0.9638632421875
-0.0035649804687499995,-0.01634888427734375,1.06708521484375
-0.056084199218750005,0.0922261328125,1.2344522705078125
0.0530876953125,-0.004829638671875,1.268122294921875
-0.06824142578125,-0.1366882373046875,1.3814206982421875
-0.0023492578125000017,0.130460224609375,1.352666005859375
0.01345513671875,-0.0006631030273437505,1.2300284716796874
-0.1317021484375,-0.10972830078125,1.2477236669921874
-0.21850474609375,0.0035034326171875,1.15752732421875
-0.20537494140625,-0.24722397705078125,0.97369390625
-0.15480087890625,-0.07566074462890625,0.983033037109375
-0.1530988671875,-0.067572763671875,0.9459222802734375
-0.0937716015625,-0.21560732421875,1.05135615234375
-0.19613544921875,-0.15065838623046876,1.1368829296875
-0.2172890234375,-0.11879664306640625,0.9488714794921875
-0.3189234375,-0.0866898095703125,0.8820229638671875
-0.38481560546875,-0.13448242431640625,0.8859552294921875
-0.17571130859375,-0.1670794384765625,0.8087845166015625
-0.037848359375,-0.023456503906250002,0.889641728515625
0.073998125,0.099088662109375,1.009575830078125
0.0647586328125,0.024581201171875,1.203239912109375
-0.28074974609375003,-0.02909358154296875,1.1985703466796875
-0.35952857421875,-0.12149263671875,0.904387724609375
-0.31089966796875,-0.13546278564453124,0.7571735302734375
-0.3631757421875,-0.04968116943359375,0.7350545361328125
-0.30020130859375,-0.0602200537109375,0.6888504150390625
-0.049762441406249996,0.0137972265625,0.914218388671875
-0.0577862109375,-0.0788469189453125,1.0776531787109376
0.0034862109374999978,-0.05874951171875,1.2521474658203124
0.07326869140625,-0.06487677001953125,1.4384385498046874
0.0389853125,-0.02149578125,1.483413837890625
-0.224583359375,0.044188427734375,1.2491982666015624
-0.37849384765625,0.03413972412109375,0.96877857421875
-0.3719289453125,-0.0018885546875000003,0.787402822265625
-0.20634751953125,-0.06242586669921875,0.6745959521484375
0.0545465625,-0.15850127685546875,0.6917996142578124
0.12676048828125,-0.1621776318359375,0.6170865673828125
0.0900456640625,-0.1994313623046875,0.71711357421875
0.07959044921875,-0.200901904296875,0.9832788037109375
-0.38821962890625,-0.2317832861328125,1.2413337353515626
-0.52535314453125,-0.20898988525390624,1.23027423828125
-0.36439146484375,-0.18791211669921876,0.9002096923828125
-0.1307295703125,0.0809519775390625,0.8427003076171875
0.05187197265625,0.10080429443359375,0.780521357421875
0.1513180859375,0.05889384765625,0.8294289111328125
0.10050087890625001,0.026541923828125,1.11034013671875
-0.146777109375,-0.004829638671875,1.2017653125
-0.382141015625,-0.0464949951171875,1.2745122265625
-0.446331171875,-0.201882265625,0.9926179345703126
-0.31041337890625,-0.177373232421875,0.6696806201171875
-0.2766162890625,-0.19869609130859375,0.6335529296875
-0.20391607421875,-0.204823349609375,0.581941943359375
-0.0412523828125,-0.1817848583984375,0.68565544921875
0.027314375,-0.15261910888671876,0.9542783447265625
-0.1044699609375,-0.19428446533203125,1.2138078759765625
-0.1735230078125,-0.2298225634765625,1.3067076513671876
-0.08988128906250001,-0.3043300244140625,1.28335982421875
0.0190474609375,-0.25090033203125,1.107882470703125
-0.063135390625,-0.053847705078125,1.212087509765625
-0.1453182421875,-0.051886982421875,1.3524202392578124
-0.09425789062500001,-0.12541408203125,1.226833505859375
-0.2114535546875,-0.10580685546875,1.08281427734375
-0.0859909765625,-0.0327699365234375,0.930438984375
-0.2318776953125,-0.22271494384765625,0.8572005371093749
-0.16015005859375,-0.3043300244140625,0.883251796875
-0.1958923046875,-0.092081796875,0.9862280029296875
-0.1278118359375,-0.034240478515625,0.7869112890625
-0.22093619140625,-0.07124911865234375,0.7121982421874999
-0.0461152734375,-0.23987126708984374,0.5861199755859375
0.07278240234375,-0.14967802490234375,0.656654990234375
0.13162337890625,-0.0513968017578125,0.8736668994140625
-0.175954453125,-0.19036302001953126,1.0914161083984375
-0.22044990234375,-0.21487205322265626,1.0078554638671875
-0.27199654296875,-0.00654527099609375,0.893573994140625
-0.19127255859375,-0.0097314453125,0.7468513330078125
0.05381712890625,0.085363603515625,0.740215634765625
0.0560054296875,0.1427147412109375,0.979100771484375
-0.019369375,0.238299970703125,1.2221639404296876
-0.252788125,0.087324326171875,1.55272001953125
-0.30846822265625,-0.01389798095703125,1.529617958984375
-0.1647698046875,0.18511536865234374,1.338903076171875
-0.30652306640625,0.20398732421875,1.0830600439453124
-0.15528716796875,0.015022678222656249,0.9567360107421875
0.02536921875,-0.0719843896484375,1.057746083984375
-0.1710915625,-0.02737794921875,1.047915419921875
-0.16525609375,-0.12124754638671875,0.833606943359375
-0.2561921484375,-0.14183513427734376,0.6564092236328125
-0.0957167578125,-0.1925688330078125,0.5300851904296875
0.1114423828125,-0.068553125,0.5472888525390625
0.1245721875,0.0309535498046875,0.820335546875
-0.018396796875,-0.13693332763671875,1.1081282373046875
-0.12708240234375,-0.161687451171875,1.265173095703125
-0.2075632421875,0.16207687744140625,1.280902158203125
-0.244034921875,0.1721255810546875,1.2305200048828124
-0.14580453125,-0.149923115234375,1.1958669140625
-0.28074974609375003,0.05031568603515625,1.2713172607421874
-0.35466568359375,-0.008996174316406251,1.0464408203125
-0.210967265625,-0.0925719775390625,0.8682600341796876
-0.14458880859375,-0.0876701708984375,0.7866655224609375
-0.12319208984375,-0.13595296630859374,0.6915538476562499
-0.0655668359375,-0.280311171875,0.75250396484375
-0.144831953125,-0.08399381591796876,1.1282810986328125
-0.29825615234375,0.116735166015625,1.31875021484375
-0.30530734375,-0.03301502685546875,1.280902158203125
-0.181789921875,-0.16242272216796874,1.068559814453125
0.057464296875,0.024581201171875,0.908319990234375
0.0034862109374999978,0.024581201171875,0.8191067138671875
-0.19808060546875,0.06281529296875,0.9874568359375
-0.403537734375,-0.1759026904296875,1.105916337890625
-0.34591248046875,-0.2729584619140625,1.153103525390625
-0.4857205859375,-0.077376376953125,1.079373544921875
-0.42323244140625,-0.07517056396484376,0.84884447265625
0.023667207031249998,-0.15359947021484374,0.6062728369140625
0.17587568359375,-0.06879821533203125,0.85081060546875
0.1980018359375,-0.03938737548828125,1.1390948291015626
-0.26421591796875,-0.10850284912109374,1.3160467822265625
-0.49617580078125,-0.07026875732421875,1.2899955224609374
-0.21558701171875,-0.03889719482421875,0.9975332666015625
-0.37071322265625,0.00325834228515625,0.9759058056640625
-0.35563826171875,0.03315936279296875,1.1010010058593749
-0.2411171875,-0.03889719482421875,1.212087509765625
-0.4079143359375,-0.0327699365234375,1.30498728515625
-0.387976484375,-0.25261596435546874,1.1626884228515626
-0.35223423828125,-0.2690370166015625,0.881777197265625
-0.30506419921875,-0.17712814208984376,0.7129355419921874
-0.2124261328125,-0.1572758251953125,0.58538267578125
-0.020828242187500002,0.019434304199218752,0.647807392578125
-0.0821006640625,-0.08154291259765625,0.9284728515625
-0.33278267578125,-0.18399067138671876,1.1081282373046875
-0.40694175781249997,-0.1435507666015625,1.3502083398437499
-0.48012826171875,-0.11389483642578124,1.3502083398437499
-0.26810623046875,-0.09967959716796874,1.242562568359375
-0.352963671875,-0.186196484375,0.92748978515625
-0.29047552734375,-0.07222947998046875,0.686638515625
-0.20877896484375,-0.18595139404296876,0.5413904541015625
-0.1141957421875,-0.2058037109375,0.5025593310546875
-0.08380267578125,-0.23594982177734375,0.5453227197265624
-0.11930177734375,-0.2837424365234375,0.6519854248046875
-0.13972591796875,-0.10850284912109374,0.6908165478515624
-0.017181074218750002,-0.0249270458984375,0.82328474609375
0.05868001953125,0.04492369873046875,0.967303974609375
-0.07359060546875,0.15325362548828125,1.38953099609375
-0.1404553515625,0.21501638916015625,1.6960019482421875
-0.20537494140625,0.28511222412109377,1.7657996630859376
-0.330594375,0.2789849658203125,1.5261772265625
-0.24330548828125,0.03904153076171875,1.084288876953125
-0.0665394140625,-0.0881603515625,0.8353273095703125
0.005674511718750001,-0.20408807861328124,0.654688857421875
-0.018883085937500002,-0.16781470947265625,0.57161974609375
0.13162337890625,-0.0011532836914062497,0.65026505859375
0.1012303125,0.0133070458984375,0.906845390625
0.02609865234375,-0.1386489599609375,1.1710444873046875
-0.1200312109375,-0.22614620849609374,1.1454847607421874
0.09077509765625,0.028502646484374998,1.032677890625
0.129435078125,-0.01928996826171875,0.963371708984375
0.05089939453125,-0.17712814208984376,1.0162115283203126
-0.10544253906250001,-0.29403623046875,0.861132802734375
-0.148722265625,-0.2249207568359375,0.58341654296875
0.04165990234375,-0.091101435546875,0.5094407958984375
0.06646064453125,-0.06046514404296875,0.53819548828125
0.0657312109375,0.14099910888671874,0.8783364648437499
-0.154557734375,0.261828642578125,1.2821309912109375
-0.4944737890625,0.15815543212890626,1.4320486181640626
-0.23649744140625,0.0030132519531249997,1.3256316796875
-0.02301654296875,-0.202862626953125,1.2506728662109374
0.11654841796875,-0.0612004150390625,1.098051806640625
-0.172064140625,-0.2170778662109375,0.8623616357421875
-0.19467658203125,-0.24673379638671875,0.8262339453125
-0.23917203125,-0.181294677734375,0.6455954931640625
-0.14069849609375001,-0.238155634765625,0.5556449169921875
0.014670859375000001,-0.20384298828125,0.78396208984375
-0.011588750000000002,-0.11487519775390626,1.01989802734375
-0.20804953125,0.08903995849609375,1.11034013671875
-0.30871136718750003,0.199085517578125,1.0179318945312499
-0.17619759765625,-0.01561361328125,1.0127707958984375
-0.3038484765625,-0.028113220214843748,0.961897109375
-0.02690685546875,0.03757098876953125,0.729401904296875
0.09223396484375,0.05105095703125,0.7409529345703125
0.011023691406250001,-0.149923115234375,0.8458952734375
-0.2211793359375,-0.10972830078125,0.9326508837890625
-0.37144265625,0.0765403515625,1.043000087890625
-0.46942990234375,-0.0646316796875,1.043000087890625
-0.41982841796875,0.04124734375,0.9311762841796875
-0.19127255859375,0.14001874755859375,0.8210728466796875
0.11752099609375,0.10913736572265625,0.8849721630859375
0.10147345703124999,0.16501796142578126,0.9960586669921875
-0.113709453125,0.09982393310546875,1.2172486083984375
-0.040279804687500004,0.030463369140625002,1.429345185546875
-0.138996484375,0.059874208984374996,1.5755763134765626
-0.2581373046875,0.171635400390625,1.49176990234375
-0.35028908203125,0.02678701416015625,1.1848074169921876
-0.32354318359375,-0.016593974609375,1.0540595849609375
-0.3378887109375,-0.1151202880859375,0.8112421826171875
-0.1725504296875,-0.051886982421875,0.584891142578125
-0.013047617187499999,0.036345537109375,0.5846453759765625
-0.05632734375,-0.015368522949218751,0.7016302783203126
-0.05316646484375,-0.05262225341796875,0.7672499609375
-0.10130908203125,-0.1376685986328125,1.038084755859375
-0.0140201953125,-0.25261596435546874,1.15556119140625
-0.03298546875,-0.36045571044921876,1.1680952880859374
0.05576228515625,-0.2893795141601562,1.1926719482421875
-0.0947441796875,-0.2298225634765625,1.198324580078125
-0.2630001953125,-0.26879192626953125,0.9953213671875
-0.26056875,-0.13889405029296875,0.9321593505859375
-0.290718671875,-0.1033559521484375,0.851302138671875
-0.09985021484375001,-0.13129625,0.722520439453125
-0.08477525390625,-0.11095375244140625,0.8790737646484375
-0.2065906640625,-0.02517213623046875,1.063644482421875
-0.16695810546875,0.0672269189453125,1.200290712890625
-0.127325546875,-0.10752248779296875,1.272054560546875
-0.04295439453125,-0.15212892822265625,1.0756870458984376
-0.11006228515625,0.0922261328125,0.902913125
-0.2036729296875,0.0505607763671875,0.7043337109375
0.0039725,0.0995788427734375,0.808047216796875
0.1308939453125,0.1721255810546875,1.2727918603515624
0.02026318359375,0.02433611083984375,1.7938170556640625
