ax,ay,az
-0.2464663671875,-0.05752406005859375,0.9896687353515625
-0.25108611328125,-0.05164189208984375,0.94911724609375
-0.2007551953125,-0.0915916162109375,0.931913583984375
-0.17327986328125,-0.046740085449218746,0.930930517578125
-0.27151025390625,-0.06340622802734375,0.9272440185546875
-0.23114826171875,-0.08546435791015625,0.9196252539062499
-0.25011353515625,-0.02174087158203125,0.945676513671875
-0.3048210546875,-0.0749254736328125,0.90782845703125
-0.27053767578125,-0.0641414990234375,0.8972604931640625
-0.25449013671875,-0.0411030078125,0.9090572900390625
-0.3077387890625,-0.10188541015625,0.8891501953125
-0.27053767578125,-0.0327699365234375,0.9768888720703125
-0.20804953125,-0.06659240234375,0.9896687353515625
-0.24184662109375,-0.100905048828125,0.98057537109375
-0.27102396484375,-0.012672529296875,1.011541962890625
-0.2454937890625,-0.08448399658203125,0.9852449365234375
-0.21364185546875,-0.10458140380859375,0.9223286865234375
-0.2488978125,-0.022476142578125,0.933879716796875
-0.22774423828125,-0.07075893798828126,0.8721922998046875
-0.26129818359375,-0.03742665283203125,0.8392595751953125
-0.22968939453125,-0.05090662109375,0.8736668994140625
-0.30068759765624997,-0.07222947998046875,0.90193005859375
-0.27394169921875,-0.0646316796875,0.993846767578125
-0.30360533203125,-0.081297822265625,1.01399962890625
-0.26275705078125,-0.08154291259765625,0.991880634765625
-0.25351755859375,-0.0023787353515625003,0.994829833984375
-0.2600824609375,-0.05556333740234375,0.97074470703125
-0.23747001953125,-0.01928996826171875,0.970253173828125
-0.2688356640625,-0.0955130615234375,0.938303515625
-0.2192341796875,-0.07811164794921875,0.908319990234375
-0.1890842578125,-0.02517213623046875,0.8682600341796876
-0.240144609375,-0.06659240234375,0.859166669921875
-0.2668905078125,-0.11389483642578124,0.905370791015625
-0.30652306640625,-0.01634888427734375,0.9695158740234375
-0.308225078125,-0.09967959716796874,0.96877857421875
-0.34299474609375,-0.0808076416015625,0.9739396728515625
-0.29290697265625,-0.0151234326171875,1.03169482421875
-0.26761994140625,-0.065612041015625,0.9501003125
-0.30117388671875,-0.0259074072265625,0.8987350927734374
-0.20732009765625,-0.05605351806640625,0.914218388671875
-0.23260712890625002,-0.0425735498046875,0.8766160986328125
-0.28658521484375,-0.089140712890625,0.9542783447265625
-0.28269490234375,-0.014633251953124999,0.975168505859375
-0.2022140625,-0.08350363525390625,0.927981318359375
-0.25205869140625,-0.014633251953124999,0.9872110693359375
-0.29874244140625,-0.06267095703125,0.9901602685546875
-0.31430369140625003,-0.05556333740234375,0.9980247998046875
-0.2513292578125,-0.02713285888671875,1.011541962890625
-0.3301080859375,-0.046004814453125,1.00220283203125
-0.3203823046875,-0.0808076416015625,1.001219765625
-0.2425760546875,-0.020515419921875,0.9709904736328125
-0.29679728515625,-0.085219267578125,0.9134810888671875
-0.2805066015625,0.02237538818359375,0.9129895556640625
-0.20294349609375,-0.0641414990234375,0.868014267578125
-0.2221519140625,-0.06267095703125,0.9218371533203125
-0.24962724609375,-0.08595453857421875,0.981066904296875
-0.252788125,-0.09012107421875,1.013508095703125
-0.24695265625,-0.047965537109375,0.9955671337890625
-0.28220861328125,-0.02419177490234375,1.000728232421875
-0.27296912109375,-0.04575972412109375,1.0157199951171876
-0.3466419140625,-0.0376717431640625,1.089204208984375
-0.32159802734375,0.015022678222656249,1.1351625634765625
-0.24962724609375,-0.0043394580078125,1.0226014599609374
-0.28974609375,-0.03448556884765625,0.93338818359375
-0.253760703125,0.0015427099609375003,1.0034316650390624
-0.26664736328125,-0.100905048828125,0.96288017578125
-0.2411171875,-0.075415654296875,0.9675497412109375
-0.247925234375,-0.013162709960937501,0.9877026025390625
-0.2484115234375,-0.1013952294921875,0.9992536328125
-0.23819945312500002,-0.07909200927734375,1.0162115283203126
-0.28561263671875,-0.05115171142578125,1.0132623291015626
-0.23819945312500002,-0.0651218603515625,1.048898486328125
-0.30895451171875,-0.09404251953125001,1.030220224609375
-0.269321953125,-0.01095689697265625,1.0609410498046874
-0.2668905078125,-0.081297822265625,1.0609410498046874
-0.26081189453125,-0.0567887890625,1.0520934521484375
-0.27734572265625,-0.02321141357421875,1.0614325830078124
-0.2377131640625,-0.10727739746093751,1.0181776611328126
-0.23917203125,-0.08227818359375,0.947642646484375
-0.2333365625,-0.07909200927734375,0.94715111328125
-0.2333365625,-0.11193411376953125,0.946659580078125
-0.23455228515625,-0.10948321044921874,0.9641090087890625
-0.2795340234375,-0.0964934228515625,0.9867195361328125
-0.20391607421875,-0.048945898437499996,0.9936010009765625
-0.2902323828125,-0.04821062744140625,0.95304951171875
-0.26956509765625,-0.06585713134765625,0.95304951171875
-0.20829267578125,-0.05899460205078125,0.964354775390625
-0.290718671875,-0.0411030078125,0.890624794921875
-0.21072412109375,-0.06095532470703125,0.8653108349609375
-0.2124261328125,-0.0337502978515625,0.8771076318359375
-0.251815546875,-0.06193568603515625,0.9803296044921875
-0.21947732421875,-0.0411030078125,1.044966220703125
-0.28026345703125,-0.13987441162109376,1.0324321240234375
-0.20732009765625,-0.02419177490234375,0.9395323486328125
-0.156502890625,-0.05262225341796875,0.746114033203125
-0.13729447265625,-0.128355166015625,0.828691611328125
-0.18981369140625,0.0584036669921875,1.016457294921875
-0.30895451171875,-0.1210024560546875,1.1012467724609376
-0.25789416015625,-0.100905048828125,1.2290454052734374
-0.39089421875,0.04712951171875,1.1577730908203125
-0.3456693359375,-0.01683906494140625,1.036118623046875
-0.27515742187500003,-0.028113220214843748,0.9508376123046876
-0.347128203125,-0.0254172265625,0.8387680419921875
-0.143859375,-0.2058037109375,0.7006472119140625
-0.031769746093749995,-0.165608896484375,0.6613245556640625
-0.15091056640625,-0.12173772705078124,0.754961630859375
-0.22968939453125,-0.1210024560546875,0.9513291455078126
-0.19516287109375,-0.1116890234375,1.2128248095703125
-0.46797103515625,-0.008996174316406251,1.24108796875
-0.4045103125,0.0309535498046875,1.13786599609375
-0.33521412109375,0.036345537109375,1.081339677734375
-0.4278521875,0.0907555908203125,0.9911433349609375
-0.28658521484375,0.00791505859375,0.9940925341796875
-0.27880458984375,-0.139139140625,0.9965502001953125
-0.2474389453125,-0.09012107421875,0.9090572900390625
-0.25108611328125,-0.051886982421875,0.8023945849609375
-0.21583015625000002,-0.05090662109375,0.84294607421875
-0.32086859375,-0.03595611083984375,0.98942296875
-0.33472783203125,-0.08791526123046875,1.1017383056640626
-0.4049966015625,-0.047965537109375,1.1538408251953125
-0.3884627734375,0.02923791748046875,1.0550426513671876
-0.30798193359375,0.010856142578125,1.016457294921875
-0.29922873046875,-0.03987755615234375,0.9960586669921875
-0.37654869140625,-0.030073942871093752,0.9442019140625
-0.3806821484375,-0.04183827880859375,0.8365561425781249
-0.3612305859375,-0.042328459472656246,0.651248125
-0.0714023046875,-0.06781785400390625,0.560806015625
-0.06021765625,-0.11536537841796875,0.767741494140625
-0.27272597656249997,-0.0999246875,1.0265337255859375
-0.31746457031249997,-0.10115013916015625,1.2570627978515625
-0.3806821484375,-0.02223105224609375,1.31481794921875
-0.34980279296875,0.00325834228515625,1.1798920849609376
-0.24622322265625,-0.0974737841796875,1.019406494140625
-0.284883203125,-0.05482806640625,1.1125520361328125
-0.44754689453125,0.0123266845703125,1.0545511181640626
-0.18008791015625,-0.13497260498046876,0.8451579736328125
-0.06191966796875,-0.13203152099609375,0.813945615234375
-0.30506419921875,-0.08252327392578125,0.941744248046875
-0.2104809765625,-0.07517056396484376,1.164900322265625
-0.27491427734375,-0.025662316894531252,1.331038544921875
-0.3116291015625,0.06698182861328125,1.2855717236328126
-0.2007551953125,-0.057769150390625,1.1671122216796874
-0.2435486328125,-0.045024453125,1.21257904296875
-0.267376796875,0.07237381591796875,1.2548508984375
-0.2989855859375,-0.089140712890625,1.1381117626953126
-0.312115390625,-0.0308092138671875,1.0904330419921875
-0.2231244921875,-0.05115171142578125,0.9852449365234375
-0.20391607421875,-0.181294677734375,0.951574912109375
-0.23917203125,-0.16585398681640626,0.9795923046875
-0.19832375,-0.11193411376953125,1.06315294921875
-0.24136033203125,-0.1170810107421875,1.1130435693359375
-0.30360533203125,-0.057278969726562504,1.2000449462890626
-0.26907880859375,-0.00409436767578125,1.197833046875
-0.26129818359375,0.0133070458984375,1.1577730908203125
-0.30530734375,0.0289928271484375,1.1368829296875
-0.2240970703125,-0.008996174316406251,1.060695283203125
-0.22725794921875,-0.030319033203124998,1.0171945947265626
-0.29339326171875,-0.04281864013671875,1.0604495166015624
-0.27151025390625,-0.0327699365234375,1.103950205078125
-0.277102578125,-0.08301345458984374,0.9685328076171875
-0.25205869140625,-0.018554697265625,0.959439443359375
-0.25449013671875,-0.07124911865234375,0.9306847509765624
-0.2620276171875,-0.11389483642578124,0.8864467626953125
-0.21023783203125002,-0.0788469189453125,0.9183964208984375
-0.314060546875,-0.08105273193359375,0.8854636962890625
-0.21072412109375,-0.06928839599609375,0.8918536279296875
-0.22361078125,-0.04085791748046875,0.834590009765625
-0.24719580078125,-0.09012107421875,0.8220559130859375
-0.17765646484375,0.0030132519531249997,0.891607861328125
-0.268349375,-0.06659240234375,0.9088115234375
-0.24233291015625,-0.0553182470703125,0.9390408154296875
-0.2279873828125,-0.01046671630859375,0.9282270849609375
-0.25838044921875,-0.068553125,0.9174133544921875
-0.22725794921875,-0.013652890625,0.914218388671875
-0.2523018359375,-0.00507472900390625,0.922574453125
-0.30263275390625,-0.08350363525390625,0.9196252539062499
-0.1861665234375,-0.00997653564453125,0.9483799462890625
-0.27029453125,-0.0170841552734375,0.9048792578125
-0.23260712890625002,-0.068553125,0.863098935546875
-0.2445212109375,0.004973974609375,0.8780906982421874
-0.27540056640625,-0.013162709960937501,0.8616243359375
-0.206104375,0.0182088525390625,0.8672769677734375
-0.2484115234375,0.01453249755859375,0.88226873046875
-0.27151025390625,0.00399361328125,0.8773533984374999
-0.24087404296875,-0.0121823486328125,0.8368019091796874
-0.17862904296875,0.0172284912109375,0.881777197265625
-0.25789416015625,-0.0562986083984375,0.8358188427734374
-0.249870390625,-0.0229663232421875,0.789368955078125
-0.23747001953125,-0.0063001806640625,0.821810146484375
-0.2571647265625,-0.06242586669921875,0.8805483642578125
-0.24768208984375,0.019679394531249998,0.89504859375
-0.2211793359375,-0.075415654296875,0.8874298291015625
-0.2955815625,-0.0371815625,0.9980247998046875
-0.20683380859375,-0.022476142578125,0.99237216796875
-0.2464663671875,0.02335574951171875,0.9587021435546875
-0.32281375,0.00521906494140625,0.9228202197265625
-0.30627992187499997,0.02139502685546875,0.9439561474609375
-0.25643529296875,-0.05556333740234375,0.89799779296875
-0.2454937890625,0.04002189208984375,0.8569547705078124
-0.21850474609375,-0.013652890625,0.905370791015625
-0.28464005859375,-0.044044091796875,0.9695158740234375
-0.27831830078124997,0.0329142724609375,1.06708521484375
-0.296554140625,-0.0009081933593750001,1.0452119873046875
-0.34007701171875,0.02923791748046875,1.0167030615234376
-0.2581373046875,0.010856142578125,0.9891772021484375
-0.27345541015625,-0.07664110595703125,0.978117705078125
-0.2484115234375,-0.07664110595703125,0.9847534033203125
-0.23066197265625,-0.03399538818359375,0.9245405859375
-0.19224513671875,-0.04870080810546875,0.9011927587890625
-0.20391607421875,-0.0837487255859375,0.9940925341796875
-0.2639727734375,-0.0778665576171875,1.103458671875
-0.26251390625,-0.06659240234375,1.143272861328125
-0.2289599609375,-0.03105430419921875,1.1705529541015625
-0.2163164453125,0.00521906494140625,1.0978060400390626
-0.31041337890625,-0.05164189208984375,1.0240760595703124
-0.24816837890625,-0.0719843896484375,1.0078554638671875
-0.228473671875,-0.05213207275390625,0.9174133544921875
-0.2707808203125,-0.02713285888671875,0.8913620947265625
-0.3028758984375,-0.092081796875,0.87637033203125
-0.09061072265625,-0.10016977783203125,0.840488408203125
-0.251815546875,-0.046249904785156254,0.8874298291015625
-0.3203823046875,-0.08252327392578125,0.9407611816406249
-0.22677166015625,-0.0680629443359375,0.987948369140625
-0.3291355078125,-0.03522083984375,1.0457035205078125
-0.32986494140625,-0.05017135009765625,1.130492998046875
-0.2367405859375,-0.029338671875,1.13589986328125
-0.36755234375,0.02482629150390625,1.0978060400390626
-0.36390517578125,-0.07615092529296875,1.0093300634765625
-0.23357970703125,0.0059543359375,0.9363373828125
-0.13024328125,-0.03840701416015625,0.9960586669921875
-0.2143712890625,-0.02149578125,1.21847744140625
-0.35174794921875,0.010856142578125,1.270088427734375
-0.209022109375,-0.01095689697265625,1.15949345703125
-0.222638203125,0.01698340087890625,1.031203291015625
-0.2785614453125,0.03806116943359375,1.032677890625
-0.2255559375,-0.01879978759765625,1.0756870458984376
-0.28998923828125,-0.00948635498046875,1.1248403662109374
-0.33983386718749997,0.021885207519531248,1.106899404296875
-0.30263275390625,0.008895419921875,0.9390408154296875
-0.25546271484375,-0.09281706787109376,0.8505648388671875
-0.22336763671875,-0.03399538818359375,0.874895732421875
-0.24330548828125,-0.06830803466796875,0.8616243359375
-0.19808060546875,-0.1190417333984375,0.9523122119140625
-0.11978806640625,-0.07370002197265625,1.07101748046875
-0.21412814453125,-0.09281706787109376,1.161951123046875
-0.13875333984375,-0.076396015625,1.17129025390625
-0.18689595703125,-0.0533575244140625,1.1012467724609376
-0.22385392578125,-0.0553182470703125,1.111814736328125
-0.24670951171875,0.0358553564453125,1.166374921875
-0.33861814453125,0.0270321044921875,1.1115689697265625
-0.3233000390625,0.0338946337890625,1.07298361328125
-0.2211793359375,0.05031568603515625,1.0466865869140625
-0.2800203125,0.01698340087890625,0.9680412744140625
-0.21972046875,-0.0011532836914062497,0.972219306640625
-0.20537494140625,-0.01169216796875,0.9980247998046875
-0.21193984375,0.05570767333984375,0.9818042041015624
-0.197351171875,-0.0013983740234375002,0.9402696484374999
-0.230418828125,0.03364954345703125,0.9641090087890625
-0.22434021484375,0.050070595703125,0.9599309765625
-0.22774423828125,0.0299731884765625,0.9326508837890625
-0.2488978125,-0.0033590966796874996,0.8989808593749999
-0.228473671875,0.05864875732421875,0.94518498046875
-0.27394169921875,-0.055808427734375,0.965337841796875
-0.3189234375,0.00619942626953125,1.028254091796875
-0.23212083984375,0.01257177490234375,0.9449392138671875
-0.2065906640625,-0.0308092138671875,0.8871840625
-0.18227621093750002,0.00717978759765625,0.9704989404296875
-0.1560166015625,-0.0011532836914062497,0.9675497412109375
-0.16793068359375,0.01992448486328125,1.0464408203125
-0.17717017578125,-0.0013983740234375002,1.015474228515625
-0.25935302734375,0.02335574951171875,0.968287041015625
-0.24184662109375,-0.02149578125,0.9520664453125
-0.18592337890625,0.00865032958984375,0.9660751416015625
-0.27248283203125,-0.022476142578125,0.8766160986328125
-0.19564916015625,0.010856142578125,0.920116787109375
-0.25303126953125,0.02139502685546875,0.930438984375
-0.2338228515625,-0.00850599365234375,0.9454307470703125
-0.189570546875,0.050070595703125,0.996795966796875
-0.23795630859375,0.02874773681640625,0.988931435546875
-0.2255559375,0.00717978759765625,0.95894791015625
-0.22434021484375,0.0319339111328125,0.9931094677734374
-0.27929087890625,0.0064445166015625,0.9990078662109375
-0.14604767578125,0.08854977783203125,0.9675497412109375
-0.19175884765625,0.0760501708984375,0.903404658203125
-0.2260422265625,-0.01095689697265625,0.9245405859375
-0.19370400390625,0.06698182861328125,0.9795923046875
-0.2853694921875,-0.00948635498046875,0.961897109375
-0.18300564453125,0.00399361328125,1.024813359375
-0.265431640625,-0.063651318359375,0.97664310546875
-0.23455228515625,0.019434304199218752,1.020389560546875
-0.24670951171875,-0.0141430712890625,0.92748978515625
-0.214857578125,0.03512008544921875,0.8864467626953125
-0.21072412109375,0.064776015625,0.8908705615234375
-0.1404553515625,-0.0072805419921875,0.925032119140625
-0.18470765625,0.00570924560546875,1.025304892578125
-0.23747001953125,-0.0259074072265625,1.0265337255859375
-0.19759431640625,-0.04968116943359375,1.02186416015625
-0.237226875,-0.053847705078125,0.9650920751953125
-0.2357680078125,-0.05752406005859375,0.927981318359375
-0.18738224609375,0.01600303955078125,0.955507177734375
-0.203186640625,-0.030319033203124998,0.8938197607421875
-0.2639727734375,-0.010711806640625,0.928964384765625
-0.1827625,-0.01928996826171875,0.8879213623046875
-0.12027435546875,0.0054641552734375,0.839996875
-0.25473328125,0.02041466552734375,0.8340984765625
-0.19467658203125,0.0030132519531249997,0.9088115234375
-0.1735230078125,0.05129604736328125,0.950591845703125
-0.2231244921875,0.0172284912109375,0.976151572265625
-0.21169669921875,0.0691876416015625,1.0363643896484376
-0.2104809765625,0.020659755859375,0.9999909326171875
-0.23528171875,-0.00311400634765625,1.013508095703125
-0.14653396484375,0.10129447509765625,1.0525849853515625
-0.21169669921875,0.07065818359375,1.087238076171875
-0.2766162890625,0.05717821533203125,1.074458212890625
-0.23066197265625,0.08217742919921875,1.039067822265625
-0.30214646484375,0.052031318359375,1.0444746875
-0.18786853515625002,0.04737460205078125,1.0766701123046876
-0.27345541015625,0.0093856005859375,1.07494974609375
-0.271267109375,0.02972809814453125,1.078390478515625
-0.22944625,0.01404231689453125,1.0373474560546876
-0.21315556640625,0.03953171142578125,1.0820769775390624
-0.2177753125,0.008895419921875,1.1351625634765625
-0.2989855859375,0.05325677001953125,1.1499085595703125
-0.23552486328125,0.023845930175781252,1.1140266357421875
-0.31746457031249997,0.01747358154296875,1.0039231982421875
-0.26956509765625,0.03757098876953125,0.98254150390625
-0.2231244921875,-0.0011532836914062497,0.9346170166015625
-0.24379177734375002,0.00963069091796875,0.8970147265625
-0.23114826171875,-0.0700236669921875,0.9400238818359374
-0.288773515625,-0.052867343750000004,1.0314490576171875
-0.28172232421875,-0.05997496337890625,1.124594599609375
-0.23357970703125,-0.07615092529296875,1.104933271484375
-0.271267109375,-0.01781942626953125,1.0314490576171875
-0.2221519140625,-0.0298288525390625,0.89996392578125
-0.2260422265625,-0.08350363525390625,0.79969115234375
-0.15869119140625,0.01575794921875,0.8058353173828126
-0.2211793359375,0.02090484619140625,0.8871840625
-0.253760703125,0.03561026611328125,1.0108046630859375
-0.2532744140625,0.09247122314453125,1.0570087841796876
-0.24938410156250002,-0.01095689697265625,1.0329236572265625
-0.203186640625,0.09884357177734375,1.04349162109375
-0.30652306640625,0.0191892138671875,0.9407611816406249
-0.23503857421875,0.0280124658203125,0.962388642578125
-0.18689595703125,0.05864875732421875,0.9459222802734375
-0.25497642578125,0.026296833496093748,0.977626171875
-0.1511537109375,0.012816865234374999,1.0071181640625
-0.2177753125,0.02874773681640625,0.9552614111328125
-0.12319208984375,0.03512008544921875,0.9788550048828125
-0.2017277734375,0.0525214990234375,1.0668394482421875
-0.22142248046875002,-0.0016434643554687498,1.09952640625
-0.25546271484375,0.05178622802734375,1.1287726318359375
-0.2454937890625,0.095167216796875,1.1700614208984375
-0.2056180859375,0.03953171142578125,1.176697119140625
-0.2464663671875,0.0309535498046875,1.122628466796875
-0.24233291015625,0.00178780029296875,1.1093570703125
-0.29679728515625,0.0348749951171875,1.1051790380859374
-0.2250696484375,-0.037916833496093746,1.008592763671875
-0.21072412109375,-0.03693647216796875,0.948625712890625
-0.174009296875,-0.018554697265625,0.971236240234375
-0.24136033203125,-0.03840701416015625,0.993355234375
-0.1988100390625,-0.0249270458984375,0.9847534033203125
-0.21558701171875,0.018699033203125,1.0447204541015624
-0.1988100390625,0.0584036669921875,1.1356540966796875
-0.22774423828125,0.021885207519531248,1.106899404296875
-0.27613,-0.0018885546875000003,1.080356611328125
-0.23649744140625,0.0417375244140625,1.0855177099609374
-0.26518849609375,-0.0317895751953125,1.02579642578125
-0.24670951171875,0.0280124658203125,1.0103131298828125
-0.23260712890625002,0.06060947998046875,1.0034316650390624
-0.19759431640625,0.0329142724609375,0.98057537109375
-0.25546271484375,0.0843832421875,0.9520664453125
-0.17717017578125,0.0848734228515625,0.956490244140625
-0.17133470703125,-0.013652890625,0.8928366943359375
-0.25011353515625,0.0020328906249999995,0.9591936767578125
-0.1569891796875,0.03021827880859375,1.032186357421875
-0.25400384765625,-0.0562986083984375,0.9788550048828125
-0.28609892578125,-0.03644629150390625,0.9985163330078125
-0.22044990234375,0.06306038330078124,0.9626344091796875
-0.21193984375,0.0133070458984375,0.907336923828125
-0.28464005859375,0.03757098876953125,0.938795048828125
-0.26616107421875,0.03364954345703125,0.971236240234375
-0.2177753125,0.03119864013671875,1.0162115283203126
-0.18349193359375,0.014777587890624999,0.983033037109375
-0.251815546875,0.06453092529296875,0.98647376953125
-0.160393203125,-0.02223105224609375,0.985982236328125
-0.2036729296875,0.10472573974609375,0.975168505859375
-0.2192341796875,-0.0053198193359375,0.934862783203125
-0.2289599609375,0.026051743164062502,0.9975332666015625
-0.22190876953125,0.0231106591796875,1.028254091796875
-0.21850474609375,-0.07860182861328124,0.97860923828125
-0.2445212109375,0.05031568603515625,1.013508095703125
-0.2386857421875,0.0162481298828125,1.020389560546875
-0.2805066015625,0.03119864013671875,0.9940925341796875
-0.2357680078125,-0.02174087158203125,0.9414984814453125
-0.18640966796875,0.05913893798828125,0.9454307470703125
-0.16914640625,0.05717821533203125,0.9252778857421875
-0.18106048828125,0.0182088525390625,0.9075826904296875
-0.20415921875,0.0015427099609375003,0.89996392578125
-0.18859796875,-0.03301502685546875,0.93732044921875
-0.23917203125,0.06698182861328125,1.0235845263671874
-0.2513292578125,0.0137972265625,1.0592206835937499
-0.29436583984375,0.030463369140625002,1.0162115283203126
-0.24136033203125,-0.018554697265625,1.0127707958984375
-0.2328502734375,0.03610044677734375,0.9965502001953125
-0.21996361328125,0.010856142578125,0.927981318359375
-0.199296328125,-0.00948635498046875,0.907336923828125
-0.22434021484375,-0.014633251953124999,0.90193005859375
-0.187625390625,-0.0175743359375,0.9267524853515625
-0.23528171875,0.0368357177734375,0.999745166015625
-0.230418828125,0.0015427099609375003,0.95501564453125
-0.17279357421875,0.07850107421875,1.0152284619140626
-0.213885,-0.022476142578125,0.9906518017578125
-0.24670951171875,0.01992448486328125,1.085271943359375
-0.20488865234375,0.053992041015625,1.0904330419921875
-0.19248828125,-0.00997653564453125,0.996795966796875
-0.29193439453125003,0.02335574951171875,0.979100771484375
-0.284883203125,0.05570767333984375,1.0275167919921875
-0.199296328125,-0.03105430419921875,0.9385492822265625
-0.25546271484375,-0.0092412646484375,0.89406552734375
-0.18106048828125,0.016738310546875,0.9400238818359374
-0.14993798828125,0.0201695751953125,0.9591936767578125
-0.23406599609375,-0.01879978759765625,0.955507177734375
-0.183735078125,0.00865032958984375,1.0112961962890625
-0.1944334375,0.03462990478515625,1.024321826171875
-0.21193984375,-0.00605509033203125,1.025304892578125
-0.29339326171875,0.004973974609375,1.0486527197265625
-0.286828359375,0.0211499365234375,1.0447204541015624
-0.21753216796875,0.012816865234374999,0.99237216796875
-0.298499296875,0.0201695751953125,0.87243806640625
-0.16841697265625,-0.0190448779296875,0.8584293701171875
-0.20197091796875,-0.02125069091796875,0.827708544921875
-0.19175884765625,0.01453249755859375,0.8854636962890625
-0.12221951171875,-0.0288484912109375,0.9402696484374999
-0.2299325390625,0.049090234375,1.058729150390625
-0.1827625,0.04541387939453125,1.1459762939453124
-0.2600824609375,0.040266982421875,1.145238994140625
-0.23528171875,0.11599989501953126,1.118696201171875
-0.18495080078125,0.0069346972656249995,1.026287958984375
-0.30141703125,0.04198261474609375,0.977134638671875
-0.2357680078125,0.028502646484374998,1.016948828125
-0.263486484375,-0.06340622802734375,0.95501564453125
-0.1939471484375,0.0270321044921875,0.923065986328125
-0.17084841796875,-0.03399538818359375,0.9070911572265625
-0.2182616015625,0.03144373046875,0.97271083984375
-0.1944334375,0.0819323388671875,1.0162115283203126
-0.2357680078125,0.0319339111328125,1.0633987158203124
-0.294608984375,0.04002189208984375,1.106899404296875
-0.18738224609375,0.03928662109375,1.05332228515625
-0.2396583203125,-0.051886982421875,0.9835245703125
-0.2892598046875,0.0451687890625,0.9992536328125
-0.20537494140625,0.0451687890625,0.9936010009765625
-0.2722396875,-0.06291604736328126,0.9670582080078125
-0.2814791796875,0.073599267578125,1.0346440234375
-0.2099946875,-0.01732924560546875,0.98057537109375
-0.20634751953125,-0.014633251953124999,1.003677431640625
-0.21412814453125,0.04002189208984375,1.012525029296875
-0.14021220703125,0.034384814453125,1.0112961962890625
-0.2192341796875,-0.01830960693359375,0.9749227392578125
-0.21704587890625,0.12335260498046875,1.0363643896484376
-0.2513292578125,0.03536517578125,1.013508095703125
-0.19273142578125,-0.01291761962890625,0.9901602685546875
-0.2085358203125,0.0064445166015625,0.9837703369140625
-0.24233291015625,-0.03399538818359375,0.992863701171875
-0.19832375,0.0407571630859375,0.9419900146484375
-0.284883203125,-0.052867343750000004,0.8613785693359375
-0.19808060546875,0.067717099609375,0.9523122119140625
-0.20464550781250002,0.02433611083984375,0.9380577490234375
-0.16890326171875,0.05178622802734375,1.0919076416015625
-0.19321771484375,0.03021827880859375,1.140323662109375
-0.2873146484375,0.03904153076171875,1.109848603515625
-0.15358515625,0.057913486328125,1.0896957421875
-0.25205869140625,0.008895419921875,1.04349162109375
-0.1866528125,-0.008751083984375,1.046932353515625
-0.21655958984375,0.0054641552734375,1.0211268603515624
-0.26251390625,0.07065818359375,1.0353813232421876
-0.23601115234375,-0.0592396923828125,0.9454307470703125
-0.26907880859375,0.015022678222656249,0.970253173828125
-0.24281919921875,0.03364954345703125,0.963371708984375
-0.13024328125,0.0030132519531249997,0.8643277685546875
-0.174981875,0.048109873046875,0.82721701171875
-0.148722265625,0.0427178857421875,0.9090572900390625
-0.218747890625,0.02972809814453125,1.0029401318359374
-0.25935302734375,0.07335417724609375,1.092153408203125
-0.2581373046875,0.081442158203125,1.1179589013671876
-0.197351171875,-0.00850599365234375,1.0358728564453126
-0.28585578125,0.0878145068359375,1.001711298828125
-0.15747546875,0.00717978759765625,0.944693447265625
-0.2114535546875,0.00987578125,0.94518498046875
-0.2279873828125,0.11379408203125,1.0004824658203124
-0.12513724609375,0.02286556884765625,1.029237158203125
-0.2698082421875,0.02433611083984375,1.020389560546875
-0.14361623046875,0.04688442138671875,1.0592206835937499
-0.20342978515625,0.03413972412109375,0.9739396728515625
-0.19248828125,0.04247279541015625,0.85867513671875
-0.2177753125,0.0456589697265625,0.8741584326171875
-0.14750654296875,0.0270321044921875,0.96484630859375
-0.31430369140625003,0.0299731884765625,0.9665666748046875
-0.1399690625,0.056933125,1.04742388671875
-0.195406015625,0.0672269189453125,1.002694365234375
-0.23309341796875,0.01012087158203125,0.9714820068359376
-0.218747890625,0.0672269189453125,1.0425085546875
-0.16404037109375,0.063795654296875,1.028254091796875
-0.24695265625,0.0348749951171875,0.9559987109375
-0.1832487890625,0.09884357177734375,0.945676513671875
-0.19029998046875,0.0255615625,0.93928658203125
-0.19127255859375,0.09835339111328124,0.97467697265625
-0.1958923046875,0.09492212646484376,1.0147369287109376
-0.25157240234375,0.0765403515625,1.029237158203125
-0.1861665234375,0.055952763671875,0.96877857421875
-0.257651015625,0.10717664306640624,0.9827872705078124
-0.2104809765625,-0.00458454833984375,0.943710380859375
-0.16355408203125,0.02090484619140625,0.8859552294921875
-0.18835482421875,0.07580508056640625,0.8992266259765624
-0.24525064453125,0.0133070458984375,0.948625712890625
-0.1881116796875,0.06698182861328125,0.986965302734375
-0.20488865234375,0.06109966064453125,0.981066904296875
-0.18495080078125,0.03462990478515625,0.911269189453125
-0.17425244140625,0.07188363525390624,0.9385492822265625
-0.1783858984375,0.118695888671875,1.0174403613281249
-0.244034921875,0.00178780029296875,1.0761785791015626
-0.27418484375,0.1260485986328125,1.0896957421875
-0.203186640625,0.04149243408203125,1.0226014599609374
-0.2036729296875,0.10276501708984374,0.9513291455078126
-0.2318776953125,0.08021670654296875,0.9002096923828125
-0.20002576171875,0.0270321044921875,0.94518498046875
-0.20634751953125,0.06600146728515625,1.00023669921875
-0.2678630859375,0.09026541015625,0.9886856689453125
-0.14069849609375001,0.02237538818359375,0.934862783203125
-0.22044990234375,0.04320806640625,0.8923451611328125
-0.19832375,0.08707923583984375,0.9596852099609375
-0.19953947265625,0.057668395996093746,0.98843990234375
-0.26518849609375,0.05668803466796875,0.973202373046875
-0.1881116796875,0.10031411376953125,1.024813359375
-0.2085358203125,0.0608545703125,1.0221099267578124
-0.26081189453125,0.05129604736328125,1.002694365234375
-0.2075632421875,0.02286556884765625,0.945676513671875
-0.2007551953125,0.0348749951171875,0.947642646484375
-0.2221519140625,0.07727562255859374,0.96877857421875
-0.23017568359375,0.01796376220703125,0.9891772021484375
-0.2221519140625,0.05913893798828125,1.0044147314453125
-0.19856689453125,0.0927163134765625,0.9488714794921875
-0.1696326953125,0.02139502685546875,0.9134810888671875
-0.218747890625,0.04124734375,0.9852449365234375
-0.16598552734375,0.09002031982421875,1.02972869140625
-0.2649453515625,0.04296297607421875,1.0228472265625
-0.2454937890625,0.06698182861328125,1.0275167919921875
-0.20440236328125,0.07286399658203124,1.0132623291015626
-0.191515703125,0.06796218994140625,1.0049062646484375
-0.25862359375,0.0505607763671875,0.9631259423828125
-0.15723232421875,0.02237538818359375,0.96681244140625
-0.2260422265625,0.07335417724609375,1.0174403613281249
-0.2075632421875,0.05472731201171875,1.008592763671875
-0.2309051171875,0.06158984130859375,1.057746083984375
-0.22920310546875,0.0633054736328125,1.06315294921875
-0.1968648828125,0.0946770361328125,1.009575830078125
-0.17036212890625,0.1211467919921875,1.039067822265625
-0.23917203125,0.05717821533203125,1.0609410498046874
-0.26810623046875,0.0848734228515625,1.0840431103515624
-0.172064140625,0.05325677001953125,1.068559814453125
-0.24476435546875,0.09492212646484376,1.06315294921875
-0.2211793359375,0.04124734375,1.028254091796875
-0.1657423828125,0.0270321044921875,1.0226014599609374
-0.20537494140625,0.05570767333984375,1.023338759765625
-0.2644590625,-0.0200252392578125,1.0378389892578126
-0.1939471484375,0.08854977783203125,1.0889584423828125
-0.23066197265625,-0.004829638671875,0.96877857421875
-0.16647181640625,0.04786478271484375,0.95501564453125
-0.20099833984375,0.112813720703125,0.9729566064453125
-0.24087404296875,0.0378160791015625,1.00023669921875
-0.18859796875,0.06453092529296875,1.037101689453125
-0.23212083984375,0.118695888671875,1.0555341845703126
-0.21583015625000002,0.0417375244140625,1.0157199951171876
-0.19419029296875,0.07041309326171875,0.9818042041015624
-0.1968648828125,0.11379408203125,1.0110504296875
-0.26713365234374997,0.009140510253906251,0.984999169921875
-0.18106048828125,0.1152646240234375,1.0206353271484374
-0.24038775390625,0.075559990234375,0.9916348681640625
-0.222638203125,0.04443351806640625,1.043983154296875
-0.16695810546875,0.10717664306640624,1.0014655322265624
-0.20440236328125,0.052031318359375,0.909303056640625
-0.1633109375,0.07727562255859374,0.9582106103515625
-0.2240970703125,0.09247122314453125,0.9685328076171875
-0.17571130859375,0.1319307666015625,1.0267794921875
-0.21704587890625,-0.00581,0.91765912109375
-0.1710915625,0.1157548046875,0.9557529443359375
-0.1589343359375,0.014777587890624999,0.907336923828125
-0.22385392578125,0.06109966064453125,0.985982236328125
-0.17182099609375,0.09492212646484376,1.04349162109375
-0.23406599609375,0.09982393310546875,0.993846767578125
-0.16890326171875,0.124578056640625,0.9955671337890625
-0.2454937890625,0.134381669921875,0.9532952783203125
-0.1696326953125,0.09418685546875,0.93928658203125
-0.16987583984375,0.09247122314453125,0.9198710205078124
-0.1968648828125,0.13756784423828125,0.9916348681640625
-0.1239215234375,0.10227483642578125,0.984999169921875
-0.1944334375,0.10399046875,0.9921264013671875
-0.1997826171875,0.112813720703125,1.043983154296875
-0.23941517578125,0.1201664306640625,1.09264494140625
-0.18592337890625,0.0927163134765625,1.033169423828125
-0.24136033203125,0.11060790771484375,0.9950756005859375
-0.18738224609375,0.07286399658203124,1.043983154296875
-0.25254498046875,0.1191860693359375,0.9862280029296875
-0.21023783203125002,0.0466393310546875,0.9459222802734375
-0.21607330078125,0.073599267578125,0.9631259423828125
-0.13243158203125,0.1133039013671875,0.9867195361328125
-0.2299325390625,0.089285048828125,0.9960586669921875
-0.17230728515625,0.07237381591796875,1.0078554638671875
-0.17036212890625,0.127519140625,0.965829375
-0.19273142578125,0.0780108935546875,0.9719735400390626
-0.17036212890625,0.02090484619140625,0.9827872705078124
-0.21655958984375,0.10987263671875,1.042017021484375
-0.20537494140625,0.11747043701171875,1.0471781201171875
-0.2454937890625,0.10227483642578125,1.0191607275390624
-0.19175884765625,0.16942958740234376,1.080356611328125
-0.2202067578125,0.13732275390625,0.9572275439453125
-0.1715778515625,0.09688284912109375,0.9449392138671875
-0.22288134765625,0.1240878759765625,0.9370746826171875
-0.1813036328125,0.06894255126953125,0.8603955029296875
-0.13534931640625,0.11550971435546875,0.835573076171875
-0.1676875390625,0.08511851318359374,0.8417172412109375
-0.16185207031249998,0.08021670654296875,0.92748978515625
-0.22871681640625,0.14443037353515625,0.9994993994140625
-0.21607330078125,0.1103628173828125,0.965337841796875
-0.1910294140625,0.142224560546875,0.9847534033203125
-0.21704587890625,0.19638952392578124,1.033169423828125
-0.20586123046875,0.10325519775390625,0.9886856689453125
-0.1988100390625,0.183399736328125,0.9827872705078124
-0.21023783203125002,0.16256705810546876,0.9980247998046875
-0.18008791015625,0.1084020947265625,0.99630443359375
-0.19613544921875,0.159871064453125,0.9631259423828125
-0.21193984375,0.10570610107421875,0.9690243408203125
-0.16987583984375,0.14443037353515625,1.0058893310546875
-0.18592337890625,0.1417343798828125,1.0029401318359374
-0.13291787109375,0.128499501953125,1.0196522607421874
-0.20197091796875,0.14737145751953126,1.01203349609375
-0.17765646484375,0.15031254150390624,1.0314490576171875
-0.21364185546875,0.061834931640625,0.980083837890625
-0.23601115234375,0.13070531494140625,1.0589749169921876
-0.17960162109375,0.1329111279296875,1.0186691943359376
-0.1827625,0.07188363525390624,0.91077765625
-0.1890842578125,0.077520712890625,0.892590927734375
-0.1443456640625,0.111833359375,0.869980400390625
-0.13486302734375,0.1015395654296875,0.84294607421875
-0.1881116796875,0.10374537841796876,0.91372685546875
-0.13291787109375,0.165753232421875,1.0211268603515624
-0.228473671875,0.1397736572265625,1.0412797216796874
-0.1900568359375,0.17433139404296874,1.0874838427734375
-0.19078626953125,0.18266446533203126,1.09657720703125
-0.24865466796875,0.19982078857421876,1.060695283203125
-0.17473873046875,0.17433139404296874,1.0619241162109374
-0.19419029296875,0.157910341796875,1.039067822265625
-0.21972046875,0.1280093212890625,0.9660751416015625
-0.17133470703125,0.126538779296875,0.9282270849609375
-0.12416466796875,0.0985984814453125,0.9127437890625
-0.19808060546875,0.11771552734375,0.966320908203125
-0.19905318359375002,0.165753232421875,1.0058893310546875
-0.22750109375,0.132420947265625,1.03169482421875
-0.2386857421875,0.17629211669921874,1.0579918505859376
-0.1550440234375,0.212810576171875,1.0343982568359376
-0.2921775390625,0.16869431640625,1.0058893310546875
-0.1200312109375,0.12433296630859375,0.9827872705078124
-0.25205869140625,0.157910341796875,0.9704989404296875
-0.148722265625,0.09492212646484376,0.98254150390625
-0.1083602734375,0.152028173828125,0.962388642578125
-0.2289599609375,0.0603643896484375,0.896523193359375
-0.15577345703125,0.16109651611328124,0.984999169921875
-0.1083602734375,0.07727562255859374,0.9609140429687499
-0.25108611328125,0.1397736572265625,0.99630443359375
-0.12343523437500001,0.1642826904296875,1.0412797216796874
-0.22093619140625,0.10962754638671875,1.02186416015625
-0.24695265625,0.11158826904296874,1.0142453955078126
-0.11687033203125,0.199085517578125,1.074458212890625
-0.23357970703125,0.108892275390625,1.0004824658203124
-0.25011353515625,0.15300853515625001,1.003677431640625
-0.1355924609375,0.19393862060546874,0.9994993994140625
-0.2425760546875,0.17727247802734375,0.9287186181640625
-0.1958923046875,0.14492055419921876,0.9370746826171875
-0.16209521484375,0.1628121484375,0.9284728515625
-0.14069849609375001,0.14124419921875,0.9191337207031249
-0.17765646484375,0.15300853515625001,0.9690243408203125
-0.201241484375,0.195164072265625,0.993355234375
-0.21583015625000002,0.16746886474609374,1.0255506591796875
-0.1851939453125,0.171635400390625,1.0346440234375
-0.2231244921875,0.21256548583984375,1.031203291015625
-0.2133987109375,0.15717507080078125,1.021372626953125
-0.15820490234375,0.1417343798828125,1.0112961962890625
-0.1783858984375,0.13315621826171875,0.9324051171875
-0.1851939453125,0.08953013916015624,0.932896650390625
-0.2133987109375,0.146146005859375,0.9685328076171875
-0.1842213671875,0.1407540185546875,1.024321826171875
-0.2211793359375,0.1544790771484375,1.0481611865234375
-0.244034921875,0.174576484375,0.99630443359375
-0.13680818359375,0.1358522119140625,0.977134638671875
-0.23698373046875,0.1956542529296875,0.9695158740234375
-0.13875333984375,0.16550814208984374,0.9896687353515625
-0.22968939453125,0.1182057080078125,1.0029401318359374
-0.2406308984375,0.13952856689453125,0.9881941357421875
-0.14580453125,0.14443037353515625,0.9245405859375
-0.18081734375,0.1064413720703125,0.8372934423828124
-0.2805066015625,0.08658905517578125,0.921099853515625
-0.16015005859375,0.153988896484375,0.97860923828125
-0.12562353515625,0.173596123046875,0.97074470703125
-0.27783201171875,0.134381669921875,1.007609697265625
-0.10082279296875,0.17727247802734375,1.0174403613281249
-0.21947732421875,0.1691844970703125,0.9198710205078124
-0.19905318359375002,0.15423398681640624,0.9744312060546875
-0.13778076171875,0.15717507080078125,0.9100403564453124
-0.17668388671875,0.183399736328125,0.95501564453125
-0.26129818359375,0.15521434814453125,1.0267794921875
-0.18786853515625002,0.15472416748046874,1.0545511181640626
-0.23941517578125,0.21967310546875,1.024813359375
-0.16647181640625,0.16207687744140625,0.970253173828125
-0.2338228515625,0.1446754638671875,0.954524111328125
-0.1317021484375,0.21967310546875,1.0132623291015626
-0.1569891796875,0.12825441162109374,0.972219306640625
-0.2202067578125,0.12825441162109374,1.0226014599609374
-0.14312994140625,0.165753232421875,1.052830751953125
-0.224583359375,0.1706550390625,1.0555341845703126
-0.205131796875,0.1682041357421875,1.0464408203125
-0.27151025390625,0.2020266015625,1.0179318945312499
-0.133161015625,0.15423398681640624,0.95796484375
-0.23455228515625,0.18070374267578124,0.952557978515625
-0.18057419921875,0.153988896484375,0.986965302734375
-0.14969484375,0.09002031982421875,0.9183964208984375
-0.2095083984375,0.1231075146484375,0.952557978515625
-0.15917748046875,0.12531332763671876,0.9931094677734374
-0.23698373046875,0.12972495361328126,0.981066904296875
-0.21218298828125,0.167713955078125,1.073475146484375
-0.18203306640625,0.16648850341796875,1.07888201171875
-0.2367405859375,0.182419375,1.0442289208984374
-0.19808060546875,0.16060633544921876,0.9874568359375
-0.244034921875,0.189281904296875,1.0363643896484376
-0.2386857421875,0.08168724853515624,1.0049062646484375
-0.25351755859375,0.11967625,0.9724650732421874
-0.17960162109375,0.15766525146484375,0.9795923046875
-0.21850474609375,0.09247122314453125,0.9245405859375
-0.10714455078125,0.24981921630859374,1.0579918505859376
-0.25789416015625,0.1397736572265625,1.1479424267578124
-0.25838044921875,0.22236909912109376,1.217985908203125
-0.27491427734375,0.1652630517578125,1.1518746923828125
-0.38335673828125,-0.03105430419921875,0.9636174755859375
-0.23698373046875,-0.1955099169921875,0.6804943505859375
-0.06021765625,0.05129604736328125,0.5104238623046875
-0.057056777343750004,-0.08301345458984374,0.38188792968749996
-0.0388209375,-0.1357078759765625,0.3983542919921875
0.001784199218750001,-0.09575815185546875,0.399583125
0.00956482421875,0.04296297607421875,0.634044462890625
-0.07164544921875,0.20570295654296875,0.967303974609375
-0.23941517578125,0.310846708984375,1.3013007861328125
-0.354908828125,0.42775479736328126,1.57139828125
-0.28853037109375,0.47628268310546873,1.5989241406249999
-0.2484115234375,0.4476071142578125,1.39936166015625
-0.331566953125,0.391236337890625,1.156052724609375
-0.230418828125,0.33535574218749997,0.97664310546875
-0.15917748046875,0.26673044921875,0.975168505859375
-0.2668905078125,0.2309472607421875,1.1327048974609375
-0.2182616015625,0.03904153076171875,1.0108046630859375
-0.17571130859375,0.04100225341796875,0.8717007666015625
-0.09985021484375001,0.0530116796875,0.7763433251953125
-0.033958046875,-0.01830960693359375,0.7247323388671875
-0.057299921875,0.09933375244140626,0.8544971044921875
-0.22871681640625,0.1221271533203125,1.1076367041015625
-0.31381740234375,0.1907524462890625,1.3755222998046874
-0.38919220703125,0.1378129345703125,1.5333044580078126
-0.49374435546875,0.2515348486328125,1.4246756201171875
-0.3651208984375,0.23143744140625,1.1867735498046874
-0.2746711328125,0.0956573974609375,1.00515203125
-0.201241484375,0.1123235400390625,0.9321593505859375
-0.1141957421875,-0.02370159423828125,0.8380307421875
-0.05073501953125,-0.02909358154296875,0.7409529345703125
0.049197382812499996,-0.01193725830078125,0.719571240234375
0.02415349609375,-0.05850442138671875,0.8498275390625
0.047738515625,0.05080586669921875,1.118696201171875
-0.1453182421875,0.10570610107421875,1.5264229931640625
-0.3563676953125,0.20129133056640625,1.6871543505859374
-0.50103869140625,0.237319609375,1.4703882080078126
-0.54383212890625,0.18707609130859376,1.1666206884765624
-0.27831830078124997,0.069677822265625,0.7291561376953125
-0.187625390625,0.11109808837890625,0.603569404296875
-0.21655958984375,0.05423713134765625,0.5526957177734375
-0.15358515625,0.08364797119140625,0.463973974609375
-0.2099946875,0.13903838623046874,0.490516767578125
-0.14458880859375,0.14418528320312501,0.4330073828125
0.006890234374999998,0.11845079833984375,0.5684247802734375
-0.01474962890625,0.24320177734375,0.9972875
-0.07699462890625,0.412804287109375,1.4571168115234374
-0.183735078125,0.5054484326171875,1.6384925634765626
-0.15091056640625,0.42873515869140627,1.5485419873046875
-0.23844259765625,0.2240847314453125,1.46817630859375
-0.46213556640625,0.03315936279296875,1.33644541015625
-0.028122578125000002,0.0025230712890624996,1.30498728515625
-0.42566388671875,0.236339248046875,1.449989580078125
-0.5756840625,-0.01144707763671875,1.276969892578125
-0.2639727734375,0.08854977783203125,0.9124980224609375
-0.170118984375,0.14418528320312501,0.636993662109375
0.011753125,-0.0857094482421875,0.4853556689453125
0.034122421875,0.11158826904296874,0.491499833984375
-0.074806328125,0.15766525146484375,0.5030508642578125
0.06111146484375,0.07678544189453125,0.609467802734375
-0.06483740234375,0.22825126708984375,0.8530225048828125
-0.21218298828125,0.2787398754882813,1.2246216064453126
-0.1871391015625,0.1829095556640625,1.485379970703125
-0.35320681640625,0.2985921923828125,1.616127802734375
-0.401592578125,0.1240878759765625,1.278936025390625
-0.242089765625,0.09345158447265625,1.0476696533203125
-0.2814791796875,0.05227640869140625,0.961897109375
-0.2989855859375,0.05105095703125,0.7989538525390625
-0.11346630859375,0.0530116796875,0.7360376025390625
-0.09425789062500001,0.01649322021484375,0.854251337890625
-0.013047617187499999,0.0878145068359375,0.942727314453125
-0.21169669921875,0.2015364208984375,1.005643564453125
-0.09644619140624999,0.1574201611328125,1.0373474560546876
-0.100093359375,0.20398732421875,1.0860092431640624
-0.25983931640625,0.240260693359375,1.0850261767578124
-0.2484115234375,0.2044775048828125,1.081339677734375
-0.292663828125,0.1838899169921875,1.139340595703125
-0.3515048046875,0.25570138427734374,1.1297556982421875
-0.28366748046875,0.20423241455078125,1.0987891064453126
-0.2523018359375,0.1917328076171875,1.09067880859375
-0.12902755859375,0.21354584716796876,1.132459130859375
-0.226528515625,0.16256705810546876,1.125577666015625
-0.18081734375,0.10031411376953125,1.05135615234375
-0.15139685546875,0.1133039013671875,0.9916348681640625
-0.119544921875,0.067717099609375,0.9097945898437501
-0.14264365234375,0.064776015625,0.8141913818359375
-0.1492085546875,0.09835339111328124,0.7797840576171875
-0.19224513671875,0.04443351806640625,0.8028861181640625
-0.22093619140625,0.0927163134765625,0.904387724609375
-0.22044990234375,0.165753232421875,0.9768888720703125
-0.37557611328125,0.09688284912109375,0.9238032861328125
-0.247925234375,0.2289865380859375,0.9547698779296875
-0.19905318359375002,0.10717664306640624,0.9449392138671875
-0.2678630859375,0.14492055419921876,1.0211268603515624
-0.1968648828125,0.20864404052734375,1.0594664501953126
-0.12829812499999999,0.1858506396484375,0.9970417333984375
-0.2649453515625,0.15374380615234376,0.9159387548828125
-0.0461152734375,0.1544790771484375,0.93338818359375
-0.20488865234375,0.158890703125,0.916184521484375
-0.15966376953125,0.09590248779296875,0.8648193017578125
-0.12951384765625001,0.16207687744140625,0.975168505859375
-0.21607330078125,0.09296140380859375,0.938303515625
-0.22361078125,0.1652630517578125,0.9559987109375
-0.195406015625,0.174576484375,1.0179318945312499
-0.32086859375,0.17040994873046875,1.0245675927734375
-0.2834243359375,0.19589934326171876,0.9820499707031249
-0.17376615234375,0.14124419921875,0.94321884765625
-0.2523018359375,0.22629054443359375,0.9877026025390625
-0.159420625,0.15570452880859376,1.079373544921875
-0.26470220703125,0.16452778076171876,1.104933271484375
-0.1793584765625,0.11796061767578125,0.946659580078125
-0.1764407421875,0.1564397998046875,0.94223578125
-0.16598552734375,0.1113431787109375,0.891116328125
-0.16525609375,0.1191860693359375,0.89799779296875
-0.16306779296875,0.077520712890625,0.8707177001953125
-0.16890326171875,0.1495772705078125,0.938303515625
-0.22871681640625,0.175556845703125,0.9680412744140625
-0.23455228515625,0.09149086181640625,0.99237216796875
-0.2133987109375,0.20864404052734375,1.0975602734375
-0.35272052734375,0.15864561279296874,1.0009739990234374
-0.2566784375,0.17090012939453125,1.0152284619140626
-0.117599765625,0.13340130859375,0.95698177734375
-0.152612578125,0.197124794921875,1.0294829248046875
-0.2192341796875,0.14050892822265626,1.0727378466796875
-0.14847912109375,0.0848734228515625,1.0196522607421874
-0.1205175,0.237319609375,1.0044147314453125
-0.22725794921875,0.09541230712890625,0.902421591796875
-0.10471310546875,0.14001874755859375,0.8943112939453125
-0.17473873046875,0.1436951025390625,0.8495817724609375
-0.26154132812499997,0.10423555908203125,0.90782845703125
-0.177899609375,0.18438009765625,0.98647376953125
-0.251815546875,0.07923634521484375,0.9252778857421875
-0.2523018359375,0.18045865234375,1.0658563818359374
-0.168173828125,0.17335103271484376,1.08281427734375
-0.12343523437500001,0.0936966748046875,1.00515203125
-0.17814275390625,0.19050735595703125,1.08379734375
-0.16720125,0.185360458984375,1.0914161083984375
-0.09450103515625,0.14737145751953126,1.0216183935546874
-0.2075632421875,0.182419375,1.0417712548828124
-0.16306779296875,0.10766682373046875,1.02383029296875
-0.16525609375,0.15962597412109375,0.991880634765625
-0.19808060546875,0.16869431640625,0.9621428759765625
-0.160393203125,0.0936966748046875,0.946168046875
-0.13048642578125,0.17040994873046875,0.9488714794921875
-0.27029453125,0.12139188232421876,1.00220283203125
-0.060947089843749996,0.11747043701171875,1.030220224609375
-0.236254296875,0.1907524462890625,1.019406494140625
-0.19637859375,0.09590248779296875,1.056271484375
-0.049519296875,0.106931552734375,1.0425085546875
-0.214857578125,0.15472416748046874,1.0314490576171875
-0.11687033203125,0.10717664306640624,1.05233921875
-0.199296328125,0.1079119140625,0.971236240234375
-0.16185207031249998,0.17040994873046875,0.938303515625
-0.13948277343749999,0.17580193603515626,0.937811982421875
-0.1317021484375,0.13732275390625,0.9311762841796875
-0.16647181640625,0.2182025634765625,0.9881941357421875
-0.15480087890625,0.09418685546875,1.0083469970703125
-0.20464550781250002,0.16942958740234376,1.03169482421875
-0.1258666796875,0.127519140625,1.0329236572265625
-0.15431458984375,0.12580350830078124,1.1002637060546876
-0.1511537109375,0.16795904541015624,1.0461950537109375
-0.21972046875,0.09810830078125,1.001219765625
-0.08672041015625,0.12384278564453124,1.0044147314453125
-0.0947441796875,0.1338914892578125,0.97860923828125
-0.15966376953125,0.14688127685546876,1.015474228515625
-0.14361623046875,0.10521592041015625,1.0447204541015624
-0.11079171875,0.16452778076171876,1.0501273193359375
-0.17571130859375,0.1436951025390625,0.9552614111328125
-0.16744439453124998,0.09982393310546875,0.949608779296875
-0.08234380859375,0.1387932958984375,0.9596852099609375
-0.16890326171875,0.16550814208984374,0.97467697265625
-0.11589775390625,0.1270289599609375,0.97074470703125
-0.17522501953125,0.1314405859375,0.97074470703125
-0.10519939453125,0.1510478125,1.0604495166015624
-0.18106048828125,0.07923634521484375,1.021372626953125
-0.1083602734375,0.1731059423828125,1.0865007763671874
-0.0966893359375,0.112813720703125,1.065610615234375
-0.199296328125,0.12678386962890625,1.049881552734375
-0.14458880859375,0.10570610107421875,1.0594664501953126
-0.146777109375,0.07923634521484375,0.9473968798828125
-0.11152115234375,0.18560554931640624,0.99630443359375
-0.109819140625,0.1338914892578125,1.0108046630859375
-0.21266927734375,0.02923791748046875,0.974185439453125
-0.1083602734375,0.1789881103515625,0.993355234375
-0.142886796875,0.10619628173828125,0.9616513427734374
-0.1788721875,0.0593840283203125,1.013508095703125
-0.10860341796875,0.1093824560546875,1.022355693359375
-0.1103054296875,0.1633023291015625,1.0486527197265625
-0.144831953125,0.08805959716796875,0.967303974609375
-0.1180860546875,0.155949619140625,0.9955671337890625
-0.0743200390625,0.13364639892578126,1.0270252587890625
-0.1511537109375,0.10619628173828125,1.02972869140625
-0.09912078125,0.15815543212890626,1.0801108447265624
-0.049519296875,0.14688127685546876,1.06118681640625
-0.15285572265625,0.089285048828125,0.975168505859375
-0.17303671874999998,0.1074217333984375,0.9734481396484375
-0.0821006640625,0.13707766357421874,0.9837703369140625
-0.0597313671875,0.09394176513671874,0.9559987109375
-0.148722265625,0.10202974609375,0.9567360107421875
-0.08744984375,0.138303115234375,1.0147369287109376
-0.1608794921875,0.08609887451171874,0.9709904736328125
-0.16112263671875,0.09149086181640625,0.9729566064453125
-0.08866556640625001,0.1015395654296875,1.027271025390625
-0.1278118359375,0.16599832275390625,1.079865078125
-0.08355953125,0.09639266845703125,0.9783634716796875
-0.084532109375,0.19638952392578124,0.993846767578125
-0.14021220703125,0.1152646240234375,1.0525849853515625
-0.12440781249999999,0.08266760986328126,1.0425085546875
-0.14556138671875,0.15472416748046874,1.084288876953125
-0.11930177734375,0.14737145751953126,1.1014925390624999
-0.13632189453125,0.07825598388671876,0.9739396728515625
-0.1034973828125,0.142224560546875,0.96288017578125
-0.10422681640625,0.0765403515625,0.9763973388671875
-0.13097271484375,0.11649007568359375,1.085271943359375
-0.08428896484375001,0.09884357177734375,1.0747039794921875
-0.146777109375,0.05521749267578125,0.9677955078125
-0.05024873046875,0.14099910888671874,1.0147369287109376
-0.20488865234375,0.04688442138671875,1.024321826171875
-0.1015522265625,0.1848702783203125,1.1022298388671874
-0.16793068359375,0.09247122314453125,1.0058893310546875
-0.14580453125,0.17188049072265624,1.073475146484375
-0.08283009765625,0.0584036669921875,0.970253173828125
-0.15358515625,0.15227326416015624,1.0083469970703125
-0.01766736328125,0.08266760986328126,0.948625712890625
-0.13875333984375,0.014777587890624999,0.8997181591796874
-0.0811280859375,0.1235976953125,1.0447204541015624
-0.11468203125,0.024581201171875,0.99040603515625
-0.12367837890625,0.09149086181640625,0.9852449365234375
-0.14556138671875,0.1182057080078125,0.9906518017578125
-0.1210037890625,0.10276501708984374,0.980083837890625
-0.16647181640625,0.1142842626953125,0.94321884765625
-0.07188859375000001,0.11771552734375,1.0137538623046876
-0.15869119140625,0.11305881103515625,1.0181776611328126
-0.08355953125,0.057668395996093746,0.9410069482421874
-0.0704297265625,0.1966346142578125,0.9744312060546875
-0.10908970703125,0.1084020947265625,1.011541962890625
-0.1900568359375,0.05521749267578125,1.0398051220703124
-0.07115916015625,0.1485969091796875,1.0884669091796875
-0.03663263671875,0.1152646240234375,1.065610615234375
-0.14556138671875,0.12163697265625,1.035135556640625
-0.12902755859375,0.1231075146484375,1.09461107421875
-0.13875333984375,0.063795654296875,1.024321826171875
-0.119544921875,0.1819291943359375,0.99433830078125
-0.12465095703125,0.02678701416015625,0.955507177734375
-0.10325423828125,0.075559990234375,1.0589749169921876
-0.06240595703125,0.093206494140625,1.00023669921875
-0.18859796875,0.06698182861328125,1.010558896484375
-0.016937929687500002,0.0765403515625,0.991880634765625
-0.1579617578125,0.0858537841796875,0.98647376953125
0.0034862109374999978,0.057913486328125,1.0476696533203125
-0.14702025390625,0.104970830078125,1.00810123046875
-0.08988128906250001,0.0191892138671875,1.009084296875
-0.07650833984375,0.12286242431640625,1.0668394482421875
-0.12027435546875,0.08315779052734375,1.0083469970703125
-0.0850183984375,-0.01169216796875,0.9380577490234375
-0.1190586328125,0.07678544189453125,0.942727314453125
0.029259531249999998,0.09418685546875,1.048406953125
-0.113709453125,0.05570767333984375,1.0575003173828126
-0.158448046875,0.10913736572265625,1.1845616503906249
-0.1248941015625,0.12188206298828125,1.1179589013671876
-0.137051328125,0.0525214990234375,0.967303974609375
0.020506328125,0.11305881103515625,0.9621428759765625
-0.0782103515625,0.10178465576171875,0.9252778857421875
-0.10301109375,0.06109966064453125,0.9572275439453125
-0.043683828125000004,0.056933125,0.996795966796875
-0.119544921875,0.1427147412109375,1.0235845263671874
-0.0621628125,0.0044837939453125,0.9862280029296875
-0.0621628125,0.16354741943359374,1.0486527197265625
-0.08720669921875,0.0976181201171875,1.075441279296875
-0.09425789062500001,0.09002031982421875,1.087238076171875
-0.09887763671875,0.0922261328125,1.034152490234375
-0.0918264453125,0.1525183544921875,1.097068740234375
-0.068970859375,0.1250682373046875,1.0130165625
-0.14969484375,0.111833359375,0.9926179345703126
-0.0067258593750000005,0.081442158203125,0.991880634765625
-0.07067287109375,0.10962754638671875,0.970253173828125
-0.057299921875,0.1829095556640625,1.037101689453125
-0.07115916015625,0.112813720703125,1.02186416015625
-0.003808124999999999,0.10178465576171875,1.0914161083984375
-0.082586953125,0.04688442138671875,1.1553154248046875
-0.119544921875,0.01159141357421875,1.134425263671875
-0.0752926171875,0.034384814453125,1.0663479150390625
-0.15091056640625,0.0417375244140625,1.0457035205078125
-0.12221951171875,-0.0533575244140625,0.9820499707031249
-0.0587587890625,-0.012427438964843749,0.95894791015625
-0.03322861328125,-0.0288484912109375,0.9444476806640625
-0.024232265625,-0.00752563232421875,0.907336923828125
-0.004780703125000001,-0.0411030078125,0.861132802734375
0.004701933593749999,-0.02909358154296875,0.88030259765625
-0.007698437500000002,0.06109966064453125,0.976151572265625
0.03485185546875,-0.03840701416015625,1.0167030615234376
-0.06872771484375,-0.035711020507812496,1.000728232421875
-0.022287109375,0.02482629150390625,1.0189149609375
-0.10690140625,0.0015427099609375003,0.94518498046875
-0.1375376171875,-0.00507472900390625,0.8874298291015625
-0.15382830078125,0.0466393310546875,0.8623616357421875
-0.07869664062500001,0.16452778076171876,0.8849721630859375
-0.09547361328125001,0.22383964111328125,0.86457353515625
-0.011588750000000002,0.122617333984375,0.946168046875
0.049197382812499996,0.2397705126953125,1.0771616455078126
-0.035173769531249996,0.17678229736328124,1.135408330078125
-0.06289224609374999,0.1397736572265625,1.129509931640625
-0.05802935546875,0.21207530517578124,1.1272980322265624
-0.13097271484375,0.1887917236328125,1.066593681640625
-0.1385101953125,0.13658748291015624,1.0339067236328126
-0.13389044921874999,0.155949619140625,1.0530765185546875
-0.1336473046875,0.21109494384765626,1.130492998046875
-0.07213173828125,0.1628121484375,1.12803533203125
-0.09741876953125,0.0731090869140625,1.062661416015625
-0.0821006640625,0.17188049072265624,1.102967138671875
-0.04246810546875,0.1270289599609375,1.0176861279296876
0.0020273437500000005,0.09786321044921875,0.98647376953125
-0.02593427734375,0.1142842626953125,1.027271025390625
0.0394716015625,0.0515411376953125,1.0712632470703125
-0.03566005859375,0.0789912548828125,1.111323203125
-0.162338359375,0.09492212646484376,1.1272980322265624
-0.03760521484375,0.00570924560546875,1.01596576171875
-0.08137123046875,0.0152677685546875,0.868014267578125
-0.1268392578125,0.0201695751953125,0.7768348583984375
-0.111764296875,-0.051886982421875,0.7689703271484375
-0.007698437500000002,-0.044044091796875,0.7856824560546875
-0.02301654296875,-0.10752248779296875,0.7788009912109375
-0.06775513671875,-0.0533575244140625,0.87931953125
0.0209926171875,-0.079337099609375,0.964354775390625
-0.01669478515625,-0.11340465576171875,1.0597122167968749
-0.0811280859375,0.0030132519531249997,1.18603625
-0.0023492578125000017,0.01453249755859375,1.17129025390625
-0.02155767578125,0.091245771484375,1.119679267578125
-0.05657048828125,0.04737460205078125,1.0530765185546875
-0.09790505859375,0.044188427734375,1.0818312109375
-0.0543821875,0.1084020947265625,1.0919076416015625
-0.039307226562500006,0.09737302978515625,1.0621698828125
-0.10374052734375,0.036345537109375,1.111323203125
0.0025136328124999996,0.14908708984375,1.24207103515625
-0.06435111328125,0.052031318359375,1.2418252685546876
-0.033958046875,0.06624655761718751,1.2123332763671875
-0.0305540234375,0.22727090576171874,1.2659103955078126
-0.09839134765625,0.07678544189453125,1.1410609619140626
-0.15625974609374998,0.153988896484375,1.17522251953125
-0.1219763671875,0.1907524462890625,1.2275708056640624
-0.127325546875,0.048109873046875,1.1341794970703125
-0.11079171875,0.1005592041015625,1.00515203125
0.0132119921875,0.1613416064453125,0.946659580078125
-0.04830357421875,0.10325519775390625,0.9360916162109375
-0.030067734375000002,0.0201695751953125,0.91765912109375
-0.053409609375,0.00987578125,1.080356611328125
-0.020341953125,-0.0533575244140625,1.10640787109375
-0.12951384765625001,-0.0999246875,1.091661875
-0.065080546875,-0.028358310546875,1.149171259765625
-0.1044699609375,-0.08154291259765625,1.0201437939453124
-0.16015005859375,0.01453249755859375,1.0211268603515624
-0.03663263671875,0.0809519775390625,1.0476696533203125
-0.054868476562500004,-0.05017135009765625,0.955507177734375
0.006403945312499999,0.0682072802734375,0.9985163330078125
-0.07115916015625,-0.0018885546875000003,1.0189149609375
0.004701933593749999,0.0133070458984375,1.0511103857421875
-0.049519296875,-0.010221625976562499,1.006626630859375
-0.121490078125,0.06673673828125,1.0958399072265625
-0.07407689453124999,0.07482471923828125,1.1125520361328125
-0.1453182421875,0.089285048828125,1.037101689453125
-0.1083602734375,0.1495772705078125,1.033169423828125
-0.12902755859375,0.06600146728515625,0.9739396728515625
0.002756777343749999,0.0652661962890625,0.9759058056640625
-0.01231818359375,0.1534987158203125,1.1258234326171874
-0.14750654296875,-0.0396324658203125,1.1528577587890625
-0.05413904296875,0.03512008544921875,1.1548238916015625
-0.0543821875,0.106931552734375,1.0663479150390625
-0.138996484375,0.0191892138671875,0.935845849609375
-0.11930177734375,0.03364954345703125,0.90782845703125
-0.04198181640625,0.00227798095703125,0.880794130859375
-0.03906408203125,0.04982550537109375,0.9346170166015625
0.0029999218749999987,0.03928662109375,0.929947451171875
-0.014506484375,0.057913486328125,0.9842618701171875
-0.04295439453125,-0.12811007568359375,0.9881941357421875
-0.024475410156250002,0.09786321044921875,1.049881552734375
-0.0315266015625,0.05521749267578125,1.014491162109375
-0.16695810546875,-0.0298288525390625,0.969761640625
-0.13486302734375,0.05815857666015625,1.00810123046875
-0.08623412109375,-0.0009081933593750001,0.94715111328125
-0.067025703125,0.02041466552734375,1.029237158203125
0.02463978515625,0.0711483642578125,1.141306728515625
-0.12246265625,0.07286399658203124,1.14179826171875
-0.08234380859375,0.04712951171875,1.1307387646484375
-0.06824142578125,0.0789912548828125,1.0444746875
-0.13340416015625,0.1162449853515625,1.0024485986328124
-0.01085931640625,-0.03889719482421875,1.0543053515625
-0.0918264453125,-0.06193568603515625,0.9016842919921875
-0.012075039062500001,0.11771552734375,0.9186421875
0.029259531249999998,-0.0964934228515625,0.9252778857421875
0.018318027343749998,0.0652661962890625,1.0727378466796875
-0.09498732421875,0.057668395996093746,1.1474508935546874
-0.067025703125,0.04443351806640625,1.2914701220703124
-0.16063634765625,0.0456589697265625,1.2231470068359376
-0.13778076171875,0.09737302978515625,1.2076637109375
-0.1005796484375,0.08609887451171874,1.047915419921875
-0.016937929687500002,-0.044534272460937496,0.976151572265625
-0.00842787109375,0.0059543359375,0.9972875
0.03631072265625,0.03512008544921875,1.01596576171875
0.0540602734375,-0.03546593017578125,0.98942296875
0.012239414062499999,-0.008996174316406251,1.0299744580078125
-0.0558410546875,0.046149150390625,0.994829833984375
0.006403945312499999,-0.048455717773437504,0.9572275439453125
0.036067578125,0.09100068115234375,1.006626630859375
-0.08380267578125,0.0574233056640625,1.040542421875
0.014670859375000001,0.0843832421875,1.1484339599609374
-0.03322861328125,0.05815857666015625,1.1449932275390624
-0.15285572265625,0.05913893798828125,1.1449932275390624
-0.0363894921875,0.12972495361328126,1.1010010058593749
-0.09936392578125,0.06281529296875,0.9424815478515625
-0.05511162109375,0.1103628173828125,0.881777197265625
0.0171023046875,0.07776580322265625,0.810013349609375
0.141106015625,-0.0621807763671875,0.8365561425781249
0.09952830078125,-0.04723026611328125,0.9385492822265625
0.07618642578125,-0.04281864013671875,1.0132623291015626
-0.05122130859375,-0.11291447509765624,1.0683140478515625
-0.07164544921875,-0.03987755615234375,1.10247560546875
0.052115117187500004,-0.0082609033203125,1.095594140625
-0.02544798828125,-0.0229663232421875,1.14179826171875
-0.08963814453125,0.0133070458984375,1.2064348779296874
-0.068970859375,-0.00850599365234375,1.041033955078125
-0.08866556640625001,0.08070688720703124,1.035135556640625
0.010537402343749998,0.0956573974609375,1.0235845263671874
-0.07699462890625,0.06453092529296875,1.0137538623046876
0.11703470703125,0.04124734375,1.0031858984375
0.03485185546875,0.03757098876953125,0.9139726220703125
0.10001458984375,-0.0038492773437499997,0.945676513671875
0.09709685546874999,-0.00581,1.008592763671875
-0.055354765624999996,-0.0018885546875000003,1.0412797216796874
-0.035903203125000005,0.07531489990234375,1.03759322265625
-0.002106113281250002,0.04884514404296875,0.99630443359375
-0.05073501953125,0.1113431787109375,1.056763017578125
0.00956482421875,0.1397736572265625,1.1430270947265626
0.03485185546875,0.0976181201171875,1.2516559326171874
-0.037848359375,0.1157548046875,1.3283351123046876
-0.06580998046875,0.07457962890625,1.3568440380859375
0.058436875,0.02482629150390625,1.2506728662109374
-0.09887763671875,0.04124734375,1.1184504345703126
-0.0023492578125000017,0.0515411376953125,1.0643817822265624
0.0934496875,-0.0376717431640625,1.0127707958984375
0.10390490234375,0.07286399658203124,1.043000087890625
-0.05802935546875,0.02531647216796875,0.954524111328125
0.036797011718749995,-0.01634888427734375,0.9501003125
0.098312578125,0.073599267578125,0.949608779296875
-0.05219388671875,0.07286399658203124,1.05528841796875
-0.02204396484375,0.11403917236328125,1.1562984912109375
0.0939359765625,0.11207844970703125,1.1631799560546874
-0.045628984375,0.101049384765625,1.17915478515625
-0.03711892578125,-0.0327699365234375,1.1366371630859375
0.001784199218750001,0.11698025634765626,1.1041959716796874
-0.02009880859375,0.0035034326171875,1.000728232421875
0.03047525390625,0.02286556884765625,0.9990078662109375
0.08007673828125,0.021885207519531248,1.04152548828125
-0.04100923828125,-0.02713285888671875,1.073475146484375
0.07715900390625,0.02335574951171875,1.0555341845703126
-0.02715,0.00791505859375,0.9277355517578125
-0.014506484375,0.011346323242187501,0.924049052734375
0.032420410156249996,-0.02027032958984375,0.9011927587890625
0.0812924609375,0.05129604736328125,0.95108337890625
0.0003253320312500002,0.03168882080078125,1.0412797216796874
0.020506328125,-0.01438816162109375,1.046932353515625
0.14232173828125,-0.0013983740234375002,1.056271484375
-0.02739314453125,0.01012087158203125,1.1125520361328125
0.05965259765625,-0.01781942626953125,1.141306728515625
-0.034687480468750004,-0.010711806640625,1.06905134765625
0.05041310546875,0.00717978759765625,1.0865007763671874
0.06500177734375,0.0417375244140625,1.0378389892578126
-0.01961251953125,0.01649322021484375,1.028254091796875
0.1299213671875,0.0137972265625,1.050864619140625
0.021965195312499998,0.01698340087890625,1.046932353515625
0.03047525390625,0.023845930175781252,1.1174673681640626
-0.02520484375,0.055952763671875,1.1007552392578126
0.047981660156249994,0.052031318359375,1.0727378466796875
0.04846794921875,0.0397768017578125,0.97467697265625
0.07570013671875,0.0368357177734375,1.003677431640625
0.05576228515625,0.05497240234375,1.0771616455078126
0.0550328515625,0.021885207519531248,1.106899404296875
0.0530876953125,0.0417375244140625,1.0624156494140624
-0.009643593750000002,-0.004829638671875,1.030220224609375
0.0623271875,-0.00850599365234375,1.0417712548828124
0.0929633984375,0.0829127001953125,1.0697886474609375
0.0540602734375,-0.00801581298828125,1.0688055810546875
0.01685916015625,-0.04575972412109375,1.044966220703125
0.07035095703125,0.01992448486328125,1.035135556640625
0.047738515625,-0.01585870361328125,0.9631259423828125
0.11217181640625,-0.04723026611328125,0.9847534033203125
0.1299213671875,0.0037485229492187503,1.0759328125
-0.016937929687500002,-0.09012107421875,1.045949287109375
0.076915859375,0.0358553564453125,1.092153408203125
0.07229611328125,0.0162481298828125,1.0110504296875
0.05649171875,-0.02713285888671875,1.040542421875
0.029502675781249998,0.01600303955078125,1.122628466796875
0.0856690625,0.0035034326171875,1.0923991748046875
0.0443344921875,-0.0415931884765625,0.98843990234375
0.09490855468750001,-0.0006631030273437505,1.0174403613281249
0.08493962890625,0.008405239257812499,0.994829833984375
0.082751328125,-0.02321141357421875,1.008592763671875
0.0511425390625,0.02090484619140625,1.0668394482421875
0.063299765625,-0.09624833251953124,1.031203291015625
0.12530162109375,0.0338946337890625,1.0496357861328125
0.15058865234375,-0.00997653564453125,1.0127707958984375
0.00980796875,-0.0288484912109375,1.0393135888671874
0.15788298828125,0.0142874072265625,1.085271943359375
0.06208404296875,0.00276816162109375,1.04939001953125
0.0248829296875,-0.0553182470703125,1.0501273193359375
0.121654453125,0.01992448486328125,1.1194335009765626
0.0812924609375,-0.068553125,1.0137538623046876
0.07375498046875,0.0123266845703125,0.990897568359375
0.1712559375,-0.03350520751953125,1.00023669921875
0.10828150390624999,-0.0621807763671875,1.042017021484375
0.07618642578125,0.004973974609375,1.0786362451171876
0.13308224609375,-0.025662316894531252,1.03562708984375
0.07861787109375,-0.018554697265625,1.0014655322265624
0.094422265625,-0.029338671875,1.0402966552734374
0.11411697265625,-0.00703545166015625,1.0503730859375
0.04457763671875,-0.00605509033203125,1.043983154296875
0.108038359375,-0.00801581298828125,1.0747039794921875
0.09417912109375,-0.010711806640625,1.050864619140625
0.05649171875,0.05472731201171875,1.08379734375
0.108038359375,-0.03203466552734375,1.0973145068359376
0.1415923046875,0.012816865234374999,1.1091113037109375
0.059409453125,-0.0028689160156250004,1.064136015625
0.0978262890625,0.01649322021484375,1.095594140625
0.1167915625,0.02335574951171875,1.08281427734375
0.028286953125,-0.0371815625,1.043000087890625
0.13843142578125,0.09345158447265625,1.1169758349609376
0.10487748046875,-0.027868129882812502,1.07101748046875
0.0433619140625,-0.037916833496093746,1.11230626953125
0.10876779296875,0.00472888427734375,1.1184504345703126
0.1065794921875,-0.03301502685546875,1.0402966552734374
0.057707441406250004,-0.04870080810546875,1.0343982568359376
0.07424126953125,-0.055808427734375,1.0845346435546874
0.09904201171875,-0.0006631030273437505,1.0874838427734375
0.08104931640625,-0.05115171142578125,1.01596576171875
0.1012303125,-0.073454931640625,1.0407881884765624
0.14815720703125,-0.01144707763671875,1.06905134765625
0.07618642578125,-0.05997496337890625,1.03759322265625
0.102202890625,0.00227798095703125,1.082322744140625
0.115818984375,-0.05090662109375,1.0491442529296875
0.06427234375,-0.04379900146484375,1.0393135888671874
0.08834365234375,0.026541923828125,1.091170341796875
0.11703470703125,0.01575794921875,1.079865078125
0.11071294921875,-0.026397587890625,1.0874838427734375
0.037526445312500004,-0.0055649096679687505,1.101984072265625
0.1250584765625,0.0020328906249999995,1.0896957421875
0.04117361328125,0.00570924560546875,1.0619241162109374
0.0910182421875,-0.02149578125,1.08674654296875
0.094422265625,0.023845930175781252,1.0884669091796875
0.058436875,-0.01732924560546875,1.0958399072265625
0.054303417968750003,-0.02076051025390625,1.1076367041015625
0.0851827734375,0.0740894482421875,1.1010010058593749
0.08104931640625,-0.032279755859375,1.0425085546875
-0.0013766796875,0.0152677685546875,1.078390478515625
0.15156123046875,0.020659755859375,1.09854333984375
0.02147890625,-0.05850442138671875,1.0565172509765626
0.09174767578125,-0.01978014892578125,1.1184504345703126
0.051385683593749995,0.024581201171875,1.0383305224609374
0.0025136328124999996,-0.07173929931640625,1.0108046630859375
0.07983359375,0.0137972265625,1.0511103857421875
0.041903046875,0.0093856005859375,1.0275167919921875
0.05576228515625,-0.03938737548828125,1.112797802734375
0.02074947265625,-0.0298288525390625,1.1096028369140625
0.06305662109375,-0.0337502978515625,1.0142453955078126
0.06791951171874999,-0.015368522949218751,1.0275167919921875
0.055519140625,0.00963069091796875,1.06708521484375
0.01953375,-0.00948635498046875,1.0732293798828125
0.0112668359375,-0.024436865234375,1.1032129052734374
0.0550328515625,-0.01291761962890625,1.0629071826171874
0.086641640625,0.01110123291015625,1.047915419921875
0.01491400390625,-0.01291761962890625,1.081339677734375
0.05965259765625,-0.0013983740234375002,1.0869923095703125
0.04944052734375,0.04296297607421875,1.0329236572265625
0.02998896484375,-0.028113220214843748,1.032677890625
0.0394716015625,-0.0016434643554687498,1.0786362451171876
0.04165990234375,-0.04306373046875,1.05725455078125
0.04457763671875,0.01208159423828125,1.1172216015625
0.0545465625,-0.014633251953124999,1.081339677734375
0.05041310546875,-0.0396324658203125,1.068559814453125
0.024396640625,0.0037485229492187503,1.106899404296875
0.03971474609375,0.0231106591796875,1.090187275390625
0.035824433593749996,-0.02664267822265625,1.0476696533203125
0.0453070703125,-0.00777072265625,1.0742124462890625
0.06305662109375,-0.034240478515625,1.076424345703125
0.05624857421875,-0.0631611376953125,1.0936280078125
0.04068732421875,-0.01732924560546875,1.08478041015625
0.0657312109375,-0.03252484619140625,1.052830751953125
0.020020039062499998,-0.0288484912109375,1.02972869140625
0.07959044921875,-0.0543378857421875,1.0692971142578125
0.0278006640625,-0.0072805419921875,1.1014925390624999
0.06500177734375,-0.05482806640625,1.097068740234375
0.02172205078125,-0.02076051025390625,1.079865078125
0.07205296875,-0.013652890625,1.04939001953125
0.06791951171874999,-0.0347306591796875,1.0575003173828126
0.04409134765625,-0.013162709960937501,1.11525546875
0.03825587890625,-0.0327699365234375,1.11034013671875
0.03436556640625,-0.01732924560546875,1.02383029296875
0.03387927734375,-0.0455146337890625,0.99433830078125
0.0326635546875,-0.01095689697265625,1.0024485986328124
0.05065625,-0.016593974609375,1.058729150390625
0.05381712890625,-0.01585870361328125,1.1046875048828124
0.03047525390625,-0.0072805419921875,1.084288876953125
0.10585005859375,-0.01634888427734375,1.0501273193359375
0.0467659375,0.0012976196289062499,1.0267794921875
0.030232109375,0.012816865234374999,1.0452119873046875
0.03144783203125,0.0010525292968750002,1.05725455078125
0.03728330078125,-0.025662316894531252,1.09264494140625
0.035095,0.0012976196289062499,1.0727378466796875
0.02074947265625,0.00963069091796875,1.0346440234375
0.05868001953125,-0.0011532836914062497,1.022355693359375
0.08299447265625,0.00399361328125,1.0511103857421875
-0.004537558593750001,-0.03252484619140625,1.056271484375
0.04506392578125,-0.02321141357421875,1.06806828125
0.040201035156249995,0.0255615625,1.028745625
0.03704015625,-0.045024453125,0.9793465380859375
0.048711093750000004,0.004973974609375,1.0444746875
0.06427234375,-0.03840701416015625,1.0535680517578125
0.0248829296875,-0.04306373046875,1.0506188525390625
0.076915859375,-0.02517213623046875,1.0211268603515624
0.04117361328125,-0.0033590966796874996,1.0174403613281249
0.034608710937499995,-0.0567887890625,1.03562708984375
0.02609865234375,-0.01095689697265625,1.068559814453125
0.04944052734375,-0.02076051025390625,1.0570087841796876
0.010294257812499999,-0.025662316894531252,1.0098215966796875
0.05576228515625,0.00423870361328125,1.0049062646484375
0.04214619140625,0.00717978759765625,1.0179318945312499
-0.0016198242187499996,-0.03399538818359375,1.0810939111328124
0.0297458203125,-0.0023787353515625003,1.0621698828125
0.0336361328125,0.00399361328125,1.043983154296875
0.03047525390625,-0.01169216796875,1.033169423828125
0.032420410156249996,-0.02149578125,1.0461950537109375
0.0287732421875,0.0008074389648437498,1.057746083984375
0.010294257812499999,-0.0141430712890625,1.0540595849609375
0.01880431640625,-0.02909358154296875,1.048406953125
-0.00842787109375,-0.0072805419921875,1.033169423828125
0.01540029296875,-0.0298288525390625,1.0196522607421874
0.00980796875,-0.01291761962890625,1.0506188525390625
0.02415349609375,-0.0151234326171875,1.0697886474609375
0.0278006640625,-0.04821062744140625,1.072000546875
0.006647089843749999,-0.0200252392578125,1.0481611865234375
0.02512607421875,-0.00997653564453125,1.0137538623046876
0.00421564453125,-0.01634888427734375,1.0373474560546876
0.009078535156249998,-0.016593974609375,1.0958399072265625
-0.005510136718749999,-0.02713285888671875,1.104933271484375
0.0032430664062499982,-0.0200252392578125,1.06905134765625
-0.015235917968750002,-0.013652890625,1.013508095703125
0.011023691406250001,-0.0254172265625,1.0088385302734375
-0.02933830078125,-0.022476142578125,1.03169482421875
0.0180748828125,-0.03105430419921875,1.0815854443359374
-0.00842787109375,-0.01830960693359375,1.0592206835937499
0.002756777343749999,-0.0092412646484375,1.048898486328125
-0.00696900390625,-0.03546593017578125,1.0658563818359374
-0.007941582031250002,-0.013407800292968751,1.0936280078125
-0.01280447265625,-0.0308092138671875,1.0815854443359374
-0.02520484375,-0.02468195556640625,1.0329236572265625
-0.0111024609375,-0.01634888427734375,1.011541962890625
-0.0286088671875,-0.02860340087890625,1.0184234277343749
-0.022773398437500002,-0.0092412646484375,1.06118681640625
-0.0305540234375,-0.02909358154296875,1.0702801806640625
-0.026420566406250002,-0.01879978759765625,1.0516019189453125
-0.01669478515625,-0.00777072265625,1.0417712548828124
-0.009886738281250002,-0.01879978759765625,1.0179318945312499
-0.03225603515625,-0.0170841552734375,1.0378389892578126
-0.0344443359375,-0.01683906494140625,1.07101748046875
-0.02131453125,-0.006790361328125,1.0476696533203125
-0.022530253906250002,-0.0190448779296875,1.05332228515625
-0.02885201171875,-0.00948635498046875,1.0614325830078124
-0.0383346484375,-0.018554697265625,1.058729150390625
-0.0344443359375,-0.01585870361328125,1.0422627880859374
-0.0354169140625,-0.0327699365234375,1.050864619140625
-0.0626491015625,-0.0092412646484375,1.0751955126953125
-0.05170759765625,-0.0016434643554687498,1.048898486328125
-0.05316646484375,-0.02737794921875,1.0373474560546876
-0.0558410546875,-0.0175743359375,1.02579642578125
-0.03225603515625,-0.02664267822265625,1.0073639306640625
-0.0315266015625,-0.01830960693359375,1.0216183935546874
-0.0383346484375,-0.020515419921875,1.0511103857421875
-0.057299921875,-0.01953505859375,1.0582376171875
-0.0461152734375,-0.02517213623046875,1.0393135888671874
-0.0607039453125,-0.01169216796875,1.0245675927734375
-0.07383375,0.00791505859375,1.021372626953125
-0.08039865234375,-0.01634888427734375,1.0324321240234375
-0.0743200390625,0.010856142578125,1.0661021484375
-0.06143337890625,-0.00997653564453125,1.085271943359375
-0.05657048828125,-0.01683906494140625,1.0638902490234374
-0.0286088671875,-0.0082609033203125,1.0437373876953124
-0.043683828125000004,-0.01193725830078125,1.0189149609375
-0.0509781640625,-0.02321141357421875,1.0425085546875
-0.04465640625,-0.020515419921875,1.022355693359375
-0.0466015625,-0.0254172265625,1.0147369287109376
-0.03955037109375,-0.0317895751953125,1.0189149609375
-0.05024873046875,-0.027868129882812502,1.031203291015625
-0.054868476562500004,-0.0317895751953125,1.053813818359375
-0.080641796875,-0.0043394580078125,1.0855177099609374
-0.0855046875,0.0064445166015625,1.0648733154296874
-0.084532109375,0.00472888427734375,1.0383305224609374
-0.07845349609375,0.008895419921875,1.02972869140625
-0.10106593750000001,-0.0006631030273437505,1.0378389892578126
-0.07650833984375,0.0064445166015625,1.0417712548828124
-0.05997451171875,-0.0055649096679687505,1.0267794921875
-0.08672041015625,-0.0016434643554687498,1.00515203125
-0.10082279296875,0.00619942626953125,1.0103131298828125
-0.11249373046875,0.00178780029296875,1.0053977978515625
-0.12367837890625,0.00276816162109375,1.008592763671875
-0.11492517578125,0.0015427099609375003,0.9985163330078125
-0.1166271875,-0.01585870361328125,0.9950756005859375
-0.12805498046875,-0.00605509033203125,0.9913891015625
-0.12416466796875,-0.00605509033203125,1.0034316650390624
-0.12465095703125,-0.01928996826171875,1.0110504296875
-0.12805498046875,-0.02174087158203125,0.9749227392578125
-0.13948277343749999,-0.004829638671875,0.97664310546875
-0.14653396484375,0.008895419921875,0.9557529443359375
-0.15820490234375,0.00227798095703125,0.9501003125
-0.158448046875,0.00791505859375,0.9454307470703125
-0.15358515625,0.019434304199218752,0.9365831494140625
-0.154557734375,0.022620478515625,0.942727314453125
-0.16987583984375,0.02041466552734375,0.9481341796875
-0.1783858984375,0.02335574951171875,0.9609140429687499
-0.17960162109375,0.03315936279296875,0.9604225097656249
-0.1827625,0.0564429443359375,0.94518498046875
-0.191515703125,0.05325677001953125,0.954524111328125
-0.183735078125,0.05276658935546875,0.990897568359375
-0.18786853515625002,0.0608545703125,1.023338759765625
-0.18640966796875,0.050070595703125,1.036118623046875
-0.1725504296875,0.0299731884765625,1.025304892578125
