ax,ay,az
-0.22044990234375,0.09835339111328124,0.8183694140625
-0.2309051171875,0.08266760986328126,0.8889044287109376
-0.22871681640625,0.11207844970703125,1.0476696533203125
-0.24670951171875,0.23070217041015625,1.051847685546875
-0.24670951171875,0.13707766357421874,0.984999169921875
-0.1827625,0.13536203125,1.0432458544921874
-0.214857578125,0.155949619140625,1.0014655322265624
-0.25643529296875,0.103010107421875,0.9650920751953125
-0.22288134765625,0.13315621826171875,0.9493630126953125
-0.28707150390625,0.09810830078125,0.9272440185546875
-0.14507509765624998,0.11747043701171875,0.955507177734375
-0.21655958984375,0.18315464599609374,0.97271083984375
-0.27005138671875,0.096147578125,0.9739396728515625
-0.22725794921875,0.11060790771484375,1.03661015625
-0.2610550390625,0.19001717529296874,1.0599579833984376
-0.19856689453125,0.116735166015625,0.973202373046875
-0.22434021484375,0.12580350830078124,0.9110234228515625
-0.26324333984375,0.14908708984375,0.9139726220703125
-0.14215736328125,0.10815700439453126,0.8928366943359375
-0.23747001953125,0.12041152099609376,0.938795048828125
-0.20391607421875,0.16158669677734375,1.069542880859375
-0.15747546875,0.1603612451171875,1.065610615234375
-0.265431640625,0.20521277587890624,1.0712632470703125
-0.2017277734375,0.2093793115234375,1.0697886474609375
-0.27199654296875,0.1505576318359375,0.9913891015625
-0.323786328125,0.16109651611328124,1.0398051220703124
-0.2318776953125,0.0878145068359375,0.9980247998046875
-0.1696326953125,0.04982550537109375,0.8500733056640625
-0.17376615234375,0.08609887451171874,0.787402822265625
-0.1944334375,0.06894255126953125,0.810013349609375
-0.20829267578125,0.07482471923828125,0.892590927734375
-0.28755779296875,0.13756784423828125,1.0230929931640624
-0.26324333984375,0.1319307666015625,1.1346710302734375
-0.26032560546875,0.22432982177734376,1.1140266357421875
-0.2396583203125,0.240260693359375,1.031203291015625
-0.24233291015625,0.18707609130859376,0.9985163330078125
-0.27491427734375,0.20766367919921874,1.0732293798828125
-0.2688356640625,0.0878145068359375,0.979100771484375
-0.1608794921875,0.0878145068359375,0.8633447021484375
-0.18859796875,0.1162449853515625,0.7763433251953125
-0.16258150390625,0.0652661962890625,0.8338527099609375
-0.2099946875,0.126538779296875,0.97467697265625
-0.2644590625,0.16942958740234376,1.1435186279296874
-0.28974609375,0.1799684716796875,1.232731904296875
-0.27831830078124997,0.17286085205078125,1.1447474609375
-0.23528171875,0.2083989501953125,1.0447204541015624
-0.24427806640625,0.1191860693359375,0.983033037109375
-0.2182616015625,0.1172253466796875,0.9641090087890625
-0.2017277734375,0.11845079833984375,0.8658023681640625
-0.15188314453125001,0.073599267578125,0.7807671240234375
-0.1171134765625,0.10913736572265625,0.811979482421875
-0.21266927734375,0.09835339111328124,0.9213456201171875
-0.2153438671875,0.16599832275390625,1.0702801806640625
-0.28804408203125,0.1084020947265625,1.0629071826171874
-0.25157240234375,0.1897720849609375,1.1022298388671874
-0.21996361328125,0.1544790771484375,1.023338759765625
-0.2644590625,0.16869431640625,1.0122792626953125
-0.21510072265625,0.12482314697265626,0.9815584374999999
-0.31478998046875,0.09100068115234375,0.9026673583984375
-0.2036729296875,0.1015395654296875,0.903404658203125
-0.12343523437500001,0.1005592041015625,0.8576920703124999
-0.20804953125,0.1397736572265625,0.9233117529296875
-0.21023783203125002,0.1133039013671875,0.9881941357421875
-0.172064140625,0.14786163818359374,1.0697886474609375
-0.2056180859375,0.1809488330078125,1.0540595849609375
-0.22677166015625,0.17531175537109375,1.0378389892578126
-0.25983931640625,0.1593808837890625,0.99040603515625
-0.2250696484375,0.18952699462890624,0.9877026025390625
-0.26664736328125,0.16746886474609374,0.9105318896484375
-0.2474389453125,0.09100068115234375,0.8908705615234375
-0.22823052734375,0.16501796142578126,0.9041419580078125
-0.24695265625,0.06698182861328125,0.911269189453125
-0.15236943359375,0.1235976953125,1.024321826171875
-0.19516287109375,0.14492055419921876,1.02186416015625
-0.1881116796875,0.1172253466796875,1.029237158203125
-0.11881548828124999,0.18511536865234374,1.024321826171875
-0.19127255859375,0.0956573974609375,0.9336339501953125
-0.19029998046875,0.13217585693359374,0.9795923046875
-0.1793584765625,0.23315307373046876,0.985982236328125
-0.338375,0.1182057080078125,1.0117877294921875
-0.25838044921875,0.185360458984375,1.0211268603515624
-0.23990146484375,0.21550656982421876,0.9528037451171875
-0.2873146484375,0.09884357177734375,0.885709462890625
-0.20975154296875,0.15080272216796875,0.9749227392578125
-0.24938410156250002,0.1682041357421875,0.924049052734375
-0.16841697265625,0.1260485986328125,0.8908705615234375
-0.09912078125,0.1682041357421875,0.9277355517578125
-0.1910294140625,0.13854820556640626,0.9815584374999999
-0.23649744140625,0.16011615478515626,1.0525849853515625
-0.19321771484375,0.18756627197265624,1.0501273193359375
-0.2630001953125,0.0858537841796875,0.955507177734375
-0.2921775390625,0.17482157470703125,0.9311762841796875
-0.19953947265625,0.089285048828125,0.828200078125
-0.14604767578125,0.15962597412109375,0.8360646093749999
-0.22288134765625,0.1706550390625,0.9196252539062499
-0.197351171875,0.104970830078125,1.0737209130859375
-0.22531279296875,0.179478291015625,1.1548238916015625
-0.24816837890625,0.1235976953125,1.0584833837890626
-0.1944334375,0.1613416064453125,1.0149826953125
-0.20026890625,0.10987263671875,0.9257694189453125
-0.1608794921875,0.08634396484375,0.91569298828125
-0.206104375,0.17678229736328124,0.926015185546875
-0.2464663671875,0.17090012939453125,0.933879716796875
-0.1890842578125,0.08953013916015624,0.90782845703125
-0.28391062499999997,0.18266446533203126,0.943710380859375
-0.19905318359375002,0.11060790771484375,0.9677955078125
-0.228473671875,0.097127939453125,0.9002096923828125
-0.20099833984375,0.17825283935546876,0.8628531689453125
-0.18738224609375,0.10080429443359375,0.8812856640625
-0.23990146484375,0.19786006591796876,0.9874568359375
-0.13972591796875,0.15570452880859376,1.0668394482421875
-0.22725794921875,0.1907524462890625,1.1612138232421876
-0.2333365625,0.20913422119140626,1.145238994140625
-0.25983931640625,0.19884042724609374,1.121645400390625
-0.29874244140625,0.18413500732421875,1.0801108447265624
-0.2260422265625,0.14418528320312501,0.9778719384765625
-0.17717017578125,0.15913579345703124,0.9778719384765625
-0.22385392578125,0.09786321044921875,0.9626344091796875
-0.21899103515625,0.10202974609375,0.964354775390625
-0.22239505859375,0.1417343798828125,0.98647376953125
-0.26567478515625,0.08953013916015624,1.09264494140625
-0.30506419921875,0.13266603759765624,1.1012467724609376
-0.20464550781250002,0.15129290283203126,0.9960586669921875
-0.30457791015625,0.16869431640625,0.94125271484375
-0.2523018359375,0.0878145068359375,0.89209939453125
-0.16720125,0.12972495361328126,0.8957858935546875
-0.22239505859375,0.150067451171875,0.9284728515625
-0.259596171875,0.1387932958984375,1.0191607275390624
-0.17911533203125,0.16624341308593749,1.01006736328125
-0.23357970703125,0.13952856689453125,1.025304892578125
-0.25497642578125,0.2280061767578125,1.0501273193359375
-0.2450075,0.08364797119140625,1.0398051220703124
-0.28755779296875,0.175556845703125,1.003677431640625
-0.201241484375,0.15570452880859376,0.975168505859375
-0.23455228515625,0.11060790771484375,0.932896650390625
-0.2474389453125,0.136342392578125,0.9213456201171875
-0.237226875,0.161831787109375,0.9481341796875
-0.22750109375,0.18830154296875,0.9518206787109375
-0.20026890625,0.07825598388671876,0.897506259765625
-0.2416034765625,0.1809488330078125,0.92159138671875
-0.19832375,0.0603643896484375,0.8989808593749999
-0.19078626953125,0.13315621826171875,0.9405154150390624
-0.17279357421875,0.20178151123046875,1.0201437939453124
-0.20975154296875,0.16305723876953124,1.091170341796875
-0.29533841796875,0.14443037353515625,1.0860092431640624
-0.30311904296875003,0.1936935302734375,1.040050888671875
-0.21461443359375,0.1280093212890625,1.001219765625
-0.26178447265625,0.14099910888671874,0.9481341796875
-0.15528716796875,0.130460224609375,0.979100771484375
-0.22531279296875,0.14295983154296876,1.051847685546875
-0.2941226953125,0.1505576318359375,1.0181776611328126
-0.24476435546875,0.15276344482421875,0.994829833984375
-0.255705859375,0.15472416748046874,0.9582106103515625
-0.2571647265625,0.13609730224609376,0.986965302734375
-0.19564916015625,0.17923320068359375,1.0029401318359374
-0.20026890625,0.11550971435546875,0.9127437890625
-0.255705859375,0.14639109619140625,0.9680412744140625
-0.221665625,0.1240878759765625,0.962388642578125
-0.24670951171875,0.1628121484375,0.89209939453125
-0.25059982421875,0.136342392578125,0.9439561474609375
-0.24962724609375,0.18511536865234374,0.9636174755859375
-0.2279873828125,0.15080272216796875,0.920116787109375
-0.19759431640625,0.18462518798828126,0.9552614111328125
-0.17814275390625,0.138303115234375,0.95796484375
-0.1968648828125,0.22089855712890624,1.0373474560546876
-0.2523018359375,0.0976181201171875,1.0014655322265624
-0.27783201171875,0.126538779296875,1.0280083251953125
-0.18981369140625,0.18462518798828126,1.0132623291015626
-0.27272597656249997,0.13756784423828125,0.9481341796875
-0.19346085937500002,0.19540916259765626,0.9636174755859375
-0.245980078125,0.17923320068359375,0.941744248046875
-0.27151025390625,0.18462518798828126,0.991880634765625
-0.2474389453125,0.15521434814453125,0.9587021435546875
-0.2488978125,0.14639109619140625,0.9469053466796875
-0.2192341796875,0.1084020947265625,0.935845849609375
-0.214857578125,0.1392834765625,0.9007012255859375
-0.203186640625,0.104970830078125,0.8603955029296875
-0.15820490234375,0.1348718505859375,0.9174133544921875
-0.24719580078125,0.157910341796875,0.95894791015625
-0.20294349609375,0.14418528320312501,0.972219306640625
-0.22920310546875,0.16942958740234376,0.9591936767578125
-0.2177753125,0.2103596728515625,0.95108337890625
-0.2255559375,0.2098694921875,0.9913891015625
-0.2824517578125,0.20790876953125,0.9400238818359374
-0.26324333984375,0.22776108642578125,0.984999169921875
-0.26664736328125,0.16746886474609374,1.0103131298828125
-0.170118984375,0.163792509765625,0.999745166015625
-0.2571647265625,0.18609572998046875,1.03169482421875
-0.22579908203125,0.14418528320312501,1.0130165625
-0.21169669921875,0.14786163818359374,1.0122792626953125
-0.18446451171875,0.19687970458984375,1.0108046630859375
-0.1881116796875,0.13119549560546875,1.02579642578125
-0.2192341796875,0.1628121484375,0.9690243408203125
-0.269321953125,0.1966346142578125,0.9356000830078125
-0.25303126953125,0.17139031005859376,0.9911433349609375
-0.24938410156250002,0.16256705810546876,0.99040603515625
-0.25157240234375,0.15570452880859376,0.979100771484375
-0.25059982421875,0.1799684716796875,1.0137538623046876
-0.27637314453125,0.09933375244140626,0.9252778857421875
-0.17668388671875,0.18854663330078125,0.985982236328125
-0.25303126953125,0.18952699462890624,1.0540595849609375
-0.20634751953125,0.11305881103515625,1.0309575244140625
-0.22871681640625,0.169674677734375,0.9798380712890625
-0.2133987109375,0.12237224365234375,0.9567360107421875
-0.1929745703125,0.15570452880859376,1.007609697265625
-0.218747890625,0.15913579345703124,0.9992536328125
-0.25886673828125,0.12163697265625,1.008592763671875
-0.2435486328125,0.17825283935546876,1.026287958984375
-0.2620276171875,0.1466361865234375,0.9960586669921875
-0.2853694921875,0.17825283935546876,1.00515203125
-0.27394169921875,0.16158669677734375,0.983033037109375
-0.30895451171875,0.15815543212890626,0.9818042041015624
-0.18835482421875,0.1941837109375,1.0179318945312499
-0.23990146484375,0.17874302001953124,1.0570087841796876
-0.2231244921875,0.15570452880859376,1.087238076171875
-0.16744439453124998,0.25619156494140627,1.0579918505859376
-0.27880458984375,0.09541230712890625,1.0024485986328124
-0.1866528125,0.2329079833984375,1.1329506640625
-0.230418828125,0.179478291015625,1.0486527197265625
-0.237226875,0.06698182861328125,1.070525947265625
-0.21461443359375,0.14982236083984374,1.064136015625
-0.213885,0.142224560546875,1.0348897900390626
-0.205131796875,0.10202974609375,1.0284998583984375
-0.26956509765625,0.126538779296875,0.9714820068359376
-0.15236943359375,0.21844765380859374,1.06315294921875
-0.19419029296875,0.093206494140625,0.969761640625
-0.20804953125,0.1211467919921875,0.926015185546875
-0.17668388671875,0.09933375244140626,0.985982236328125
-0.29509527343749997,0.18217428466796876,1.0516019189453125
-0.15869119140625,0.11501953369140624,1.0226014599609374
-0.19370400390625,0.22482000244140626,0.9891772021484375
-0.28172232421875,0.1397736572265625,0.9434646142578125
-0.2445212109375,0.11011772705078125,0.947642646484375
-0.24695265625,0.10864718505859375,0.9473968798828125
-0.2056180859375,0.174576484375,0.9395323486328125
-0.20926525390625,0.14933218017578126,0.912252255859375
-0.27248283203125,0.2015364208984375,1.0619241162109374
-0.2099946875,0.2490839453125,1.1263149658203124
-0.23698373046875,0.2525152099609375,1.09952640625
-0.2678630859375,0.1941837109375,1.06708521484375
-0.13972591796875,0.2848671337890625,1.075441279296875
-0.1939471484375,0.1280093212890625,0.9820499707031249
-0.26640421875,0.12825441162109374,1.035135556640625
-0.12805498046875,0.19589934326171876,0.986965302734375
-0.2600824609375,0.04296297607421875,0.86850580078125
-0.14458880859375,0.142224560546875,0.929947451171875
-0.2464663671875,0.1740863037109375,0.94223578125
-0.19029998046875,0.18560554931640624,1.088221142578125
-0.21193984375,0.13658748291015624,1.08379734375
-0.2853694921875,0.21967310546875,1.1164843017578125
-0.15431458984375,0.14492055419921876,1.0206353271484374
-0.15236943359375,0.17653720703125,0.9655836083984375
-0.18932740234375,0.1946738916015625,1.0447204541015624
-0.20197091796875,0.14933218017578126,0.997779033203125
-0.14993798828125,0.17531175537109375,0.9636174755859375
-0.2766162890625,0.23511379638671875,0.95108337890625
-0.21072412109375,0.0338946337890625,0.8839890966796875
-0.17473873046875,0.19197789794921874,0.8490902392578125
-0.24379177734375002,0.15619470947265626,0.8348357763671875
-0.2717533984375,0.1260485986328125,0.92650671875
-0.154557734375,0.2113400341796875,0.9154472216796875
-0.28464005859375,0.18021356201171876,0.8731753662109375
-0.19078626953125,0.27726933349609373,1.0230929931640624
-0.21193984375,0.2123203955078125,0.9454307470703125
-0.2250696484375,0.228496357421875,0.93732044921875
-0.25643529296875,0.1784979296875,0.938303515625
-0.1477496875,0.1495772705078125,0.883251796875
-0.21072412109375,0.17874302001953124,0.93142205078125
-0.2406308984375,0.13315621826171875,0.9282270849609375
-0.13680818359375,0.3025136376953125,0.9336339501953125
-0.158448046875,0.2054578662109375,0.8618701025390625
-0.23406599609375,0.1201664306640625,0.934862783203125
-0.1803310546875,0.3034939990234375,1.02776255859375
-0.20464550781250002,0.1182057080078125,0.9931094677734374
-0.2795340234375,0.2338883447265625,1.016457294921875
-0.207076953125,0.1691844970703125,0.912252255859375
-0.20415921875,0.15619470947265626,0.848352939453125
-0.21218298828125,0.2378097900390625,0.8431918408203125
-0.21607330078125,0.2020266015625,0.8891501953125
-0.15917748046875,0.22531018310546874,0.99433830078125
-0.19953947265625,0.191242626953125,0.968287041015625
-0.19248828125,0.2329079833984375,1.0071181640625
-0.28561263671875,0.17825283935546876,0.988931435546875
-0.17571130859375,0.203006962890625,0.9985163330078125
-0.3028758984375,0.2642795458984375,0.9822957373046874
-0.2882872265625,0.0608545703125,0.964354775390625
-0.20975154296875,0.20913422119140626,0.953541044921875
-0.1920019921875,0.23315307373046876,0.93338818359375
-0.2523018359375,0.1378129345703125,1.067576748046875
-0.27248283203125,0.24687813232421876,1.1666206884765624
-0.23114826171875,0.20080114990234374,1.05135615234375
-0.21193984375,0.20472259521484376,0.96681244140625
-0.2488978125,0.2427115966796875,0.8783364648437499
-0.1443456640625,0.18364482666015625,0.84097994140625
-0.20002576171875,0.20080114990234374,0.9129895556640625
-0.280992890625,0.2005560595703125,0.88030259765625
-0.24281919921875,0.1280093212890625,0.9292101513671875
-0.26275705078125,0.19540916259765626,0.946168046875
-0.1676875390625,0.15717507080078125,0.9238032861328125
-0.27880458984375,0.19736988525390625,0.9965502001953125
-0.20440236328125,0.19295825927734375,0.9749227392578125
-0.292663828125,0.2505544873046875,0.9724650732421874
-0.221665625,0.23413343505859374,1.005643564453125
-0.23941517578125,0.255946474609375,1.03169482421875
-0.20245720703125,0.1907524462890625,1.044966220703125
-0.2639727734375,0.214771298828125,1.0597122167968749
-0.26761994140625,0.205948046875,1.0447204541015624
-0.24670951171875,0.17874302001953124,0.992863701171875
-0.2561921484375,0.1613416064453125,0.9631259423828125
-0.2503566796875,0.14001874755859375,1.001711298828125
-0.1657423828125,0.19491898193359375,1.0127707958984375
-0.27613,0.1162449853515625,0.9754142724609375
-0.18859796875,0.143204921875,1.0663479150390625
-0.2172890234375,0.161831787109375,1.0388220556640624
-0.26129818359375,0.16550814208984374,1.0152284619140626
-0.21412814453125,0.1789881103515625,1.0093300634765625
-0.26056875,0.17261576171875,0.97074470703125
-0.28074974609375003,0.10080429443359375,0.95304951171875
-0.2177753125,0.2182025634765625,0.9616513427734374
-0.1307295703125,0.17040994873046875,0.9798380712890625
-0.26567478515625,0.1505576318359375,0.99237216796875
-0.16160892578125,0.222614189453125,1.0395593554687501
-0.2172890234375,0.20815385986328125,1.029237158203125
-0.26251390625,0.20864404052734375,1.0358728564453126
-0.19905318359375002,0.15472416748046874,1.0425085546875
-0.26859251953125,0.20864404052734375,1.040050888671875
-0.25011353515625,0.2280061767578125,1.010558896484375
-0.16185207031249998,0.19393862060546874,0.996795966796875
-0.244034921875,0.2490839453125,1.062661416015625
-0.20586123046875,0.1309504052734375,1.0865007763671874
-0.28464005859375,0.1564397998046875,1.08281427734375
-0.22725794921875,0.1799684716796875,0.9439561474609375
-0.20488865234375,0.083402880859375,0.8608870361328125
-0.08526154296874999,0.157910341796875,0.9242948193359375
-0.09401474609375,0.19197789794921874,1.0319405908203125
-0.16890326171875,0.12237224365234375,1.1179589013671876
-0.19248828125,0.13952856689453125,1.1322133642578125
-0.17425244140625,0.18805645263671875,1.07298361328125
-0.16695810546875,0.1358522119140625,0.9677955078125
-0.21704587890625,0.16795904541015624,0.977626171875
-0.23941517578125,0.203006962890625,0.996795966796875
-0.1929745703125,0.1329111279296875,0.95796484375
-0.2065906640625,0.179478291015625,0.9498545458984375
-0.30409162109375,0.17482157470703125,1.0162115283203126
-0.1696326953125,0.104970830078125,1.001219765625
-0.30263275390625,0.18511536865234374,0.9336339501953125
-0.15285572265625,0.15766525146484375,0.8884128955078126
-0.25157240234375,0.1701648583984375,0.8884128955078126
-0.24914095703125,0.17482157470703125,0.8694888671875
-0.2133987109375,0.1250682373046875,0.9048792578125
-0.2411171875,0.232417802734375,1.028745625
-0.30555048828125,0.17384121337890626,0.99433830078125
-0.20488865234375,0.2054578662109375,1.013508095703125
-0.29363640625,0.21991819580078126,1.0152284619140626
-0.24330548828125,0.143204921875,0.9808211376953125
-0.17425244140625,0.15080272216796875,0.997779033203125
-0.25473328125,0.2083989501953125,1.0098215966796875
-0.17765646484375,0.1956542529296875,1.002694365234375
-0.24816837890625,0.21501638916015625,1.0540595849609375
-0.22920310546875,0.16893940673828126,1.011541962890625
-0.2177753125,0.15227326416015624,0.93928658203125
-0.24038775390625,0.17139031005859376,0.883251796875
-0.2630001953125,0.1044806494140625,0.8569547705078124
-0.197351171875,0.16648850341796875,0.9473968798828125
-0.2464663671875,0.16452778076171876,0.9886856689453125
-0.19905318359375002,0.1613416064453125,1.0130165625
-0.2912049609375,0.175556845703125,0.972219306640625
-0.18106048828125,0.165753232421875,0.985490703125
-0.232363984375,0.25423084228515624,0.9650920751953125
-0.18446451171875,0.112813720703125,0.9183964208984375
-0.23892888671875,0.17384121337890626,0.98450763671875
-0.24914095703125,0.163792509765625,0.965829375
-0.2114535546875,0.1417343798828125,0.9370746826171875
-0.22361078125,0.23217271240234374,0.9709904736328125
-0.28585578125,0.18903681396484376,0.983033037109375
-0.2202067578125,0.16673359375,1.0648733154296874
-0.2980130078125,0.2456526806640625,1.045949287109375
-0.21558701171875,0.08903995849609375,0.9459222802734375
-0.15188314453125001,0.19050735595703125,0.976151572265625
-0.18543708984375,0.15864561279296874,0.8928366943359375
-0.2027003515625,0.15325362548828125,0.9021758251953125
-0.23747001953125,0.16599832275390625,0.985490703125
-0.16112263671875,0.155949619140625,1.0471781201171875
-0.24476435546875,0.1554594384765625,1.027271025390625
-0.1628246484375,0.16844922607421875,0.976151572265625
-0.166228671875,0.17237067138671874,1.011541962890625
-0.205131796875,0.1554594384765625,1.024813359375
-0.190543125,0.1270289599609375,0.9891772021484375
-0.26859251953125,0.138303115234375,0.9660751416015625
-0.23066197265625,0.17040994873046875,0.993355234375
-0.17230728515625,0.21305566650390625,0.9992536328125
-0.199296328125,0.1829095556640625,0.98450763671875
-0.214857578125,0.19786006591796876,1.0221099267578124
-0.21121041015625,0.146146005859375,0.98254150390625
-0.21121041015625,0.21648693115234374,0.97860923828125
-0.18470765625,0.104970830078125,0.9464138134765625
-0.28391062499999997,0.18438009765625,1.003677431640625
-0.21850474609375,0.14443037353515625,0.950591845703125
-0.265431640625,0.15570452880859376,0.9596852099609375
-0.2177753125,0.190262265625,0.9599309765625
-0.2095083984375,0.0809519775390625,0.9056165576171875
-0.300444453125,0.15325362548828125,0.93338818359375
-0.17862904296875,0.10595119140625,0.9508376123046876
-0.24816837890625,0.11305881103515625,0.92650671875
-0.2182616015625,0.10619628173828125,0.9582106103515625
-0.109819140625,0.16501796142578126,0.9483799462890625
-0.18446451171875,0.175556845703125,1.0127707958984375
-0.214857578125,0.1976149755859375,1.04349162109375
-0.15382830078125,0.2020266015625,0.9872110693359375
-0.29776986328125,0.1956542529296875,0.9975332666015625
-0.23357970703125,0.14492055419921876,0.980083837890625
-0.26518849609375,0.15864561279296874,0.8898874951171875
-0.24719580078125,0.17433139404296874,0.8584293701171875
-0.21023783203125002,0.1240878759765625,0.890624794921875
-0.25011353515625,0.15692998046875,0.92355751953125
-0.15625974609374998,0.11011772705078125,0.9407611816406249
-0.224583359375,0.136342392578125,0.977134638671875
-0.16890326171875,0.1819291943359375,0.96484630859375
-0.21266927734375,0.089285048828125,0.9272440185546875
-0.22677166015625,0.17825283935546876,1.021372626953125
-0.1988100390625,0.16011615478515626,0.9913891015625
-0.29922873046875,0.10766682373046875,0.978117705078125
-0.16938955078125,0.193203349609375,0.9626344091796875
-0.2620276171875,0.09418685546875,0.907336923828125
-0.25059982421875,0.15864561279296874,0.9953213671875
-0.2163164453125,0.17384121337890626,0.9311762841796875
-0.24768208984375,0.0927163134765625,0.9242948193359375
-0.20586123046875,0.2133007568359375,1.002694365234375
-0.18251935546875,0.1554594384765625,0.9311762841796875
-0.2231244921875,0.1000690234375,0.9604225097656249
-0.21461443359375,0.17139031005859376,0.965337841796875
-0.15869119140625,0.1603612451171875,0.9478884130859375
-0.2396583203125,0.1289896826171875,0.9380577490234375
-0.234309140625,0.152028173828125,0.98254150390625
-0.2639727734375,0.138303115234375,1.027271025390625
-0.2882872265625,0.11550971435546875,1.02776255859375
-0.27248283203125,0.07850107421875,0.9481341796875
-0.23114826171875,0.15031254150390624,0.912252255859375
-0.18057419921875,0.11771552734375,0.9316678173828125
-0.26761994140625,0.15717507080078125,0.9803296044921875
-0.19346085937500002,0.181439013671875,1.02088109375
-0.226528515625,0.13462676025390624,0.96877857421875
-0.20780638671875,0.16869431640625,1.022355693359375
-0.25084296875,0.1235976953125,1.0461950537109375
-0.26470220703125,0.15766525146484375,0.995812900390625
-0.17911533203125,0.16795904541015624,0.8594124365234375
-0.2279873828125,0.10521592041015625,0.844420673828125
-0.2454937890625,0.10129447509765625,0.908319990234375
-0.2824517578125,0.11845079833984375,0.9611598095703124
-0.22482650390625,0.13903838623046874,1.0004824658203124
-0.21364185546875,0.0907555908203125,0.993846767578125
-0.29631099609375,0.0701680029296875,0.909303056640625
-0.2172890234375,0.1672237744140625,0.9911433349609375
-0.25497642578125,0.06894255126953125,0.8948028271484375
-0.17084841796875,0.11649007568359375,0.9203625537109374
-0.14458880859375,0.1250682373046875,0.8943112939453125
-0.2488978125,0.13658748291015624,0.929947451171875
-0.24330548828125,0.0721287255859375,0.952557978515625
-0.28512634765625,0.18609572998046875,1.0363643896484376
-0.237226875,0.169674677734375,1.0329236572265625
-0.30506419921875,0.15472416748046874,0.925032119140625
-0.271267109375,0.142224560546875,0.9665666748046875
-0.2454937890625,0.16599832275390625,0.9874568359375
-0.279047734375,0.1235976953125,0.9002096923828125
-0.28196546875,0.08364797119140625,0.9228202197265625
-0.2503566796875,0.1858506396484375,0.9198710205078124
-0.22725794921875,0.10864718505859375,0.908319990234375
-0.30944080078125,0.09786321044921875,0.9660751416015625
-0.2017277734375,0.1642826904296875,1.0053977978515625
-0.317950859375,0.10374537841796876,0.956490244140625
-0.27734572265625,0.10423555908203125,0.983033037109375
-0.23844259765625,0.18658591064453126,0.979100771484375
-0.2873146484375,0.075559990234375,0.9552614111328125
-0.27029453125,0.15570452880859376,1.0543053515625
-0.25838044921875,0.16673359375,1.0167030615234376
-0.23649744140625,0.14148928955078124,1.013508095703125
-0.23163455078125,0.136342392578125,1.0324321240234375
-0.236254296875,0.1427147412109375,1.013508095703125
-0.15188314453125001,0.09590248779296875,0.9847534033203125
-0.2746711328125,0.13315621826171875,1.007609697265625
-0.2177753125,0.11894097900390625,1.031203291015625
-0.2250696484375,0.16305723876953124,1.0029401318359374
-0.2853694921875,0.12090170166015625,0.9700074072265625
-0.1978374609375,0.1368325732421875,1.0122792626953125
-0.20197091796875,0.0976181201171875,0.9636174755859375
-0.263486484375,0.1201664306640625,0.993355234375
-0.2182616015625,0.14982236083984374,0.9469053466796875
-0.24573693359375,0.1103628173828125,0.9670582080078125
-0.2736985546875,0.1549692578125,1.020389560546875
-0.24695265625,0.08756941650390625,1.0053977978515625
-0.25303126953125,0.09810830078125,1.0457035205078125
-0.11006228515625,0.18168410400390625,0.9793465380859375
-0.22288134765625,0.1368325732421875,0.933879716796875
-0.2921775390625,0.1280093212890625,1.0398051220703124
-0.28196546875,0.13658748291015624,1.060695283203125
-0.26275705078125,0.1235976953125,1.027271025390625
-0.28901666015625,0.153988896484375,1.076424345703125
-0.24184662109375,0.06992291259765625,0.935845849609375
-0.2279873828125,0.095167216796875,0.9075826904296875
-0.245980078125,0.16869431640625,1.001219765625
-0.26616107421875,0.114774443359375,1.0511103857421875
-0.24695265625,0.167713955078125,1.11525546875
-0.25643529296875,0.077520712890625,1.105916337890625
-0.1793584765625,0.19050735595703125,1.0874838427734375
-0.234309140625,0.083402880859375,1.0078554638671875
-0.26154132812499997,0.02482629150390625,1.0717547802734375
-0.2347954296875,0.20325205322265624,1.0688055810546875
-0.189570546875,7.216796875000007e-05,0.9820499707031249
-0.31965287109375,0.0397768017578125,1.0186691943359376
-0.19321771484375,0.1201664306640625,0.9650920751953125
-0.32086859375,0.01992448486328125,0.8962774267578125
-0.25838044921875,0.124578056640625,0.98450763671875
-0.2240970703125,0.14541073486328124,0.9729566064453125
-0.24622322265625,0.07286399658203124,0.97664310546875
-0.22482650390625,0.16501796142578126,0.9704989404296875
-0.31333111328125,0.11305881103515625,0.9282270849609375
-0.25400384765625,0.03536517578125,0.84786140625
-0.27540056640625,0.08854977783203125,0.8667854345703125
-0.19467658203125,0.10766682373046875,0.929947451171875
-0.23406599609375,0.0348749951171875,0.934862783203125
-0.271267109375,0.0044837939453125,0.8795652978515625
-0.2746711328125,0.114774443359375,0.8584293701171875
-0.23406599609375,0.06011929931640625,0.79575888671875
-0.19346085937500002,0.09394176513671874,0.8102591162109375
-0.22823052734375,0.101049384765625,0.934862783203125
-0.2970404296875,0.1162449853515625,1.01989802734375
-0.24379177734375002,0.12482314697265626,0.9857364697265625
-0.2980130078125,0.11011772705078125,0.921099853515625
-0.19273142578125,0.1162449853515625,0.9660751416015625
-0.1881116796875,0.1584005224609375,0.9596852099609375
-0.2795340234375,0.13658748291015624,0.9547698779296875
-0.28391062499999997,0.075559990234375,1.004660498046875
-0.26251390625,0.16501796142578126,1.048898486328125
-0.1482359765625,0.2647697265625,1.161951123046875
-0.3057936328125,0.114774443359375,1.1258234326171874
-0.3485870703125,0.08658905517578125,1.12410306640625
-0.40256515625,0.1368325732421875,1.1054248046875
-0.34032015625,-0.00409436767578125,0.9402696484374999
-0.349073359375,0.00865032958984375,0.7645465283203124
-0.15480087890625,0.0378160791015625,0.673367119140625
-0.05243703125,-0.02149578125,0.7881401220703125
-0.30214646484375,0.026296833496093748,0.9228202197265625
-0.2484115234375,0.021640117187500002,0.9867195361328125
-0.18008791015625,0.2025167822265625,0.9994993994140625
-0.30117388671875,0.18168410400390625,0.9650920751953125
-0.2416034765625,0.095167216796875,1.1184504345703126
-0.343237890625,0.21893783447265625,1.2489525
-0.40913005859375,0.14099910888671874,1.207172177734375
-0.2717533984375,0.0280124658203125,0.9827872705078124
-0.2022140625,0.05325677001953125,0.8569547705078124
-0.1997826171875,0.13266603759765624,0.837539208984375
-0.21801845703125,0.01845394287109375,0.807064150390625
-0.2143712890625,0.10202974609375,0.9397781152343749
-0.1842213671875,0.0789912548828125,0.9070911572265625
-0.22628537109375,-0.02174087158203125,0.9036504248046875
-0.2192341796875,0.20570295654296875,1.02579642578125
-0.3057936328125,0.09492212646484376,1.0582376171875
-0.2630001953125,0.05717821533203125,1.1735021533203125
-0.32159802734375,0.0907555908203125,1.1486797265625
-0.3203823046875,0.00423870361328125,1.088221142578125
-0.33375525390625,0.13805802490234376,1.0280083251953125
-0.2941226953125,0.06306038330078124,0.9002096923828125
-0.19467658203125,0.06257020263671875,0.992863701171875
-0.1151683203125,0.05521749267578125,1.0739666796875
-0.15771861328125,0.04884514404296875,1.1132893359375
-0.11346630859375,0.14418528320312501,1.1553154248046875
-0.42177357421875,0.01183650390625,1.0110504296875
-0.2318776953125,-0.04036773681640625,0.9520664453125
-0.20342978515625,0.04688442138671875,1.028254091796875
-0.35855599609375,-0.04036773681640625,0.9980247998046875
-0.14896541015625,0.03144373046875,0.995812900390625
-0.31697828125,0.057913486328125,1.0147369287109376
-0.46748474609375,0.0985984814453125,1.0189149609375
-0.341292734375,0.0740894482421875,0.7910893212890625
-0.13291787109375,0.1701648583984375,0.722520439453125
-0.100093359375,0.13315621826171875,0.7370206689453125
0.012725703124999998,0.169674677734375,1.0579918505859376
-0.481343984375,0.2809456884765625,1.3492252734375
-0.55209904296875,0.14688127685546876,1.19390078125
-0.2133987109375,0.0995788427734375,0.9980247998046875
-0.1151683203125,-0.00777072265625,0.9174133544921875
-0.1851939453125,-0.00777072265625,1.1528577587890625
-0.39648654296875,0.13658748291015624,1.3199790478515625
-0.3583128515625,0.0652661962890625,1.294665087890625
-0.21364185546875,0.0701680029296875,0.9886856689453125
-0.323786328125,0.081442158203125,1.0417712548828124
-0.18203306640625,0.10987263671875,1.1892312158203124
-0.4662690234375,0.06894255126953125,1.244528701171875
-0.51927453125,-0.04281864013671875,1.0398051220703124
-0.2921775390625,0.01845394287109375,0.7478343994140625
-0.13000013671875,0.07261890625,0.6544430908203125
-0.249870390625,0.019434304199218752,0.755944697265625
-0.323786328125,0.0054641552734375,0.9724650732421874
-0.290718671875,0.09394176513671874,1.0820769775390624
-0.2435486328125,0.1309504052734375,0.973202373046875
-0.15139685546875,0.1863408203125,0.9559987109375
-0.25157240234375,0.0946770361328125,1.048898486328125
-0.20197091796875,0.1172253466796875,1.1803836181640626
-0.3485870703125,0.122617333984375,1.1567900244140625
-0.35199109375,0.07825598388671876,0.922082919921875
-0.15382830078125,0.18438009765625,0.771673759765625
-0.1219763671875,0.14124419921875,0.7999369189453125
-0.20245720703125,0.220653466796875,1.10837400390625
-0.28512634765625,0.26893626220703126,1.375276533203125
-0.37581925781250003,0.1628121484375,1.5003717333984374
-0.3651208984375,0.0985984814453125,1.4748120068359376
-0.21364185546875,0.012816865234374999,1.26369849609375
-0.25084296875,-0.06585713134765625,1.0265337255859375
-0.11443888671875,-0.06879821533203125,0.85277673828125
-0.0859909765625,-0.0043394580078125,0.787402822265625
-0.08234380859375,-0.07566074462890625,0.7768348583984375
-0.1414279296875,-0.02370159423828125,0.98843990234375
-0.2386857421875,-0.03742665283203125,1.04939001953125
-0.2503566796875,-0.08693489990234375,1.0004824658203124
-0.09644619140624999,-0.01095689697265625,0.899472392578125
-0.16720125,-0.0063001806640625,0.87931953125
-0.3612305859375,-0.1200220947265625,1.0442289208984374
-0.28318119140625,0.13266603759765624,1.134916796875
-0.21583015625000002,0.1780077490234375,0.9837703369140625
-0.36730919921875,0.15815543212890626,0.931913583984375
-0.18057419921875,0.004973974609375,0.806081083984375
0.028286953125,0.046149150390625,0.9552614111328125
-0.25157240234375,0.104970830078125,1.14671359375
-0.35515197265625,0.046149150390625,0.9464138134765625
-0.25011353515625,0.073599267578125,0.6824604833984375
-0.1210037890625,0.03953171142578125,0.5566279833984376
-0.0256911328125,0.1201664306640625,0.6057813037109375
-0.19832375,0.24001560302734376,0.839996875
-0.4020788671875,0.17678229736328124,1.0865007763671874
-0.45192349609375,0.221633828125,1.050864619140625
-0.28755779296875,0.1407540185546875,0.819844013671875
-0.13778076171875,0.0819323388671875,0.7419360009765625
-0.01815365234375,0.17384121337890626,0.8987350927734374
-0.18543708984375,0.1093824560546875,1.148188193359375
-0.41593810546875,0.16403760009765625,1.40329392578125
-0.4088869140625,0.0142874072265625,1.1985703466796875
-0.2649453515625,0.00325834228515625,0.909303056640625
-0.28391062499999997,-0.116590830078125,0.7753602587890625
-0.174981875,-0.11683592041015625,0.702859111328125
-0.3189234375,-0.0999246875,0.7630719287109375
-0.3388612890625,-0.01561361328125,0.80067421875
-0.30530734375,0.024091020507812498,0.825742412109375
-0.39259623046875003,-0.03914228515625,0.720554306640625
-0.26227076171875,0.0348749951171875,0.7035964111328125
-0.16209521484375,0.00816014892578125,0.588331875
-0.10811712890625,0.0887948681640625,0.7055625439453125
-0.1881116796875,0.08903995849609375,0.86653966796875
-0.44511544921875,0.0564429443359375,1.043983154296875
-0.41156150390625,0.099088662109375,1.159001923828125
-0.34591248046875,0.10374537841796876,0.99237216796875
-0.1832487890625,0.0711483642578125,0.7856824560546875
-0.14993798828125,0.07065818359375,0.687130048828125
-0.21364185546875,0.06306038330078124,0.730384970703125
-0.31235853515625,0.1368325732421875,0.863098935546875
-0.3408064453125,0.0319339111328125,0.9636174755859375
-0.31187224609374997,-0.03497574951171875,1.095594140625
-0.3612305859375,0.11649007568359375,1.1916888818359375
-0.209022109375,0.053992041015625,1.154086591796875
-0.28366748046875,0.1133039013671875,1.047915419921875
-0.3631757421875,0.056933125,0.980083837890625
-0.26324333984375,0.0044837939453125,0.9955671337890625
-0.28220861328125,0.1133039013671875,0.9709904736328125
-0.22677166015625,0.08609887451171874,0.902913125
-0.12513724609375,0.032424091796875,0.839996875
-0.1385101953125,-0.03987755615234375,0.91176072265625
-0.31478998046875,-0.10311086181640625,1.062661416015625
-0.26956509765625,-0.20751934326171875,1.0712632470703125
-0.28318119140625,-0.11781628173828125,1.111323203125
-0.31333111328125,0.0074248779296875,1.119679267578125
-0.24038775390625,-0.02860340087890625,0.8889044287109376
-0.31746457031249997,-0.03644629150390625,0.9798380712890625
-0.35320681640625,-0.02737794921875,0.9965502001953125
-0.25108611328125,-0.02762303955078125,1.049881552734375
-0.24768208984375,0.0770305322265625,1.0196522607421874
-0.20804953125,-0.014633251953124999,0.958456376953125
-0.19662173828125,0.0780108935546875,1.0845346435546874
-0.2347954296875,0.0231106591796875,1.22240970703125
-0.28074974609375003,0.06600146728515625,1.34234380859375
-0.25254498046875,0.087324326171875,1.154578125
-0.317950859375,0.05570767333984375,1.077407412109375
-0.28561263671875,0.05521749267578125,1.0476696533203125
-0.290718671875,-0.00948635498046875,0.9614055761718749
-0.29533841796875,0.026296833496093748,0.9926179345703126
-0.27345541015625,0.0613447509765625,1.034152490234375
-0.26518849609375,0.0069346972656249995,1.0307117578125
-0.15334201171875,0.0544822216796875,1.0766701123046876
-0.2299325390625,0.00865032958984375,1.105916337890625
-0.259596171875,0.07825598388671876,1.1931634814453125
-0.28269490234375,0.12384278564453124,1.1543323583984375
-0.2211793359375,0.03561026611328125,1.0385762890625
-0.22628537109375,0.097127939453125,1.0334151904296875
-0.2279873828125,0.06257020263671875,1.063644482421875
-0.265431640625,0.0289928271484375,0.9872110693359375
-0.27248283203125,0.056933125,1.0250591259765625
-0.1988100390625,0.026541923828125,0.9795923046875
-0.3291355078125,0.075559990234375,1.0162115283203126
-0.21266927734375,0.06158984130859375,0.986965302734375
-0.27685943359375,-0.01095689697265625,0.938303515625
-0.18349193359375,0.103010107421875,0.9660751416015625
-0.2279873828125,0.04590406005859375,1.042017021484375
-0.27199654296875,0.028502646484374998,1.03366095703125
-0.268349375,0.0309535498046875,1.056763017578125
-0.252788125,0.09418685546875,1.1081282373046875
-0.2416034765625,-0.00654527099609375,1.01989802734375
-0.27929087890625,0.02580665283203125,0.95796484375
-0.22750109375,0.0466393310546875,0.9483799462890625
-0.31576255859375,0.02972809814453125,0.9611598095703124
-0.257651015625,-0.0043394580078125,0.9439561474609375
-0.21023783203125002,-0.02713285888671875,0.9874568359375
-0.2853694921875,-0.060710234375,1.02579642578125
-0.25643529296875,-0.0013983740234375002,1.0363643896484376
-0.23260712890625002,0.021640117187500002,0.9931094677734374
-0.20926525390625,-0.04968116943359375,0.976151572265625
-0.24306234375,0.00963069091796875,0.9179048876953125
-0.24476435546875,0.04541387939453125,0.93732044921875
-0.237226875,0.034384814453125,0.98843990234375
-0.284883203125,0.04688442138671875,0.951574912109375
-0.21461443359375,0.10913736572265625,0.9832788037109375
-0.2902323828125,-0.0239466845703125,0.87047193359375
-0.2707808203125,0.07482471923828125,0.8928366943359375
-0.18008791015625,0.0525214990234375,0.8773533984374999
-0.3631757421875,0.0338946337890625,0.9238032861328125
-0.21655958984375,0.0373258984375,0.9717277734375
-0.30360533203125,0.08070688720703124,0.9429730810546875
-0.249870390625,0.05497240234375,0.9520664453125
-0.23649744140625,0.05497240234375,0.9852449365234375
-0.24427806640625,-0.00703545166015625,0.9559987109375
-0.27442798828125,0.011346323242187501,0.97467697265625
-0.23844259765625,0.05913893798828125,0.9596852099609375
-0.33108066406250003,-0.05115171142578125,0.8989808593749999
-0.2523018359375,-0.02419177490234375,0.87637033203125
-0.21972046875,0.048109873046875,0.907336923828125
-0.28755779296875,-0.06781785400390625,0.9385492822265625
-0.24281919921875,-0.0072805419921875,1.01596576171875
-0.34250845703125,-0.0028689160156250004,0.970253173828125
-0.18981369140625,-0.0376717431640625,0.9614055761718749
-0.27880458984375,0.028502646484374998,0.974185439453125
-0.30603677734375,-0.01487834228515625,0.997779033203125
-0.21947732421875,-0.028113220214843748,0.9965502001953125
-0.22044990234375,-0.0009081933593750001,0.981066904296875
-0.22628537109375,-0.04330882080078125,0.977626171875
-0.32013916015625,-0.02468195556640625,0.90586232421875
-0.22190876953125,0.07090327392578125,0.9449392138671875
-0.31989601562500003,-0.02321141357421875,0.9262609521484375
-0.33083751953125,-0.03497574951171875,0.9424815478515625
-0.183735078125,0.0137972265625,0.9729566064453125
-0.31989601562500003,0.008895419921875,1.0024485986328124
-0.290718671875,-0.03889719482421875,1.0442289208984374
-0.1521262890625,0.03217900146484375,0.9587021435546875
-0.25108611328125,-0.04870080810546875,0.93928658203125
-0.282938046875,-0.0180645166015625,0.999745166015625
-0.221665625,0.03904153076171875,1.0098215966796875
-0.20732009765625,-0.00997653564453125,1.0221099267578124
-0.29874244140625,0.0137972265625,1.048406953125
-0.2255559375,0.0191892138671875,1.0024485986328124
-0.252788125,-0.0494360791015625,0.99827056640625
-0.3446967578125,-0.0001729223632812504,0.9596852099609375
-0.15747546875,-0.048455717773437504,0.8889044287109376
-0.2133987109375,-0.036201201171875,0.8928366943359375
-0.24184662109375,-0.00801581298828125,0.9410069482421874
-0.27588685546875,-0.0161037939453125,0.9233117529296875
-0.18543708984375,0.01012087158203125,0.9690243408203125
-0.21315556640625,-0.042328459472656246,0.9936010009765625
-0.28269490234375,0.07433453857421875,1.07691587890625
-0.2912049609375,-0.011201987304687501,1.027271025390625
-0.2639727734375,0.00472888427734375,0.9744312060546875
-0.232363984375,0.0162481298828125,0.9518206787109375
-0.2007551953125,-0.04330882080078125,0.977134638671875
-0.18835482421875,0.010856142578125,1.003677431640625
-0.30360533203125,-0.0161037939453125,0.9857364697265625
-0.18081734375,0.020659755859375,1.015474228515625
-0.32840607421875,0.04835496337890625,0.955507177734375
-0.190543125,-0.061690595703125004,1.0216183935546874
-0.24719580078125,0.034384814453125,1.0216183935546874
-0.25157240234375,-0.00605509033203125,0.9970417333984375
-0.25740787109375,-0.0190448779296875,1.0004824658203124
-0.2488978125,0.05227640869140625,1.003677431640625
-0.28561263671875,0.02752228515625,1.013508095703125
-0.26251390625,0.01698340087890625,0.9709904736328125
-0.237226875,-0.07517056396484376,0.8854636962890625
-0.24914095703125,-0.02468195556640625,0.8775991650390624
-0.20051205078125,-0.01487834228515625,0.9218371533203125
-0.30166017578125,-0.076396015625,0.928964384765625
-0.1754681640625,-0.0092412646484375,0.9677955078125
-0.236254296875,-0.02125069091796875,0.937811982421875
-0.25205869140625,-0.069533486328125,0.9011927587890625
-0.2955815625,-0.05899460205078125,0.843437607421875
-0.2085358203125,-0.06683749267578125,0.818860947265625
-0.24184662109375,-0.037916833496093746,0.7468513330078125
-0.25084296875,-0.02076051025390625,0.789368955078125
-0.19175884765625,-0.09624833251953124,0.9166760546875
-0.26032560546875,0.06796218994140625,0.9768888720703125
-0.26810623046875,-0.00654527099609375,0.9936010009765625
-0.2367405859375,0.08315779052734375,1.06315294921875
-0.245980078125,0.11256863037109376,0.9877026025390625
-0.28609892578125,-0.0406128271484375,0.9542783447265625
-0.27418484375,0.024091020507812498,0.9975332666015625
-0.259596171875,-0.037916833496093746,0.9124980224609375
-0.23455228515625,-0.0327699365234375,0.813945615234375
-0.2581373046875,-0.0249270458984375,0.7473428662109375
-0.221665625,0.02090484619140625,0.873912666015625
-0.2873146484375,-0.05801424072265625,0.9606682763671874
-0.30700935546875,0.06257020263671875,1.0324321240234375
-0.1788721875,0.040266982421875,1.04349162109375
-0.3680386328125,0.00717978759765625,1.014491162109375
-0.24695265625,-0.00801581298828125,0.9714820068359376
-0.13048642578125,0.0505607763671875,1.0014655322265624
-0.33424154296874997,-0.04330882080078125,0.9916348681640625
-0.265431640625,-0.01732924560546875,1.0039231982421875
-0.28318119140625,0.026296833496093748,0.9324051171875
-0.2484115234375,-0.05556333740234375,0.8889044287109376
-0.18640966796875,-0.093062158203125,0.799199619140625
-0.288773515625,-0.014633251953124999,0.6721382861328125
-0.0626491015625,-0.085219267578125,0.59324720703125
-0.10325423828125,-0.1660990771484375,0.6367478955078125
-0.117599765625,-0.100905048828125,0.8225474462890625
-0.2347954296875,-0.05605351806640625,0.9994993994140625
-0.29436583984375,-0.061690595703125004,1.16735798828125
-0.4273658984375,-0.01561361328125,1.2310115380859374
-0.38311359375,0.08462833251953125,1.0226014599609374
-0.25400384765625,0.063795654296875,0.8697346337890625
-0.16185207031249998,0.03512008544921875,0.8087845166015625
-0.08817927734375,0.11256863037109376,0.9206083203125
-0.1103054296875,-0.09183670654296874,0.994829833984375
-0.1141957421875,-0.06928839599609375,1.1990618798828125
-0.34542619140624997,0.1466361865234375,1.3089195507812499
-0.39454138671875,0.02090484619140625,1.1887396826171874
-0.36876806640625,0.0397768017578125,1.1037044384765624
-0.46651216796875,0.07237381591796875,0.9936010009765625
-0.35563826171875,0.057668395996093746,0.99630443359375
-0.24038775390625,0.019679394531249998,0.9734481396484375
-0.2065906640625,0.07482471923828125,1.016457294921875
-0.3427516015625,-0.104826494140625,0.9641090087890625
-0.14410251953125,-0.0425735498046875,0.9872110693359375
-0.34250845703125,0.12384278564453124,1.1100943701171875
-0.41204779296875,-0.059484782714843754,1.0973145068359376
-0.2133987109375,0.053992041015625,1.0516019189453125
-0.360744296875,-0.10948321044921874,1.0029401318359374
-0.2260422265625,-0.01169216796875,1.1002637060546876
-0.28172232421875,0.01845394287109375,1.1238572998046874
-0.41058892578125,-0.010711806640625,1.1204165673828126
-0.30895451171875,0.0003172583007812497,1.0609410498046874
-0.374360390625,0.0133070458984375,0.8717007666015625
-0.36098744140625,0.0623251123046875,0.7016302783203126
-0.1015522265625,-0.036201201171875,0.5723570458984375
-0.02885201171875,0.07286399658203124,0.6588668896484375
-0.2279873828125,-0.0043394580078125,0.8495817724609375
-0.28512634765625,0.0294830078125,1.1744852197265625
-0.479398828125,0.1309504052734375,1.4502353466796876
-0.42809533203125,0.10668646240234375,1.3863360302734375
-0.30311904296875003,0.13413657958984376,1.177680185546875
-0.166228671875,-0.0288484912109375,0.95796484375
-0.15285572265625,-0.0239466845703125,0.9886856689453125
-0.115654609375,0.06796218994140625,1.1489254931640625
-0.2878009375,-0.0612004150390625,1.3484879736328126
-0.32402947265625,-0.05482806640625,1.357581337890625
-0.20026890625,0.050070595703125,1.279919091796875
-0.26761994140625,-0.055073156738281254,1.2467406005859374
-0.22677166015625,0.02752228515625,1.333004677734375
-0.36390517578125,-0.0327699365234375,1.371344267578125
-0.2746711328125,-0.08350363525390625,1.327106279296875
-0.3748466796875,0.013552136230468751,1.20668064453125
-0.30749564453125,0.0397768017578125,1.0174403613281249
-0.19613544921875,-0.01634888427734375,0.8299204443359375
0.013941425781249999,-0.02615249755859375,0.770690693359375
-0.2406308984375,-0.03301502685546875,0.8648193017578125
-0.20148462890625,-0.0817880029296875,1.032186357421875
-0.1944334375,-0.08497417724609375,1.206189111328125
-0.42225986328125,0.0280124658203125,1.1553154248046875
-0.2085358203125,-0.0376717431640625,1.031203291015625
-0.31916658203125,0.05472731201171875,0.983033037109375
-0.24938410156250002,0.02335574951171875,0.9665666748046875
-0.29339326171875,0.05472731201171875,0.9877026025390625
-0.32111173828125,0.01992448486328125,0.947642646484375
-0.11881548828124999,-0.0268877685546875,0.9945840673828125
-0.2707808203125,-0.0239466845703125,1.0216183935546874
-0.255705859375,0.04712951171875,1.0786362451171876
-0.1599069140625,0.0309535498046875,0.9591936767578125
-0.300444453125,0.019679394531249998,0.86064126953125
-0.23844259765625,0.02972809814453125,0.951574912109375
-0.27272597656249997,-0.06585713134765625,0.9528037451171875
-0.2488978125,-0.0018885546875000003,0.9992536328125
-0.26810623046875,-0.02909358154296875,0.89406552734375
-0.2445212109375,-0.0866898095703125,0.819844013671875
-0.2571647265625,-0.03056412353515625,0.8687515673828125
-0.2328502734375,-0.027868129882812502,0.922574453125
-0.29096181640625,-0.11340465576171875,0.981066904296875
-0.28561263671875,0.0020328906249999995,0.9444476806640625
-0.18057419921875,0.0603643896484375,0.8948028271484375
-0.2561921484375,-0.048455717773437504,0.8004284521484375
-0.20975154296875,0.0059543359375,0.831640810546875
-0.205131796875,0.01747358154296875,0.9326508837890625
-0.32305689453124997,-0.012427438964843749,0.978117705078125
-0.29144810546875,0.05619785400390625,0.9795923046875
-0.2644590625,0.02972809814453125,0.8967689599609375
-0.2785614453125,-0.0200252392578125,0.805098017578125
-0.2386857421875,-0.00777072265625,0.8183694140625
-0.23114826171875,0.04786478271484375,0.8594124365234375
-0.21364185546875,-0.0006631030273437505,0.895540126953125
-0.28804408203125,-0.01561361328125,0.94223578125
-0.244034921875,-0.01879978759765625,0.89209939453125
-0.2357680078125,-0.03987755615234375,0.8033776513671875
-0.22361078125,0.04198261474609375,0.76823302734375
-0.22044990234375,-0.0317895751953125,0.765283828125
-0.29047552734375,0.0642858349609375,0.8928366943359375
-0.16063634765625,-0.006790361328125,0.8485987060546875
-0.237226875,-0.0151234326171875,1.0343982568359376
-0.31041337890625,0.1338914892578125,1.0727378466796875
-0.23917203125,-0.03595611083984375,0.99433830078125
-0.232363984375,-0.098944326171875,0.9606682763671874
-0.189570546875,-0.04183827880859375,0.7950215869140624
-0.22142248046875002,0.09492212646484376,0.8338527099609375
-0.23892888671875,-0.0386521044921875,0.9196252539062499
-0.280992890625,-0.0043394580078125,1.06020375
-0.31333111328125,0.07237381591796875,1.08281427734375
-0.28415376953125,0.022620478515625,1.0737209130859375
-0.28464005859375,-0.00997653564453125,0.924049052734375
-0.1637972265625,0.09982393310546875,0.8254966455078125
-0.22968939453125,-0.0523771630859375,0.785436689453125
-0.22093619140625,-0.02737794921875,0.87243806640625
-0.23212083984375,0.097127939453125,0.9685328076171875
-0.214857578125,0.02482629150390625,1.0226014599609374
-0.25497642578125,0.05031568603515625,1.0108046630859375
-0.2561921484375,-0.036201201171875,0.8992266259765624
-0.29193439453125003,-0.012672529296875,0.903404658203125
-0.19321771484375,0.02139502685546875,0.866048134765625
-0.26713365234374997,-0.049926259765625,0.7827332568359375
-0.08355953125,-0.0935523388671875,0.8240220458984375
-0.24379177734375002,-0.09379742919921875,0.8773533984374999
-0.1633109375,-0.03350520751953125,1.0339067236328126
-0.34007701171875,0.04149243408203125,1.1012467724609376
-0.32305689453124997,-0.00507472900390625,1.066593681640625
-0.19224513671875,0.02678701416015625,1.041033955078125
-0.284883203125,0.05178622802734375,0.990897568359375
-0.2299325390625,0.0142874072265625,1.01203349609375
-0.27102396484375,0.05889384765625,0.936828916015625
-0.32597462890625,0.08242251953125,0.912252255859375
-0.15285572265625,0.0123266845703125,0.9007012255859375
-0.2007551953125,0.15815543212890626,1.0756870458984376
-0.43441708984375,0.14492055419921876,1.1287726318359375
-0.41350666015625,-0.03693647216796875,0.9936010009765625
-0.21169669921875,-0.0866898095703125,1.011541962890625
-0.32159802734375,-0.034240478515625,1.060695283203125
-0.31722142578125,-0.08399381591796876,1.0127707958984375
-0.0947441796875,-0.01978014892578125,0.9390408154296875
-0.271267109375,0.00178780029296875,0.846386806640625
-0.3515048046875,0.10423555908203125,0.9596852099609375
-0.1326747265625,0.0613447509765625,1.224867373046875
-0.4156949609375,0.09051050048828126,1.33054701171875
-0.4939875,0.1510478125,1.274020693359375
-0.18106048828125,-0.0072805419921875,1.1076367041015625
-0.358799140625,-0.027868129882812502,1.0245675927734375
-0.2795340234375,-0.077376376953125,1.0127707958984375
-0.2289599609375,-0.1445311279296875,0.9646005419921875
-0.2873146484375,0.0137972265625,0.9056165576171875
-0.15139685546875,-0.01046671630859375,0.92552365234375
-0.29776986328125,-0.0229663232421875,1.014491162109375
-0.2980130078125,0.03168882080078125,1.0511103857421875
-0.2800203125,0.0015427099609375003,0.9685328076171875
-0.3203823046875,-0.01830960693359375,0.914709921875
-0.2143712890625,-0.0464949951171875,1.0019570654296874
-0.2328502734375,-0.10556176513671875,1.0432458544921874
-0.29169125,-0.02321141357421875,1.02579642578125
-0.16598552734375,-0.027868129882812502,1.0044147314453125
-0.24306234375,0.03561026611328125,1.0250591259765625
-0.212912421875,-0.01978014892578125,1.1017383056640626
-0.221665625,0.0368357177734375,1.1469593603515624
-0.35612455078125,0.05570767333984375,1.09657720703125
-0.23139140625,-0.0881603515625,1.008592763671875
-0.08355953125,-0.0567887890625,1.06118681640625
-0.27880458984375,0.089285048828125,1.1538408251953125
-0.3738741015625,-0.09624833251953124,0.9950756005859375
-0.13024328125,-0.10164031982421876,0.935845849609375
-0.24719580078125,-0.010711806640625,0.9144641552734375
-0.422989296875,-0.1788437744140625,0.9783634716796875
-0.21461443359375,-0.11364974609375,1.0009739990234374
-0.22628537109375,-0.18055940673828125,0.931913583984375
-0.27637314453125,-0.11634573974609375,0.98647376953125
-0.2095083984375,-0.01830960693359375,1.0425085546875
-0.23844259765625,0.05080586669921875,1.05233921875
-0.1988100390625,0.10178465576171875,0.9881941357421875
-0.25449013671875,0.065756376953125,1.0049062646484375
-0.174981875,-0.015368522949218751,1.1061621044921874
-0.34737134765625,-0.11095375244140625,1.1683410546875
-0.29485212890625,-0.1043363134765625,1.1209081005859376
-0.28707150390625,-0.12026718505859375,0.97467697265625
-0.26032560546875,-0.0690433056640625,0.9493630126953125
-0.34639876953125,-0.04428918212890625,0.9262609521484375
-0.32840607421875,-0.03938737548828125,0.86359046875
-0.1827625,-0.06144550537109375,0.809030283203125
-0.2075632421875,-0.0925719775390625,0.8058353173828126
-0.22142248046875002,-0.12811007568359375,0.8087845166015625
-0.2114535546875,-0.139139140625,0.807064150390625
-0.22239505859375,-0.1062970361328125,0.8053437841796875
-0.20780638671875,-0.09404251953125001,0.818860947265625
-0.26421591796875,-0.0562986083984375,0.9090572900390625
-0.35077537109375,0.01159141357421875,0.9473968798828125
-0.25740787109375,-0.01487834228515625,0.8815314306640625
-0.2805066015625,0.07041309326171875,0.9085657568359375
-0.31089966796875,0.04124734375,0.9604225097656249
-0.2644590625,-0.030319033203124998,0.9183964208984375
-0.22701480468750002,0.01257177490234375,0.9454307470703125
-0.27005138671875,0.00423870361328125,1.001711298828125
-0.2464663671875,-0.0210056005859375,1.0009739990234374
-0.26956509765625,-0.032279755859375,1.0240760595703124
-0.2668905078125,-0.01144707763671875,0.9955671337890625
-0.2255559375,-0.06585713134765625,0.8977520263671875
-0.24136033203125,-0.0925719775390625,0.843929140625
-0.19029998046875,-0.0141430712890625,0.941744248046875
-0.323786328125,-0.07517056396484376,0.973202373046875
-0.251815546875,-0.07713128662109375,1.032677890625
-0.3155194140625,0.046149150390625,1.0422627880859374
-0.27272597656249997,-0.08227818359375,0.98254150390625
-0.221665625,-0.0151234326171875,0.95894791015625
-0.2124261328125,-0.05164189208984375,0.883743330078125
-0.19613544921875,-0.10458140380859375,0.9179048876953125
-0.2503566796875,-0.02149578125,0.944693447265625
-0.1920019921875,-0.09404251953125001,1.0157199951171876
-0.27272597656249997,0.00791505859375,0.9994993994140625
-0.2824517578125,-0.02223105224609375,0.9520664453125
-0.23795630859375,-0.0023787353515625003,0.9926179345703126
-0.2717533984375,-0.0268877685546875,0.9129895556640625
-0.3111428125,-0.065612041015625,0.913235322265625
-0.2124261328125,-0.0425735498046875,0.9056165576171875
-0.2707808203125,-0.03840701416015625,0.9306847509765624
-0.23017568359375,-0.013652890625,1.04349162109375
-0.29971501953125,0.02874773681640625,1.1066536376953124
-0.3028758984375,-0.012672529296875,1.1091113037109375
-0.27515742187500003,-0.0043394580078125,1.094119541015625
-0.2649453515625,0.0270321044921875,1.061678349609375
-0.2843969140625,-0.048455717773437504,1.0044147314453125
-0.2309051171875,-0.0308092138671875,0.9803296044921875
-0.22944625,-0.0602200537109375,0.9326508837890625
-0.22093619140625,-0.02272123291015625,0.984999169921875
-0.317950859375,0.0162481298828125,1.032677890625
-0.23309341796875,-0.03056412353515625,1.022355693359375
-0.3267040625,-0.0161037939453125,0.9965502001953125
-0.26859251953125,-0.07443529296875,0.9336339501953125
-0.14556138671875,-0.0210056005859375,0.9572275439453125
-0.35515197265625,0.00276816162109375,1.0068723974609375
-0.23357970703125,-0.079337099609375,1.079865078125
-0.300444453125,-0.0121823486328125,1.0417712548828124
-0.23163455078125,-0.0268877685546875,1.0230929931640624
-0.230418828125,-0.0141430712890625,1.007609697265625
-0.23990146484375,-0.0411030078125,0.977134638671875
-0.25692158203125,-0.0308092138671875,0.9872110693359375
-0.2357680078125,-0.0411030078125,0.9528037451171875
-0.27296912109375,-0.04526954345703125,0.9166760546875
-0.3048210546875,0.00791505859375,0.9950756005859375
-0.25157240234375,0.04051207275390625,1.047915419921875
-0.30652306640625,-0.0229663232421875,1.0189149609375
-0.23163455078125,0.0348749951171875,1.0589749169921876
-0.27418484375,-0.03350520751953125,0.9999909326171875
-0.268349375,-0.0935523388671875,0.9346170166015625
-0.23503857421875,-0.06267095703125,0.8780906982421874
-0.23455228515625,-0.07860182861328124,0.9380577490234375
-0.25157240234375,-0.06977857666015624,0.9523122119140625
-0.26956509765625,-0.06536695068359374,0.9481341796875
-0.197351171875,-0.013407800292968751,0.972219306640625
-0.31041337890625,-0.0170841552734375,0.9835245703125
-0.1827625,-0.0229663232421875,1.0275167919921875
-0.23795630859375,-0.0023787353515625003,1.023338759765625
-0.3578265625,0.008895419921875,1.0565172509765626
-0.21972046875,0.0407571630859375,1.0063808642578125
-0.347128203125,0.0074248779296875,0.926998251953125
-0.18470765625,0.04051207275390625,0.9872110693359375
-0.29631099609375,-0.04330882080078125,0.9911433349609375
-0.30166017578125,0.01747358154296875,1.0152284619140626
-0.25497642578125,-0.07173929931640625,0.9429730810546875
-0.2484115234375,0.0035034326171875,0.9773804052734375
-0.20926525390625,-0.060710234375,0.92748978515625
-0.29728357421875,-0.04306373046875,0.93928658203125
-0.27029453125,0.004973974609375,0.983033037109375
-0.23163455078125,-0.048455717773437504,0.94223578125
-0.29242068359375,0.02776737548828125,0.9970417333984375
-0.25838044921875,-0.02737794921875,1.0442289208984374
-0.282938046875,-0.08227818359375,0.9911433349609375
-0.255705859375,0.0476196923828125,0.9734481396484375
-0.28269490234375,-0.06291604736328126,0.9402696484374999
-0.29485212890625,-0.0229663232421875,1.0122792626953125
-0.19346085937500002,0.00619942626953125,1.0098215966796875
-0.24719580078125,0.01649322021484375,1.0181776611328126
-0.24379177734375002,0.01575794921875,0.9835245703125
-0.2591098828125,-0.008996174316406251,0.97369390625
-0.2552195703125,0.01747358154296875,1.00613509765625
-0.26129818359375,-0.006790361328125,0.9614055761718749
-0.230418828125,0.008405239257812499,0.976151572265625
-0.30749564453125,-0.0759058349609375,0.9434646142578125
-0.22531279296875,-0.00458454833984375,0.9326508837890625
-0.20002576171875,0.0878145068359375,0.965337841796875
-0.292663828125,0.03021827880859375,1.0592206835937499
-0.2581373046875,0.019679394531249998,1.078390478515625
-0.26372962890625,0.06158984130859375,1.08084814453125
-0.2416034765625,-0.0200252392578125,1.0614325830078124
-0.2566784375,0.009140510253906251,1.0265337255859375
-0.249870390625,-0.01830960693359375,0.9704989404296875
-0.2347954296875,-0.07173929931640625,0.99040603515625
-0.24622322265625,0.06845237060546874,0.98843990234375
-0.302389609375,-0.14624676025390626,0.9577190771484375
-0.26032560546875,-0.0006631030273437505,1.04742388671875
-0.3077387890625,0.00791505859375,1.0358728564453126
-0.23212083984375,-0.085219267578125,0.9852449365234375
-0.22628537109375,0.024581201171875,0.9606682763671874
-0.25862359375,-0.10801266845703125,0.9115149560546875
-0.23139140625,0.00619942626953125,0.9405154150390624
-0.2027003515625,-0.0268877685546875,0.9405154150390624
-0.24914095703125,0.0037485229492187503,0.9818042041015624
-0.26372962890625,0.00423870361328125,1.0112961962890625
-0.237226875,0.0436982470703125,1.043983154296875
-0.25838044921875,0.0093856005859375,1.04545775390625
-0.30263275390625,-0.03056412353515625,1.0299744580078125
-0.216802734375,-0.0411030078125,0.96681244140625
-0.2955815625,-0.06659240234375,0.955507177734375
-0.35612455078125,-0.01438816162109375,0.9862280029296875
-0.1258666796875,-0.08227818359375,0.9129895556640625
-0.28318119140625,0.00276816162109375,0.9559987109375
-0.2571647265625,-0.01169216796875,1.0796193115234376
-0.27929087890625,0.065756376953125,1.0936280078125
-0.27248283203125,0.0142874072265625,1.044966220703125
-0.296554140625,-0.03522083984375,1.040542421875
-0.2532744140625,0.0059543359375,0.9837703369140625
-0.2065906640625,0.06551128662109375,0.9842618701171875
-0.25449013671875,-0.0043394580078125,0.9016842919921875
-0.2722396875,-0.010221625976562499,0.8485987060546875
-0.21193984375,-0.08619962890625,0.89406552734375
-0.30166017578125,-0.0651218603515625,0.955507177734375
-0.27442798828125,-0.044534272460937496,0.97369390625
-0.27418484375,-0.112669384765625,0.932896650390625
-0.288773515625,-0.10507158447265624,0.8618701025390625
-0.13510617187500001,-0.0425735498046875,0.8751414990234375
-0.3048210546875,-0.023456503906250002,0.9419900146484375
-0.26251390625,0.06355056396484375,1.0683140478515625
-0.213885,0.05668803466796875,0.974185439453125
-0.25594900390624997,-0.032279755859375,0.964354775390625
-0.18884111328125,-0.0332601171875,1.003677431640625
-0.31381740234375,-0.06830803466796875,1.03169482421875
-0.265431640625,-0.07566074462890625,0.9916348681640625
-0.2775888671875,-0.013162709960937501,0.9655836083984375
-0.25692158203125,0.03168882080078125,0.9714820068359376
-0.236254296875,-0.01561361328125,0.96877857421875
-0.302389609375,0.07335417724609375,1.036118623046875
-0.290718671875,0.009140510253906251,0.9886856689453125
-0.20342978515625,-0.09845414550781251,0.94223578125
-0.24427806640625,-0.01978014892578125,0.9847534033203125
-0.29874244140625,-0.0729647509765625,0.8918536279296875
-0.10811712890625,-0.1719812451171875,0.83213234375
-0.1141957421875,0.0535018603515625,0.944693447265625
-0.41593810546875,-0.04330882080078125,1.00220283203125
-0.18300564453125,-0.10727739746093751,1.020389560546875
-0.23503857421875,0.0407571630859375,0.9272440185546875
-0.304334765625,-0.059729873046875,0.902913125
-0.18300564453125,-0.0504164404296875,0.903404658203125
-0.23698373046875,0.0172284912109375,0.871946533203125
-0.28269490234375,-0.01438816162109375,1.00515203125
-0.26275705078125,0.06281529296875,1.0363643896484376
-0.189570546875,-0.01781942626953125,0.9931094677734374
-0.1477496875,0.01551285888671875,0.9638632421875
-0.2552195703125,0.0623251123046875,0.9316678173828125
-0.24184662109375,-0.052867343750000004,0.90782845703125
-0.18592337890625,-0.0033590966796874996,0.9729566064453125
-0.29776986328125,-0.028113220214843748,1.0073639306640625
-0.2581373046875,0.021885207519531248,1.0184234277343749
-0.2411171875,0.0250713818359375,0.9881941357421875
-0.286828359375,-0.012672529296875,0.9709904736328125
-0.33035123046875,-0.0219859619140625,1.00416896484375
-0.2795340234375,0.0044837939453125,1.0191607275390624
-0.30311904296875003,-0.02615249755859375,0.9011927587890625
-0.1482359765625,-0.09232688720703125,0.8734211328125
-0.18640966796875,-0.083258544921875,0.8333611767578125
-0.17668388671875,-0.0200252392578125,0.8864467626953125
-0.25983931640625,-0.08546435791015625,1.0184234277343749
-0.282938046875,-0.03644629150390625,1.1395863623046876
-0.37314466796875,0.079481435546875,1.0963314404296876
-0.26713365234374997,-0.0567887890625,1.005643564453125
-0.2153438671875,0.0750698095703125,1.0063808642578125
-0.33642984375,0.01600303955078125,1.0186691943359376
-0.27515742187500003,-0.0371815625,1.0481611865234375
-0.32500205078125,-0.0881603515625,1.1523662255859375
-0.2805066015625,-0.0249270458984375,1.0747039794921875
-0.20415921875,-0.06659240234375,0.9614055761718749
-0.2085358203125,-0.0055649096679687505,1.0653648486328124
-0.28269490234375,0.02335574951171875,1.1626884228515626
-0.23406599609375,-0.0651218603515625,1.1808751513671876
-0.21072412109375,0.06109966064453125,1.1720275537109375
-0.45775896484375,-0.04306373046875,1.00416896484375
-0.1530988671875,-0.093062158203125,1.081339677734375
-0.2678630859375,-0.07909200927734375,1.0582376171875
-0.2955815625,-0.1273748046875,0.9877026025390625
-0.201241484375,-0.09918941650390625,0.9166760546875
-0.244034921875,-0.12467881103515625,0.8166490478515624
-0.2182616015625,-0.10556176513671875,0.796250419921875
-0.16647181640625,-0.0680629443359375,0.8952943603515625
-0.2561921484375,-0.00458454833984375,1.0751955126953125
-0.3126016796875,0.04933532470703125,1.132459130859375
-0.25254498046875,0.0172284912109375,0.9872110693359375
-0.22944625,0.021885207519531248,0.9599309765625
-0.24281919921875,0.0289928271484375,0.9324051171875
-0.19419029296875,-0.026397587890625,1.05233921875
-0.294608984375,0.07629526123046874,1.200290712890625
-0.33667298828125003,0.0069346972656249995,1.1582646240234376
-0.32937865234375,0.03928662109375,1.02776255859375
-0.2805066015625,-0.05850442138671875,0.8245135791015625
-0.1365650390625,-0.11732610107421874,0.84491220703125
-0.22823052734375,-0.040122646484374996,0.980083837890625
-0.29582470703125,-0.06389640869140625,1.078390478515625
-0.2688356640625,-0.0347306591796875,1.1223827001953124
-0.1978374609375,-0.03987755615234375,1.1356540966796875
-0.226528515625,-0.0729647509765625,1.1504000927734375
-0.28512634765625,0.09296140380859375,1.1680952880859374
-0.25546271484375,-0.00409436767578125,0.99433830078125
-0.2347954296875,-0.1759026904296875,0.906353857421875
-0.203186640625,-0.0004180126953125,0.8446664404296875
-0.20877896484375,-0.1357078759765625,0.779538291015625
-0.047574140625,-0.15703073486328126,0.8205813134765625
-0.08963814453125,-0.13399224365234375,0.94911724609375
-0.27053767578125,-0.0621807763671875,1.0422627880859374
-0.27151025390625,-0.08619962890625,1.0717547802734375
-0.24865466796875,0.018699033203125,1.039067822265625
-0.24573693359375,0.0270321044921875,1.0289913916015625
-0.29193439453125003,-0.0876701708984375,1.1061621044921874
-0.22093619140625,0.04345315673828125,1.105916337890625
-0.28196546875,0.01649322021484375,0.9400238818359374
-0.19953947265625,-0.0641414990234375,0.9223286865234375
-0.3116291015625,0.06698182861328125,0.9385492822265625
-0.26129818359375,0.00178780029296875,0.965829375
-0.24695265625,0.0211499365234375,0.9901602685546875
-0.17376615234375,0.0451687890625,0.989914501953125
-0.24184662109375,-0.04330882080078125,1.0857634765625
-0.237226875,-0.0396324658203125,1.1951296142578125
-0.2707808203125,0.08242251953125,1.2192147412109375
-0.38092529296875,0.02041466552734375,1.1400778955078126
-0.249870390625,0.018699033203125,1.088221142578125
-0.3072525,-0.01585870361328125,1.028254091796875
-0.245980078125,-0.09771887451171875,1.014491162109375
-0.22044990234375,-0.05850442138671875,1.04545775390625
-0.3563676953125,-0.11683592041015625,1.048898486328125
-0.26154132812499997,-0.08448399658203125,1.166866455078125
-0.1375376171875,-0.083258544921875,1.0857634765625
-0.2299325390625,-0.06928839599609375,0.986965302734375
-0.3427516015625,-0.1121792041015625,0.8653108349609375
-0.29752671875000003,-0.19085320068359374,0.727435771484375
-0.09498732421875,-0.18595139404296876,0.572111279296875
-0.03760521484375,-0.14502130859375,0.5625263818359375
-0.12659611328125,-0.181294677734375,0.709740576171875
-0.27102396484375,-0.09673851318359375,0.9159387548828125
-0.38505875,0.016738310546875,1.0953483740234375
-0.44511544921875,0.0059543359375,1.0982975732421876
-0.2853694921875,0.0584036669921875,0.9577190771484375
-0.11784291015625001,0.16550814208984374,0.8731753662109375
-0.18227621093750002,0.08609887451171874,0.91176072265625
-0.228473671875,0.0103659619140625,1.0024485986328124
-0.09061072265625,-0.03914228515625,0.9626344091796875
-0.089395,0.0309535498046875,0.9513291455078126
-0.1696326953125,0.02041466552734375,1.0226014599609374
-0.19613544921875,0.00766996826171875,1.158018857421875
-0.2639727734375,0.0407571630859375,1.30498728515625
-0.31673513671875,0.0005623486328125002,1.3239113134765625
-0.310170234375,0.00178780029296875,1.2206893408203126
-0.2620276171875,-0.0082609033203125,1.0464408203125
-0.2309051171875,-0.0641414990234375,0.9690243408203125
-0.28901666015625,-0.0690433056640625,1.00416896484375
-0.2746711328125,-0.08693489990234375,1.129509931640625
-0.2843969140625,-0.110708662109375,1.19488384765625
-0.23698373046875,-0.05703387939453125,1.158510390625
-0.12610982421875,-0.037916833496093746,1.1211538671875
-0.170118984375,-0.049926259765625,1.0565172509765626
-0.16015005859375,-0.0955130615234375,1.0968229736328126
-0.2873146484375,-0.1430605859375,1.0879753759765625
-0.25546271484375,-0.16487362548828124,0.9827872705078124
-0.25643529296875,-0.1033559521484375,0.816894814453125
-0.174009296875,-0.120512275390625,0.624213798828125
-0.1725504296875,-0.2033528076171875,0.592755673828125
-0.27540056640625,-0.1131595654296875,0.623722265625
-0.18057419921875,-0.03987755615234375,0.6217561328125
-0.177899609375,0.0103659619140625,0.71907970703125
-0.24622322265625,0.044188427734375,0.8495817724609375
-0.224583359375,0.0451687890625,0.9188879541015624
-0.14361623046875,0.050070595703125,1.0791277783203126
-0.24281919921875,0.17825283935546876,1.1880023828125
-0.2240970703125,0.110852998046875,1.1081282373046875
-0.1929745703125,0.03364954345703125,1.0638902490234374
-0.25789416015625,0.05717821533203125,1.0857634765625
-0.26907880859375,-0.15678564453125,0.9881941357421875
-0.21899103515625,-0.100905048828125,0.8340984765625
-0.17133470703125,-0.0317895751953125,0.744147900390625
-0.1346198828125,-0.09845414550781251,0.7802755908203125
-0.23406599609375,-0.05899460205078125,0.934862783203125
-0.24573693359375,0.07041309326171875,1.1722733203125
-0.3359435546875,0.0417375244140625,1.325140146484375
-0.38530189453125,0.04786478271484375,1.276969892578125
-0.2488978125,0.13805802490234376,1.2108586767578124
-0.252788125,0.06698182861328125,1.0801108447265624
-0.214857578125,0.02335574951171875,1.0732293798828125
-0.27685943359375,0.07580508056640625,1.109848603515625
-0.20051205078125,-0.0945327001953125,1.1115689697265625
-0.30700935546875,-0.025662316894531252,1.0776531787109376
-0.22361078125,-0.14330567626953125,0.9837703369140625
-0.16987583984375,-0.15457983154296875,0.8707177001953125
-0.11881548828124999,-0.0700236669921875,0.7807671240234375
-0.252788125,-0.1896277490234375,0.8495817724609375
-0.22823052734375,-0.2239403955078125,0.8259881787109375
-0.2454937890625,-0.16144236083984376,0.8638362353515625
-0.2435486328125,-0.10801266845703125,0.9872110693359375
-0.29485212890625,-0.0553182470703125,1.1076367041015625
-0.42955419921875,-0.01487834228515625,1.035135556640625
-0.36341888671875,0.01257177490234375,0.873912666015625
-0.2406308984375,-0.01781942626953125,0.66796025390625
-0.12513724609375,-0.00777072265625,0.601603271484375
0.01685916015625,0.067717099609375,0.7625803955078125
-0.05559791015625,0.05105095703125,1.05725455078125
-0.35588140625,0.06673673828125,1.3130975830078124
-0.31187224609374997,0.03855135009765625,1.314326416015625
-0.22482650390625,-0.05213207275390625,1.1852989501953124
-0.26372962890625,0.04345315673828125,1.106899404296875
-0.2800203125,-0.05874951171875,0.9631259423828125
-0.2202067578125,-0.0376717431640625,0.8741584326171875
-0.2785614453125,-0.0092412646484375,0.80853875
-0.27442798828125,-0.0386521044921875,0.7439021337890624
-0.26154132812499997,-0.08619962890625,0.7478343994140625
-0.109819140625,0.026051743164062502,0.9238032861328125
-0.2377131640625,0.0064445166015625,1.0543053515625
-0.2639727734375,0.104970830078125,1.0167030615234376
-0.0388209375,-0.0376717431640625,0.9872110693359375
-0.14750654296875,0.04786478271484375,1.1204165673828126
-0.25400384765625,-0.0259074072265625,1.256325498046875
-0.23747001953125,0.00987578125,1.3602847705078125
-0.33764556640625,-0.030073942871093752,1.282868291015625
-0.45435494140625,0.02286556884765625,1.1189419677734376
-0.41593810546875,-0.00605509033203125,0.902913125
-0.21510072265625,-0.14109986328125,0.707774443359375
-0.1657423828125,-0.1195319140625,0.682214716796875
-0.21655958984375,-0.15605037353515624,0.7473428662109375
-0.15625974609374998,-0.11144393310546875,0.7842078564453125
-0.213885,-0.09918941650390625,0.7790467578125
-0.216802734375,-0.01169216796875,0.9375662158203125
-0.14118478515625,-0.02615249755859375,0.9621428759765625
-0.107873984375,0.17776265869140626,1.070525947265625
-0.2450075,0.25079957763671873,1.25780009765625
-0.34810078125,0.00178780029296875,1.2659103955078126
-0.2357680078125,0.05497240234375,1.21257904296875
-0.304334765625,0.11207844970703125,1.0570087841796876
-0.226528515625,-0.00409436767578125,0.9306847509765624
-0.25400384765625,0.0182088525390625,0.8891501953125
-0.16841697265625,-0.01193725830078125,0.9397781152343749
-0.22920310546875,0.00717978759765625,1.0346440234375
-0.24719580078125,-0.06193568603515625,1.08674654296875
-0.23503857421875,-0.1033559521484375,1.0599579833984376
-0.237226875,-0.00605509033203125,0.9520664453125
-0.28561263671875,-0.0332601171875,0.80755568359375
-0.14993798828125,-0.025662316894531252,0.7915808544921875
-0.31235853515625,0.048109873046875,0.863098935546875
-0.23601115234375,0.0201695751953125,0.9414984814453125
-0.27929087890625,0.00619942626953125,1.0039231982421875
-0.377278125,-0.04036773681640625,0.9783634716796875
-0.2318776953125,-0.0151234326171875,0.9822957373046874
-0.27685943359375,-0.09036616455078125,0.8756330322265625
-0.14847912109375,-0.091101435546875,0.8122252490234375
-0.1530988671875,0.009140510253906251,0.81935248046875
-0.12756869140625,-0.089140712890625,0.8923451611328125
-0.20683380859375,-0.05801424072265625,1.00613509765625
-0.2912049609375,-0.0376717431640625,1.0575003173828126
-0.27029453125,-0.026397587890625,1.0648733154296874
-0.29728357421875,-0.059484782714843754,0.8962774267578125
-0.37071322265625,-0.01169216796875,0.7328426367187499
-0.27613,-0.12320826904296875,0.61487466796875
-0.10325423828125,-0.12860025634765626,0.6709094531249999
-0.3553951171875,-0.018554697265625,0.8186151806640625
-0.1851939453125,-0.0729647509765625,0.834590009765625
-0.19248828125,-0.0097314453125,0.88423486328125
-0.26178447265625,0.07433453857421875,0.9061080908203125
-0.16695810546875,-0.014633251953124999,0.83213234375
-0.098148203125,0.0294830078125,0.840488408203125
-0.17230728515625,0.055462583007812497,0.9501003125
-0.3339983984375,-0.04821062744140625,1.0501273193359375
-0.292663828125,0.0201695751953125,1.0997721728515626
-0.21072412109375,0.01404231689453125,1.0638902490234374
-0.39356880859375,0.0544822216796875,1.095102607421875
-0.392839375,0.02090484619140625,1.0324321240234375
-0.27734572265625,0.02335574951171875,1.021372626953125
-0.27685943359375,-0.0386521044921875,0.9852449365234375
-0.368524921875,-0.0631611376953125,1.0284998583984375
-0.057543066406249996,-0.0646316796875,1.076424345703125
-0.30871136718750003,-0.09330724853515625,1.1071451708984374
-0.329621796875,-0.08227818359375,1.0936280078125
-0.2912049609375,-0.034240478515625,1.056763017578125
-0.3126016796875,-0.1004148681640625,1.015474228515625
-0.28074974609375003,-0.065612041015625,1.029237158203125
-0.244034921875,-0.104826494140625,0.9921264013671875
-0.30457791015625,-0.1043363134765625,0.995812900390625
-0.34153587890625,-0.08889562255859375,1.0078554638671875
-0.32086859375,-0.04698517578125,0.920116787109375
-0.36463460937500003,-0.036201201171875,0.95304951171875
-0.26567478515625,-0.02321141357421875,1.035135556640625
-0.32354318359375,-0.1111988427734375,1.03169482421875
-0.292663828125,-0.05899460205078125,1.078390478515625
-0.21023783203125002,-0.02713285888671875,1.05135615234375
-0.3072525,-0.10311086181640625,1.01006736328125
-0.19564916015625,0.016738310546875,1.095102607421875
-0.298499296875,-0.07271966064453125,1.1302472314453125
-0.36828177734375,-0.10115013916015625,1.1145181689453125
-0.2766162890625,-0.0798272802734375,0.9827872705078124
-0.25497642578125,-0.11438501708984375,0.9159387548828125
-0.32111173828125,-0.07909200927734375,0.9724650732421874
-0.360744296875,-0.0999246875,1.048406953125
-0.2630001953125,-0.0175743359375,1.089204208984375
-0.3155194140625,-0.0690433056640625,1.009575830078125
-0.28853037109375,-0.0504164404296875,0.93928658203125
-0.13340416015625,0.0250713818359375,0.932896650390625
-0.27053767578125,-0.02664267822265625,1.0260421923828125
-0.17765646484375,-0.07958218994140626,1.223884306640625
-0.294608984375,-0.04036773681640625,1.341852275390625
-0.29728357421875,-0.030319033203124998,1.3413607421875
-0.25789416015625,-0.07615092529296875,1.14966279296875
-0.25789416015625,-0.0788469189453125,1.0078554638671875
-0.29971501953125,-0.06659240234375,1.0127707958984375
-0.23795630859375,-0.12663953369140624,1.0230929931640624
-0.25935302734375,-0.1317864306640625,1.0857634765625
-0.253760703125,-0.1347275146484375,1.0860092431640624
-0.23406599609375,-0.123453359375,1.04349162109375
-0.26275705078125,-0.08644471923828125,1.062661416015625
-0.28998923828125,-0.04281864013671875,1.03661015625
-0.30068759765624997,-0.04968116943359375,1.013508095703125
-0.221665625,-0.10115013916015625,0.9631259423828125
-0.20051205078125,-0.07468038330078125,0.8874298291015625
-0.06289224609374999,-0.108747939453125,0.8874298291015625
-0.21558701171875,-0.05311243408203125,1.0176861279296876
-0.3155194140625,0.008895419921875,1.1209081005859376
-0.23601115234375,-0.0001729223632812504,1.1135351025390625
-0.316005703125,0.0633054736328125,1.1272980322265624
-0.31235853515625,0.0686974609375,1.0820769775390624
-0.27977716796875,0.0030132519531249997,0.984999169921875
-0.37119951171875,0.05276658935546875,0.936828916015625
-0.14799283203125,-0.07419020263671874,0.893573994140625
-0.17522501953125,-0.0729647509765625,0.9975332666015625
-0.36293259765625,-0.12271808837890624,1.1014925390624999
-0.2104809765625,-0.0533575244140625,1.1695698876953124
-0.27783201171875,0.04884514404296875,1.0149826953125
-0.32937865234375,-0.0562986083984375,0.83114927734375
-0.156502890625,-0.0494360791015625,0.84884447265625
-0.2231244921875,0.009140510253906251,0.9473968798828125
-0.31381740234375,-0.05458297607421875,1.09461107421875
-0.304334765625,0.03144373046875,1.168832587890625
-0.32475890625,-0.071494208984375,1.00515203125
-0.2989855859375,-0.0651218603515625,0.9262609521484375
-0.267376796875,-0.0043394580078125,0.859658203125
-0.2124261328125,-0.0866898095703125,0.8446664404296875
-0.27029453125,-0.0808076416015625,0.8299204443359375
-0.22774423828125,-0.08546435791015625,0.8102591162109375
-0.24695265625,-0.0651218603515625,0.829674677734375
-0.257651015625,-0.0396324658203125,0.8299204443359375
-0.1521262890625,-0.03595611083984375,0.8992266259765624
-0.185680234375,-0.03105430419921875,0.98057537109375
-0.34883021484375,-0.03693647216796875,1.0425085546875
-0.2450075,-0.02027032958984375,0.97664310546875
-0.3437241796875,-0.04036773681640625,0.8368019091796874
-0.2386857421875,-0.044534272460937496,0.764792294921875
-0.24476435546875,-0.0494360791015625,0.8328696435546875
-0.25059982421875,-0.05703387939453125,0.91176072265625
-0.2065906640625,-0.047965537109375,0.9913891015625
-0.31965287109375,-0.0038492773437499997,1.0255506591796875
-0.21850474609375,-0.02321141357421875,1.0304659912109375
