ax,ay,az
-0.38432931640625,0.1466361865234375,1.283851357421875
-0.3388612890625,0.04124734375,1.0098215966796875
-0.1180860546875,-0.06487677001953125,0.871455
-0.19905318359375002,-0.0768861962890625,0.695977646484375
-0.06143337890625,-0.09771887451171875,0.7488174658203125
-0.25011353515625,-0.1866866650390625,0.95501564453125
-0.47332021484375,-0.05801424072265625,1.1447474609375
-0.574711484375,-0.0121823486328125,1.1449932275390624
-0.38676076171875,-0.01683906494140625,1.078390478515625
-0.44268400390625,-0.12614935302734376,0.95108337890625
-0.2153438671875,-0.0317895751953125,0.7611057958984375
-0.22968939453125,-0.20310771728515625,0.7758517919921875
-0.32864921874999997,-0.21193096923828125,0.7360376025390625
-0.111764296875,-0.16487362548828124,0.65223119140625
-0.21801845703125,0.01257177490234375,0.572111279296875
-0.13000013671875,-0.0366913818359375,0.4794572705078125
-0.09425789062500001,-0.14771730224609375,0.405973056640625
-0.08234380859375,-0.18104958740234375,0.6220018994140625
-0.24938410156250002,0.00668960693359375,0.9867195361328125
-0.3189234375,0.00816014892578125,1.2157740087890625
-0.5343494921875,-0.00409436767578125,1.3386573095703125
-0.43247193359375,0.1966346142578125,1.1592476904296876
-0.36682291015625,-0.029338671875,1.0481611865234375
-0.13413359375,-0.11732610107421874,1.2590289306640625
-0.4507077734375,0.061834931640625,1.3750307666015624
-0.174981875,-0.23349891845703125,0.9154472216796875
0.07959044921875,-0.091101435546875,0.7876485888671875
0.1338116796875,-0.1455114892578125,0.9994993994140625
-0.0558410546875,-0.0317895751953125,1.3219451806640625
-0.4900971875,0.1407540185546875,1.446057314453125
-0.58419412109375,0.161831787109375,1.436226650390625
-0.46942990234375,0.14933218017578126,1.0933822412109375
-0.2104809765625,0.0878145068359375,0.8159117480468749
-0.32889236328125,0.134381669921875,0.7016302783203126
-0.25935302734375,0.0035034326171875,0.714164375
-0.2488978125,-0.03522083984375,1.01596576171875
-0.360744296875,-0.138158779296875,1.1427813281249999
-0.18786853515625002,-0.0504164404296875,1.2698426611328124
-0.18397822265625,0.0231106591796875,1.1014925390624999
0.04895423828125,-0.0906112548828125,0.9508376123046876
-0.090367578125,-0.0396324658203125,0.97271083984375
-0.32889236328125,-0.12811007568359375,1.09264494140625
-0.473563359375,-0.15163874755859374,1.1528577587890625
-0.4526529296875,-0.27124282958984375,1.090187275390625
-0.45386865234375,-0.1082577587890625,0.8498275390625
-0.218747890625,-0.05850442138671875,0.6650110546875
-0.20002576171875,-0.023456503906250002,0.58931494140625
-0.22288134765625,-0.12909043701171874,0.676316318359375
-0.27442798828125,-0.15359947021484374,1.024321826171875
-0.174009296875,0.0255615625,1.25976623046875
-0.38676076171875,0.11305881103515625,1.3942005615234374
-0.142886796875,-0.00777072265625,1.0855177099609374
-0.13097271484375,0.08119706787109375,0.884726396484375
-0.34542619140624997,0.09639266845703125,0.7630719287109375
-0.271267109375,0.0299731884765625,0.762826162109375
-0.3505322265625,0.03757098876953125,0.768724560546875
-0.14750654296875,0.0231106591796875,0.832623876953125
-0.26616107421875,-0.1131595654296875,0.8812856640625
-0.1375376171875,-0.05311243408203125,0.9704989404296875
-0.4225030078125,-0.037916833496093746,0.9788550048828125
-0.1229489453125,-0.0332601171875,0.935845849609375
-0.3466419140625,0.0456589697265625,0.9921264013671875
-0.14847912109375,-0.154824921875,1.1739936865234375
-0.28804408203125,-0.08252327392578125,1.2664019287109376
-0.1530988671875,0.05105095703125,1.1425355615234376
-0.23917203125,-0.13742350830078126,0.862115869140625
-0.1560166015625,-0.19918627197265626,0.77216529296875
-0.34202216796875,-0.11144393310546875,0.66796025390625
-0.19953947265625,0.089285048828125,0.6863927490234375
-0.08915185546875,0.093206494140625,0.8053437841796875
-0.29509527343749997,0.021885207519531248,0.9778719384765625
-0.15334201171875,-0.1131595654296875,0.988931435546875
-0.17473873046875,-0.153844560546875,0.8171405810546875
-0.06726884765625,-0.09232688720703125,0.7554531640625
-0.158448046875,0.0103659619140625,0.8225474462890625
-0.2192341796875,0.00717978759765625,0.920116787109375
-0.32208431640625,0.06894255126953125,1.091661875
-0.21558701171875,0.021640117187500002,1.1172216015625
-0.28074974609375003,-0.0406128271484375,0.9552614111328125
-0.1414279296875,0.1378129345703125,0.9473968798828125
-0.296554140625,0.01747358154296875,0.9385492822265625
-0.28755779296875,0.1064413720703125,0.859658203125
-0.36341888671875,0.06453092529296875,0.7672499609375
-0.154557734375,-0.14673694091796874,0.770690693359375
-0.22385392578125,-0.06977857666015624,0.6770536181640625
-0.174981875,-0.0063001806640625,0.61979
-0.10763083984374999,-0.07958218994140626,0.603569404296875
-0.22944625,-0.07026875732421875,0.938303515625
-0.31089966796875,-0.0646316796875,1.27942755859375
-0.452166640625,0.057668395996093746,1.4826765380859375
-0.49885039062500003,0.08266760986328126,1.3027753857421875
-0.38481560546875,0.036345537109375,0.97664310546875
-0.10519939453125,0.0309535498046875,0.7650380615234375
-0.13413359375,-0.0347306591796875,0.789368955078125
-0.19662173828125,-0.0239466845703125,1.021372626953125
-0.26154132812499997,-0.018554697265625,1.19095158203125
-0.3933256640625,-0.075415654296875,1.0130165625
-0.32889236328125,-0.08791526123046875,0.7596311962890625
-0.230418828125,-0.1195319140625,0.5875945751953124
-0.236254296875,-0.079337099609375,0.5192714599609375
-0.22288134765625,-0.08791526123046875,0.5526957177734375
-0.2202067578125,-0.06046514404296875,0.6883588818359375
-0.28366748046875,-0.02762303955078125,0.781504423828125
-0.22944625,-0.077376376953125,0.7846993896484376
-0.31138595703125,-0.0082609033203125,0.8144371484375
-0.18251935546875,0.044188427734375,0.8540055712890625
-0.222638203125,-0.10262068115234375,0.9650920751953125
-0.21655958984375,-0.11781628173828125,1.15359505859375
-0.23163455078125,-0.183255400390625,1.0206353271484374
-0.2425760546875,0.0427178857421875,0.820827080078125
-0.0597313671875,-0.022476142578125,0.8655566015625
-0.2357680078125,-0.008996174316406251,1.1037044384765624
-0.2746711328125,-0.030319033203124998,1.2993346533203125
-0.3962433984375,-0.0332601171875,1.3905140625
-0.3592854296875,0.0201695751953125,1.3101483837890624
-0.28901666015625,-0.09526797119140624,0.9641090087890625
-0.3500459375,-0.09526797119140624,0.8717007666015625
-0.19905318359375002,-0.0327699365234375,0.9815584374999999
-0.36585033203125,0.02678701416015625,1.2034856787109376
-0.44924890625,-0.0371815625,1.189968515625
-0.28464005859375,0.10815700439453126,1.135408330078125
-0.2484115234375,-0.00948635498046875,0.8436833740234375
-0.057543066406249996,-0.05997496337890625,0.8009199853515625
-0.05851564453125,0.055462583007812497,0.9518206787109375
-0.30603677734375,-0.1053166748046875,1.1789090185546875
-0.3189234375,-0.0935523388671875,1.2801648583984375
-0.4263933203125,-0.2062938916015625,1.140323662109375
-0.4020788671875,-0.1729616064453125,0.9208540869140625
-0.24938410156250002,-0.17369687744140624,0.7920723876953125
-0.298499296875,-0.057278969726562504,0.84687833984375
-0.24719580078125,-0.01169216796875,1.0820769775390624
-0.26713365234374997,0.0201695751953125,1.37970033203125
-0.29169125,0.022620478515625,1.4261502197265625
-0.13097271484375,0.0191892138671875,1.2895039892578124
-0.17619759765625,-0.02223105224609375,1.04349162109375
-0.1764407421875,0.0711483642578125,1.027271025390625
-0.23114826171875,0.01649322021484375,1.1528577587890625
-0.32013916015625,0.01747358154296875,1.333004677734375
-0.4390368359375,-0.0006631030273437505,1.34824220703125
-0.32937865234375,-0.038161923828125,1.02972869140625
-0.2279873828125,-0.0288484912109375,0.906845390625
-0.26761994140625,0.01404231689453125,0.9513291455078126
-0.2221519140625,0.032424091796875,0.9596852099609375
-0.1346198828125,0.15080272216796875,0.889641728515625
-0.2425760546875,0.0329142724609375,0.94223578125
-0.181789921875,-0.01953505859375,1.1892312158203124
-0.19662173828125,-0.10065995849609374,1.2487067333984374
-0.38043900390625,-0.08350363525390625,1.402802392578125
-0.282938046875,-0.07026875732421875,1.259274697265625
-0.41156150390625,-0.0817880029296875,1.0368559228515626
-0.2309051171875,0.0417375244140625,0.906845390625
-0.30263275390625,-0.011201987304687501,0.7822417236328125
-0.15577345703125,-0.11928682373046876,0.7768348583984375
-0.18227621093750002,-0.046740085449218746,0.8952943603515625
-0.26056875,-0.0631611376953125,0.9950756005859375
-0.22677166015625,-0.03914228515625,1.1046875048828124
-0.22239505859375,-0.0680629443359375,1.10444173828125
-0.317950859375,0.0035034326171875,1.056271484375
-0.26421591796875,-0.04870080810546875,1.005643564453125
-0.35393625,-0.0592396923828125,0.95894791015625
-0.22361078125,0.0731090869140625,0.8618701025390625
-0.2503566796875,0.01649322021484375,0.686638515625
-0.21266927734375,-0.006790361328125,0.684180849609375
-0.2707808203125,0.02531647216796875,0.760860029296875
-0.2484115234375,-0.00703545166015625,0.8299204443359375
-0.2668905078125,-0.05899460205078125,0.9127437890625
-0.28172232421875,-0.0651218603515625,0.9272440185546875
-0.20975154296875,-0.0298288525390625,0.845403740234375
-0.2824517578125,-0.077376376953125,0.78199595703125
-0.25643529296875,-0.03350520751953125,0.8112421826171875
-0.19127255859375,0.00472888427734375,0.907336923828125
-0.3106565234375,-0.0268877685546875,0.97664310546875
-0.29679728515625,-0.01732924560546875,0.9488714794921875
-0.21121041015625,0.0211499365234375,0.7955131201171874
-0.18592337890625,-0.1611972705078125,0.7006472119140625
-0.2036729296875,-0.076396015625,0.83213234375
-0.249870390625,-0.13840386962890625,0.9559987109375
-0.26032560546875,-0.05654369873046875,1.0267794921875
-0.36633662109375,0.0201695751953125,0.9405154150390624
-0.41812640624999997,-0.01683906494140625,0.8004284521484375
-0.14629082031250001,-0.01683906494140625,0.78396208984375
-0.20099833984375,0.05227640869140625,0.8984893261718749
-0.284883203125,-0.013652890625,1.0098215966796875
-0.21899103515625,-0.02174087158203125,1.1017383056640626
-0.33813185546875,0.01012087158203125,1.167849521484375
-0.3894353515625,0.04982550537109375,1.09952640625
-0.23212083984375,0.10129447509765625,0.923065986328125
-0.32500205078125,0.06747200927734374,0.872929599609375
-0.36925435546875,0.01257177490234375,0.902421591796875
-0.20002576171875,-0.04575972412109375,0.862115869140625
-0.19127255859375,-0.1641383544921875,0.8058353173828126
-0.2338228515625,-0.1582561865234375,0.7866655224609375
-0.16063634765625,-0.20163717529296876,0.7050710107421875
-0.0743200390625,-0.23153819580078125,0.7478343994140625
-0.27807515625,-0.10801266845703125,0.9110234228515625
-0.300444453125,0.0530116796875,0.95698177734375
-0.2445212109375,0.16354741943359374,0.9709904736328125
-0.2892598046875,0.2034971435546875,1.139340595703125
-0.1550440234375,0.15129290283203126,1.2201978076171875
-0.10665826171875001,0.1946738916015625,1.1754682861328125
-0.17279357421875,0.12531332763671876,1.223884306640625
-0.32937865234375,-0.114630107421875,1.2452660009765626
-0.31308796875,-0.0915916162109375,1.0791277783203126
-0.3067662109375,-0.11781628173828125,0.789368955078125
-0.11930177734375,-0.21585241455078125,0.6047982373046875
-0.09134015625,-0.2869286108398437,0.7281730712890625
-0.15917748046875,-0.063651318359375,1.1164843017578125
-0.4166675390625,0.0731090869140625,1.339394609375
-0.461892421875,0.0691876416015625,1.4713712744140626
-0.33375525390625,0.10962754638671875,1.3216994140625
-0.1025248046875,-0.04134809814453125,1.04742388671875
-0.07213173828125,0.04884514404296875,1.17522251953125
-0.27418484375,-0.023456503906250002,1.1730106201171875
-0.30360533203125,0.01404231689453125,1.125577666015625
-0.42055785156250003,0.0368357177734375,1.0444746875
-0.42371873046874997,-0.27908572021484374,1.027271025390625
-0.18349193359375,-0.2141367822265625,1.1051790380859374
-0.28464005859375,-0.0866898095703125,1.000728232421875
-0.2659179296875,-0.07075893798828126,0.7468513330078125
-0.3077387890625,-0.087179990234375,0.59717947265625
-0.25838044921875,-0.05801424072265625,0.5202545263671875
-0.1744955859375,-0.14134495361328125,0.487567568359375
-0.100093359375,-0.07026875732421875,0.6745959521484375
-0.1239215234375,-0.014633251953124999,0.9498545458984375
-0.408400625,-0.024436865234375,1.1346710302734375
-0.4565432421875,-0.07271966064453125,1.175714052734375
-0.358799140625,0.010611052246093749,1.06708521484375
-0.1404553515625,0.04394333740234375,0.8972604931640625
-0.30652306640625,0.028502646484374998,0.778555224609375
-0.04003666015625,0.10668646240234375,0.9002096923828125
-0.26859251953125,-0.0072805419921875,0.954524111328125
-0.3111428125,0.04051207275390625,1.1100943701171875
-0.36366203125,-0.21928367919921876,1.182595517578125
-0.29144810546875,-0.1945295556640625,1.214053642578125
-0.2542469921875,-0.140119501953125,1.11230626953125
-0.36147373046875,-0.03595611083984375,0.92552365234375
-0.29363640625,-0.0768861962890625,0.7866655224609375
-0.2980130078125,0.05423713134765625,0.951574912109375
-0.45581380859375,0.19050735595703125,1.262223896484375
-0.34737134765625,0.1476165478515625,1.21257904296875
-0.12343523437500001,0.07874616455078125,1.134916796875
-0.15674603515625,0.05227640869140625,1.0211268603515624
-0.2007551953125,-0.05703387939453125,0.8908705615234375
-0.17765646484375,-0.09232688720703125,0.99040603515625
-0.33910443359375,0.01306195556640625,1.1735021533203125
-0.3797095703125,-0.05801424072265625,1.2241300732421876
-0.2970404296875,-0.03448556884765625,1.0582376171875
-0.27515742187500003,-0.089140712890625,0.861132802734375
-0.2192341796875,-0.0298288525390625,0.7670041943359375
-0.23528171875,0.03119864013671875,0.8105048828125
-0.26664736328125,0.0652661962890625,0.9591936767578125
-0.2211793359375,0.1123235400390625,1.04939001953125
-0.20391607421875,-0.06291604736328126,1.113780869140625
-0.18081734375,-0.0254172265625,1.1725190869140625
-0.31989601562500003,0.00570924560546875,1.1877566162109374
-0.27685943359375,0.02923791748046875,1.12803533203125
-0.279047734375,-0.044534272460937496,0.9685328076171875
-0.224583359375,-0.00948635498046875,0.99237216796875
-0.271267109375,-0.0592396923828125,0.94223578125
-0.24962724609375,-0.04085791748046875,0.985982236328125
-0.2192341796875,-0.10654212646484375,0.975168505859375
-0.2299325390625,0.0003172583007812497,1.0167030615234376
-0.249870390625,-0.07271966064453125,1.0378389892578126
-0.2377131640625,-0.013652890625,1.0997721728515626
-0.27418484375,-0.0847290869140625,1.0471781201171875
-0.32646091796875,-0.0719843896484375,0.9680412744140625
-0.222638203125,-0.11095375244140625,0.82918314453125
-0.1190586328125,-0.10727739746093751,0.9056165576171875
-0.292663828125,-0.016593974609375,1.0778989453125
-0.20415921875,-0.122472998046875,1.005643564453125
-0.19248828125,0.03806116943359375,0.9621428759765625
-0.30627992187499997,0.00865032958984375,0.96484630859375
-0.19856689453125,0.00766996826171875,0.966320908203125
-0.2124261328125,0.013552136230468751,0.971236240234375
-0.245980078125,-0.07615092529296875,1.0914161083984375
-0.2153438671875,0.02923791748046875,1.009084296875
-0.20780638671875,0.00619942626953125,0.842454541015625
-0.26567478515625,-0.044534272460937496,0.8264797119140626
-0.158448046875,0.0008074389648437498,0.926015185546875
-0.2902323828125,-0.03448556884765625,0.9611598095703124
-0.16549923828125,0.0530116796875,1.003677431640625
-0.26081189453125,-0.02125069091796875,0.9326508837890625
-0.16306779296875,0.04296297607421875,0.9410069482421874
-0.21461443359375,-0.0229663232421875,0.911269189453125
-0.3194097265625,-0.05458297607421875,0.9324051171875
-0.2255559375,-0.08644471923828125,0.9277355517578125
-0.21850474609375,-0.0759058349609375,0.7842078564453125
-0.18300564453125,-0.09012107421875,0.7121982421874999
-0.22725794921875,-0.15507001220703126,0.725961171875
-0.25157240234375,-0.04134809814453125,0.7910893212890625
-0.1560166015625,0.01747358154296875,0.8687515673828125
-0.312115390625,-0.114630107421875,0.993355234375
-0.2523018359375,0.0819323388671875,1.2039772119140626
-0.3427516015625,-0.0592396923828125,1.1386032958984376
-0.20537494140625,-0.004829638671875,1.026287958984375
-0.17036212890625,0.0182088525390625,0.905370791015625
-0.26567478515625,-0.0504164404296875,0.89799779296875
-0.1628246484375,0.08658905517578125,0.994829833984375
-0.33910443359375,-0.03301502685546875,0.9724650732421874
-0.214857578125,-0.07075893798828126,0.9886856689453125
-0.25594900390624997,-0.01634888427734375,1.1427813281249999
-0.21218298828125,0.0750698095703125,1.162934189453125
-0.27588685546875,-0.01169216796875,1.0506188525390625
-0.26907880859375,-0.05213207275390625,1.072492080078125
-0.19564916015625,-0.04772044677734375,1.1641630224609374
-0.294608984375,-0.01095689697265625,1.0896957421875
-0.23309341796875,0.03462990478515625,1.006626630859375
-0.2630001953125,0.06673673828125,0.91077765625
-0.2250696484375,0.0255615625,0.910286123046875
-0.22823052734375,0.00178780029296875,0.911269189453125
-0.16452666015625,0.04100225341796875,1.0560257177734376
-0.24816837890625,0.004973974609375,1.110831669921875
-0.22750109375,-0.0332601171875,1.11034013671875
-0.24038775390625,0.03610044677734375,1.0373474560546876
-0.38919220703125,0.02041466552734375,0.883743330078125
-0.2289599609375,-0.07835673828125,0.744147900390625
-0.25546271484375,-0.0621807763671875,0.7478343994140625
-0.2240970703125,-0.108747939453125,0.8891501953125
-0.20440236328125,-0.1665892578125,0.891607861328125
-0.1793584765625,-0.16340308349609375,1.0044147314453125
-0.3223274609375,-0.013162709960937501,1.070525947265625
-0.2279873828125,-0.05654369873046875,0.955507177734375
-0.058272500000000005,-0.00752563232421875,0.8301662109375
-0.24087404296875,-0.06291604736328126,0.880794130859375
-0.1268392578125,-0.1013952294921875,0.94715111328125
-0.2912049609375,0.03512008544921875,0.9070911572265625
-0.15869119140625,0.0701680029296875,0.9009469921875
-0.2406308984375,-0.12467881103515625,0.8844806298828125
-0.20294349609375,-0.03644629150390625,1.1243488330078124
-0.32281375,-0.0386521044921875,1.23027423828125
-0.362689453125,-0.012427438964843749,1.2285538720703124
-0.33813185546875,0.0211499365234375,0.9513291455078126
-0.1842213671875,-0.00948635498046875,0.8097675830078125
-0.10617197265625,-0.04330882080078125,0.785436689453125
-0.0344443359375,-0.0562986083984375,0.94518498046875
-0.27029453125,0.07678544189453125,1.135408330078125
-0.34056330078125,0.00791505859375,1.2423168017578126
-0.35709712890625,-0.00507472900390625,1.0771616455078126
-0.1725504296875,0.08903995849609375,0.9459222802734375
-0.10325423828125,0.1044806494140625,0.9439561474609375
-0.40232201171875,-0.13595296630859374,1.0157199951171876
-0.28220861328125,0.07727562255859374,1.1489254931640625
-0.37946642578125,0.00668960693359375,1.06020375
-0.3369161328125,-0.07468038330078125,0.8746499658203125
-0.14604767578125,-0.12712971435546874,0.6775451513671875
-0.07553576171875,-0.17124597412109374,0.699909912109375
-0.131215859375,-0.11095375244140625,0.951574912109375
-0.31819400390625,-0.10580685546875,1.1897227490234374
-0.32743349609375,-0.13693332763671875,1.1329506640625
-0.174009296875,-0.10580685546875,0.9990078662109375
-0.3067662109375,-0.07811164794921875,0.9395323486328125
-0.1297569921875,-0.081297822265625,0.9424815478515625
-0.2279873828125,-0.0210056005859375,1.0503730859375
-0.3738741015625,-0.067572763671875,1.0110504296875
-0.3145468359375,0.021640117187500002,0.9503460791015625
-0.22823052734375,0.00521906494140625,0.84491220703125
-0.1939471484375,-0.16781470947265625,0.8726838330078125
-0.1579617578125,0.1035002880859375,1.172764853515625
-0.172064140625,0.04247279541015625,1.2359268701171875
-0.2834243359375,-0.11585555908203125,1.1577730908203125
-0.31187224609374997,0.1093824560546875,1.1120605029296875
-0.30530734375,0.0012976196289062499,0.9972875
-0.2211793359375,-0.05115171142578125,0.811979482421875
-0.1326747265625,-0.04134809814453125,0.7601227294921875
-0.19832375,-0.120512275390625,0.7748687255859374
-0.22239505859375,0.019434304199218752,0.934862783203125
-0.30506419921875,0.00791505859375,1.013508095703125
-0.341292734375,-0.0533575244140625,1.08084814453125
-0.30141703125,0.03561026611328125,1.1735021533203125
-0.20683380859375,0.06747200927734374,1.16539185546875
-0.13291787109375,0.00619942626953125,1.049881552734375
-0.337402421875,-0.05703387939453125,1.054796884765625
-0.158448046875,0.08315779052734375,1.1440101611328124
-0.360744296875,-0.15261910888671876,0.936828916015625
-0.20391607421875,-0.1268846240234375,0.9820499707031249
-0.18057419921875,-0.014633251953124999,0.997779033203125
-0.30798193359375,-0.19869609130859375,1.0343982568359376
-0.22701480468750002,-0.00507472900390625,1.067576748046875
-0.22920310546875,-0.0808076416015625,0.9021758251953125
-0.15382830078125,0.0025230712890624996,0.84687833984375
-0.15625974609374998,-0.05090662109375,0.9709904736328125
-0.2707808203125,-0.00777072265625,1.061678349609375
-0.19346085937500002,-0.0239466845703125,1.2039772119140626
-0.36293259765625,-0.06928839599609375,1.163917255859375
-0.3072525,-0.036201201171875,0.9166760546875
-0.14167107421875,-0.12958061767578125,0.73874103515625
-0.12246265625,0.022620478515625,0.7792925244140625
-0.112736875,0.05668803466796875,0.984016103515625
-0.26761994140625,0.0770305322265625,1.1582646240234376
-0.2678630859375,0.01894412353515625,1.26173236328125
-0.2561921484375,0.07457962890625,1.20668064453125
-0.34007701171875,-0.026397587890625,0.99630443359375
-0.13510617187500001,-0.0803174609375,0.822793212890625
-0.1453182421875,-0.08840544189453126,0.77216529296875
-0.20415921875,-0.02076051025390625,0.899472392578125
-0.28561263671875,-0.108747939453125,1.0110504296875
-0.4278521875,-0.10556176513671875,1.0737209130859375
-0.20732009765625,0.0005623486328125002,1.0501273193359375
-0.221665625,0.03315936279296875,0.9877026025390625
-0.23357970703125,0.04149243408203125,1.0228472265625
-0.19248828125,0.0054641552734375,1.06806828125
-0.26859251953125,0.061834931640625,1.1277895654296874
-0.26810623046875,-0.15752091552734376,1.0594664501953126
-0.15966376953125,-0.0249270458984375,0.9874568359375
-0.1166271875,-0.07468038330078125,0.9115149560546875
-0.17230728515625,-0.0200252392578125,1.106899404296875
-0.40572603515625,-0.04723026611328125,1.163917255859375
-0.28220861328125,-0.05090662109375,1.0796193115234376
-0.32354318359375,-0.0121823486328125,0.88423486328125
-0.18397822265625,0.01992448486328125,0.7969877197265625
-0.140941640625,-0.073454931640625,0.7822417236328125
-0.214857578125,0.010611052246093749,0.8736668994140625
-0.21266927734375,-0.09820905517578125,0.975168505859375
-0.33959072265625,-0.028358310546875,1.0688055810546875
-0.2377131640625,-0.06389640869140625,0.97074470703125
-0.2172890234375,-0.05899460205078125,0.790352021484375
-0.0782103515625,-0.012427438964843749,0.7684787939453125
-0.20342978515625,-0.05360261474609375,0.8891501953125
-0.20342978515625,0.024581201171875,1.1508916259765625
-0.4604335546875,0.1515379931640625,1.2093840771484374
-0.2416034765625,0.1079119140625,1.0516019189453125
-0.1715778515625,-0.0239466845703125,0.954032578125
-0.26761994140625,0.0446786083984375,0.975168505859375
-0.22385392578125,-0.0729647509765625,1.01989802734375
-0.3233000390625,-0.044044091796875,1.1223827001953124
-0.20245720703125,-0.11389483642578124,1.1135351025390625
-0.304334765625,-0.08448399658203125,0.999745166015625
-0.14993798828125,-0.09869923583984375,0.990897568359375
-0.213885,7.216796875000007e-05,0.9186421875
-0.14750654296875,-0.00801581298828125,1.0250591259765625
-0.35126166015625,0.03512008544921875,1.0992806396484376
-0.2980130078125,-0.00752563232421875,1.151137392578125
-0.1472633984375,-0.01978014892578125,1.1813666845703126
-0.393811953125,-0.05801424072265625,1.05332228515625
-0.191515703125,0.05570767333984375,1.00810123046875
-0.21704587890625,-0.1739419677734375,0.8815314306640625
-0.175954453125,-0.0327699365234375,0.95894791015625
-0.3271903515625,-0.01978014892578125,0.9233117529296875
-0.0801555078125,-0.13129625,1.04939001953125
-0.28318119140625,0.0515411376953125,1.10247560546875
-0.221665625,-0.1210024560546875,0.9120064892578125
-0.25935302734375,0.01159141357421875,0.869980400390625
-0.29363640625,-0.0011532836914062497,0.94223578125
-0.2211793359375,-0.042328459472656246,0.92552365234375
-0.2192341796875,0.02482629150390625,1.0343982568359376
-0.28464005859375,-0.08154291259765625,1.0230929931640624
-0.27880458984375,-0.05556333740234375,0.983033037109375
-0.15139685546875,-0.05899460205078125,0.9009469921875
-0.096203046875,0.0003172583007812497,0.95698177734375
-0.2659179296875,-0.0337502978515625,1.120662333984375
-0.349073359375,0.05962911865234375,1.2015195458984376
-0.08866556640625001,-0.11046357177734376,1.0697886474609375
-0.24622322265625,-0.07860182861328124,1.02383029296875
-0.23698373046875,-0.0494360791015625,1.000728232421875
-0.15358515625,-0.07026875732421875,0.8785822314453124
-0.22239505859375,-0.01634888427734375,0.9203625537109374
-0.27880458984375,-0.0798272802734375,1.0501273193359375
-0.19370400390625,-0.151883837890625,0.991880634765625
-0.2571647265625,-0.12173772705078124,0.8913620947265625
-0.1210037890625,-0.013652890625,0.8525309716796875
-0.22434021484375,-0.057278969726562504,0.8623616357421875
-0.2736985546875,-0.01046671630859375,1.0865007763671874
-0.25886673828125,0.03610044677734375,1.1290183984375
-0.19613544921875,0.08242251953125,1.06708521484375
-0.23917203125,-0.0018885546875000003,1.013508095703125
-0.17182099609375,0.1260485986328125,1.043000087890625
-0.23212083984375,-0.06781785400390625,0.9670582080078125
-0.2552195703125,-0.0729647509765625,0.891607861328125
-0.1365650390625,-0.03350520751953125,0.8780906982421874
-0.280992890625,-0.06683749267578125,0.9820499707031249
-0.28950294921874997,-0.038161923828125,1.1769428857421875
-0.21801845703125,-0.0670825830078125,1.1263149658203124
-0.370470078125,-0.07468038330078125,1.0535680517578125
-0.26664736328125,-0.0857094482421875,1.0417712548828124
-0.253760703125,-0.055073156738281254,0.9481341796875
-0.1881116796875,0.0368357177734375,0.897506259765625
-0.1355924609375,-0.015368522949218751,0.8849721630859375
-0.25886673828125,0.0348749951171875,0.8422087744140625
-0.28220861328125,0.01747358154296875,0.812962548828125
-0.05997451171875,-0.08742508056640624,0.859166669921875
-0.2411171875,0.01575794921875,1.066593681640625
-0.38141158203125003,-0.0680629443359375,1.098051806640625
-0.1633109375,-0.075415654296875,1.009084296875
-0.38238416015625,0.00791505859375,0.9154472216796875
-0.37995271484375,-0.03448556884765625,0.903404658203125
-0.24330548828125,-0.04379900146484375,0.802148818359375
-0.174981875,0.03855135009765625,0.793301220703125
-0.25594900390624997,0.103010107421875,0.8544971044921875
-0.1764407421875,-0.126394443359375,0.8869382958984375
-0.22579908203125,-0.07762146728515625,1.049881552734375
-0.35320681640625,-0.077376376953125,0.9680412744140625
-0.21193984375,-0.05017135009765625,0.94321884765625
-0.14847912109375,0.01404231689453125,1.0024485986328124
-0.28561263671875,-0.01585870361328125,1.113780869140625
-0.29776986328125,0.00619942626953125,1.0855177099609374
-0.2970404296875,-0.0857094482421875,0.953541044921875
-0.33764556640625,0.0858537841796875,0.903404658203125
-0.39745912109375,0.01796376220703125,0.899472392578125
-0.16914640625,-0.11781628173828125,0.894557060546875
-0.26640421875,-0.059484782714843754,0.9026673583984375
-0.12562353515625,-0.12271808837890624,0.9906518017578125
-0.22336763671875,-0.2406065380859375,0.936828916015625
-0.2678630859375,-0.0592396923828125,0.944693447265625
-0.33229638671875,0.05913893798828125,1.0088385302734375
-0.23455228515625,0.02090484619140625,1.04349162109375
-0.2416034765625,-0.06340622802734375,1.0633987158203124
-0.2221519140625,0.069677822265625,1.170798720703125
-0.30311904296875003,-0.09134652587890625,1.136391396484375
-0.33910443359375,0.07139345458984375,1.1032129052734374
-0.36974064453125,0.04149243408203125,0.9252778857421875
-0.33764556640625,0.1064413720703125,0.8893959619140624
-0.387976484375,0.1079119140625,0.9739396728515625
-0.3344846875,-0.22565602783203126,0.994829833984375
-0.13486302734375,-0.1690401611328125,0.897506259765625
-0.1958923046875,-0.1092381201171875,0.7763433251953125
-0.0431975390625,-0.1004148681640625,0.7217831396484375
-0.008184726562500001,-0.0504164404296875,0.8520394384765625
-0.2722396875,-0.0710040283203125,1.15752732421875
-0.424934453125,0.07727562255859374,1.39346326171875
-0.53507892578125,0.067717099609375,1.3814206982421875
-0.42201671875,0.0897752294921875,1.0796193115234376
-0.38092529296875,-0.03644629150390625,0.82525087890625
-0.16404037109375,-0.16585398681640626,0.7217831396484375
-0.002835546875000001,-0.0881603515625,0.77609755859375
-0.1890842578125,-0.013652890625,0.995812900390625
-0.156502890625,0.00717978759765625,1.14179826171875
-0.2644590625,-0.03154448486328125,1.154086591796875
-0.259596171875,-0.04698517578125,1.0063808642578125
-0.27029453125,-0.0876701708984375,1.0314490576171875
-0.38481560546875,-0.1062970361328125,1.0702801806640625
-0.4234755859375,-0.07517056396484376,0.965337841796875
-0.24379177734375002,-0.03350520751953125,0.850319072265625
-0.226528515625,-0.13399224365234375,0.866048134765625
-0.23698373046875,-0.16585398681640626,0.8790737646484375
-0.23601115234375,-0.0038492773437499997,1.06020375
-0.37533296875,0.0250713818359375,0.9046334912109375
-0.00842787109375,-0.11242429443359375,0.7886316552734375
-0.1633109375,0.00717978759765625,1.0978060400390626
-0.20002576171875,0.08315779052734375,1.3710985009765624
-0.2980130078125,0.1966346142578125,1.4954564013671874
-0.376305546875,-0.0974737841796875,1.4222179541015625
-0.2211793359375,-0.0332601171875,1.138357529296875
-0.29533841796875,-0.07026875732421875,0.966320908203125
-0.30992708984375,-0.03840701416015625,0.8365561425781249
-0.33861814453125,-0.011201987304687501,0.6436293603515625
-0.2484115234375,-0.0001729223632812504,0.6052897705078125
-0.2240970703125,-0.16732452880859375,0.690079248046875
-0.14458880859375,-0.02615249755859375,0.831640810546875
-0.2017277734375,0.03512008544921875,0.9144641552734375
-0.1939471484375,-0.1396293212890625,0.9714820068359376
-0.2445212109375,-0.025662316894531252,1.1032129052734374
-0.34810078125,-0.069533486328125,1.1558069580078125
-0.3553951171875,-0.053847705078125,1.04152548828125
-0.251815546875,-0.05360261474609375,0.7842078564453125
-0.23212083984375,-0.09477779052734375,0.6136458349609375
-0.2717533984375,-0.20997024658203126,0.7117067089843749
-0.24816837890625,-0.16928525146484374,0.8436833740234375
-0.25400384765625,-0.10727739746093751,0.8284458447265625
-0.3213548828125,-0.06977857666015624,0.7979707861328125
-0.25643529296875,-0.18423576171875,0.931913583984375
-0.2542469921875,-0.139139140625,1.095102607421875
-0.292663828125,-0.05801424072265625,1.1096028369140625
-0.2722396875,-0.1347275146484375,0.8997181591796874
-0.164283515625,-0.08350363525390625,0.64338359375
-0.263486484375,-0.0837487255859375,0.534754755859375
-0.14069849609375001,-0.048455717773437504,0.5399158544921875
-0.1579617578125,-0.0337502978515625,0.7576650634765625
-0.33521412109375,0.00399361328125,1.0226014599609374
-0.38505875,0.05497240234375,1.1735021533203125
-0.45386865234375,0.008895419921875,1.2968769873046875
-0.46456701171875,-0.05605351806640625,1.1336879638671875
-0.23260712890625002,-0.03546593017578125,0.902913125
-0.13923962890625,0.01110123291015625,0.707774443359375
-0.13243158203125,-0.05213207275390625,0.7596311962890625
-0.14896541015625,-0.08840544189453126,0.89406552734375
-0.25594900390624997,0.083402880859375,1.119187734375
-0.35028908203125,0.0397768017578125,1.1794005517578126
-0.31478998046875,-0.0006631030273437505,1.1518746923828125
-0.3271903515625,0.14418528320312501,1.09657720703125
-0.4278521875,0.071638544921875,1.0540595849609375
-0.280992890625,-0.00507472900390625,1.046932353515625
-0.3267040625,0.00766996826171875,1.0270252587890625
-0.323786328125,-0.1004148681640625,0.907336923828125
-0.25254498046875,-0.1386489599609375,0.8567090039062499
-0.3408064453125,-0.20408807861328124,0.9097945898437501
-0.26032560546875,-0.263645029296875,0.902913125
-0.280992890625,-0.232273466796875,0.851302138671875
-0.19953947265625,-0.20384298828125,0.7822417236328125
-0.054868476562500004,-0.106787216796875,0.881777197265625
-0.37265837890625,-0.10654212646484375,1.0624156494140624
-0.3009307421875,-0.08399381591796876,1.2781987255859375
-0.32986494140625,0.075559990234375,1.3907598291015626
-0.4721044921875,0.13609730224609376,1.321207880859375
-0.4108320703125,0.04712951171875,1.162934189453125
-0.2892598046875,0.0868341455078125,1.00613509765625
-0.41812640624999997,0.10276501708984374,0.977134638671875
-0.16404037109375,-0.0881603515625,1.055779951171875
-0.10495625,0.00570924560546875,1.0896957421875
-0.25205869140625,-0.144040947265625,1.0953483740234375
-0.10203851562499999,0.11060790771484375,1.240596435546875
-0.4886383203125,0.1123235400390625,1.1209081005859376
-0.28464005859375,-0.1219828173828125,0.9245405859375
-0.247925234375,0.14835181884765625,1.0130165625
-0.40378087890625003,-0.034240478515625,1.1422897949218749
-0.30895451171875,0.02139502685546875,1.393954794921875
-0.368524921875,0.13413657958984376,1.2182316748046875
-0.27613,0.0603643896484375,1.095594140625
-0.48839517578125,0.046149150390625,1.029237158203125
-0.2022140625,0.0427178857421875,1.003677431640625
-0.15723232421875,0.065756376953125,0.9601767431640625
-0.1793584765625,-0.01046671630859375,0.9513291455078126
-0.15066742187499998,-0.13056097900390626,1.0294829248046875
-0.20342978515625,-0.26977228759765626,1.148188193359375
-0.3408064453125,-0.17026561279296876,1.201273779296875
-0.296554140625,-0.11046357177734376,1.1115689697265625
-0.2989855859375,-0.09624833251953124,1.0373474560546876
-0.2800203125,-0.05605351806640625,1.06511908203125
-0.43004048828125,-0.0415931884765625,0.967303974609375
-0.13291787109375,-0.1415900439453125,0.98057537109375
-0.21121041015625,0.06624655761718751,1.281885224609375
-0.43757796875,-0.00997653564453125,1.4182856884765624
-0.17084841796875,-0.0004180126953125,1.2850801904296876
-0.1287844140625,0.0486000537109375,1.1120605029296875
-0.2853694921875,-0.055808427734375,0.999745166015625
-0.13923962890625,0.00423870361328125,1.03562708984375
-0.2153438671875,0.062080021972656246,1.17522251953125
-0.38432931640625,-0.10458140380859375,1.2044687451171874
-0.2892598046875,0.0515411376953125,1.103950205078125
-0.34007701171875,-0.06683749267578125,0.87637033203125
-0.20877896484375,-0.153844560546875,0.8382765087890625
-0.31746457031249997,-0.07835673828125,0.816894814453125
-0.23357970703125,-0.0906112548828125,0.7581565966796875
-0.30311904296875003,-0.11732610107421874,0.6804943505859375
-0.11784291015625001,-0.07664110595703125,0.6986810791015625
-0.01766736328125,0.0731090869140625,0.9090572900390625
-0.32062544921875,0.11060790771484375,1.2752495263671875
-0.3651208984375,0.2182025634765625,1.381174931640625
-0.29096181640625,-0.0016434643554687498,1.1494170263671875
-0.29922873046875,0.08315779052734375,0.9886856689453125
-0.29582470703125,-0.12663953369140624,0.8205813134765625
-0.212912421875,-0.19722554931640626,0.8240220458984375
-0.35977171875,-0.076396015625,0.7620888623046875
-0.201241484375,-0.14894275390625,0.6696806201171875
-0.284883203125,-0.19624518798828125,0.710723642578125
-0.35661083984374997,-0.19673536865234376,0.7699533935546875
-0.255705859375,-0.10213050048828125,0.8107506494140625
-0.29363640625,-0.153844560546875,0.8574463037109374
-0.23819945312500002,0.02482629150390625,0.8289373779296875
-0.209022109375,-0.015368522949218751,0.67779091796875
-0.16525609375,-0.0729647509765625,0.595704873046875
-0.14604767578125,0.022620478515625,0.651739658203125
-0.21972046875,-0.013162709960937501,0.817877880859375
-0.2999581640625,-0.026397587890625,0.9262609521484375
-0.3573402734375,-0.02174087158203125,0.8304119775390625
-0.19175884765625,-0.0435539111328125,0.8549886376953125
-0.23941517578125,0.03536517578125,1.004660498046875
-0.26251390625,0.05668803466796875,1.1250861328125
-0.31965287109375,-0.132276611328125,1.0830600439453124
-0.15771861328125,-0.02860340087890625,1.0216183935546874
-0.237226875,0.01183650390625,0.8874298291015625
-0.43587595703125,0.00178780029296875,0.946168046875
-0.21704587890625,-0.11242429443359375,0.8712092333984375
-0.159420625,-0.2523708740234375,0.7443936669921875
-0.23163455078125,0.0172284912109375,0.6210188330078125
-0.195406015625,-0.12811007568359375,0.529347890625
0.04409134765625,-0.013162709960937501,0.6888504150390625
-0.3135742578125,0.1162449853515625,1.0909245751953125
-0.452166640625,0.06992291259765625,1.164900322265625
-0.329621796875,0.1329111279296875,1.0973145068359376
-0.3631757421875,-0.013407800292968751,0.8520394384765625
-0.28512634765625,-0.08619962890625,0.73480876953125
-0.249870390625,-0.0004180126953125,0.865065068359375
-0.212912421875,0.01208159423828125,1.1558069580078125
-0.401592578125,-0.00777072265625,1.24600330078125
-0.19564916015625,-0.00409436767578125,1.127543798828125
-0.25011353515625,-0.05899460205078125,0.880794130859375
-0.0733474609375,0.00178780029296875,0.7709364599609375
-0.26956509765625,0.016738310546875,0.86359046875
-0.378250703125,0.10815700439453126,1.0039231982421875
-0.35028908203125,0.1044806494140625,1.11623853515625
-0.35977171875,0.0633054736328125,1.13196759765625
-0.2717533984375,0.1358522119140625,1.0491442529296875
-0.3135742578125,0.01453249755859375,0.90586232421875
-0.28220861328125,0.0319339111328125,0.9414984814453125
-0.3942982421875,0.11403917236328125,0.9075826904296875
-0.3072525,-0.07320984130859375,0.7910893212890625
-0.1258666796875,-0.05213207275390625,0.89504859375
-0.152612578125,0.02923791748046875,1.040542421875
-0.2785614453125,0.03659062744140625,1.01006736328125
-0.10568568359375,-0.1170810107421875,0.8930824609375
-0.18884111328125,-0.136198056640625,1.0395593554687501
-0.439523125,-0.00948635498046875,1.1848074169921876
-0.42979734375,0.01698340087890625,1.323174013671875
-0.26664736328125,0.07776580322265625,1.3499625732421876
-0.4925286328125,0.065756376953125,1.1022298388671874
-0.2406308984375,-0.03644629150390625,0.834590009765625
-0.06021765625,-0.0739451123046875,0.7783094580078125
-0.237226875,0.06600146728515625,1.0383305224609374
-0.31965287109375,0.07678544189453125,1.235681103515625
-0.18446451171875,0.04443351806640625,1.273037626953125
-0.12076064453125,0.112813720703125,1.1852989501953124
-0.28415376953125,-0.0960032421875,1.0162115283203126
-0.17084841796875,-0.1906081103515625,0.9331424169921875
-0.22944625,-0.025662316894531252,1.043000087890625
-0.35417939453125,-0.06389640869140625,1.0235845263671874
-0.38967849609375,-0.0646316796875,0.9144641552734375
-0.16841697265625,-0.1082577587890625,0.7994453857421875
-0.18470765625,-0.10213050048828125,0.99827056640625
-0.32937865234375,0.01698340087890625,1.14573052734375
-0.27515742187500003,-0.0249270458984375,1.1703071875
-0.16914640625,-0.12712971435546874,1.276478359375
-0.40086314453125,0.0819323388671875,1.2585373974609375
-0.41885583984375,0.091245771484375,1.1784174853515625
-0.1764407421875,-0.13717841796875,1.043983154296875
-0.22628537109375,-0.092081796875,0.78396208984375
-0.175954453125,-0.15801109619140624,0.616349267578125
-0.0850183984375,-0.11585555908203125,0.593738740234375
-0.16404037109375,-0.03742665283203125,0.67975705078125
-0.16136578125,-0.12467881103515625,0.8989808593749999
-0.294608984375,0.0152677685546875,1.213070576171875
-0.4555706640625,-0.11683592041015625,1.421480654296875
-0.37995271484375,-0.01389798095703125,1.45244724609375
-0.47526537109375,0.00766996826171875,1.242562568359375
-0.44754689453125,0.11550971435546875,1.1014925390624999
-0.2805066015625,0.03757098876953125,0.8294289111328125
-0.24233291015625,-0.1376685986328125,0.6618160888671875
-0.1813036328125,0.048109873046875,0.537703955078125
-0.07942607421875,-0.0729647509765625,0.4386600146484375
0.02853009765625,-0.1474722119140625,0.47577077148437497
-0.09547361328125001,-0.11585555908203125,0.694994580078125
-0.31819400390625,-0.06267095703125,0.797233486328125
-0.35588140625,0.01257177490234375,0.9297016845703125
-0.3904079296875,0.096147578125,1.0936280078125
-0.4808576953125,0.03512008544921875,1.10247560546875
-0.40378087890625003,0.108892275390625,1.0820769775390624
-0.26761994140625,0.0584036669921875,1.0520934521484375
-0.29169125,0.022620478515625,0.985490703125
-0.190543125,-0.0474753564453125,1.0373474560546876
-0.2099946875,-0.12124754638671875,1.2482152001953124
-0.2931501171875,0.0603643896484375,1.324157080078125
-0.3515048046875,0.14492055419921876,1.1454847607421874
0.00421564453125,-0.0935523388671875,1.0609410498046874
-0.24136033203125,-0.0955130615234375,1.1838243505859376
-0.3135742578125,-0.0562986083984375,1.34824220703125
-0.3500459375,-0.0406128271484375,1.2860632568359376
-0.428824765625,-0.08889562255859375,0.9759058056640625
-0.40669861328125,-0.016593974609375,0.7279273046875
-0.41788326171875,-0.065612041015625,0.65812958984375
-0.36633662109375,0.03806116943359375,0.5433565869140625
-0.213885,0.14590091552734374,0.668451787109375
-0.08088494140625,0.097127939453125,0.636010595703125
-0.04733099609375,-0.1406096826171875,0.67385865234375
-0.01815365234375,-0.144040947265625,0.8579378369140624
-0.18057419921875,-0.042328459472656246,1.1533492919921875
-0.43879369140625,-0.09183670654296874,1.107882470703125
-0.07942607421875,-0.00507472900390625,0.951574912109375
-0.32500205078125,-0.12418863037109375,0.8775991650390624
-0.20391607421875,-0.015368522949218751,0.7082659765625
-0.16841697265625,-0.087179990234375,0.63846826171875
-0.23990146484375,0.10202974609375,0.6610787890625
-0.2299325390625,0.17188049072265624,0.688113115234375
-0.30895451171875,0.010611052246093749,0.7325968701171874
-0.17230728515625,0.0878145068359375,0.9247863525390625
-0.0645942578125,-0.00458454833984375,1.0196522607421874
-0.07456318359375,-0.098944326171875,0.9704989404296875
-0.16647181640625,-0.14281549560546875,0.864082001953125
0.009078535156249998,-0.14624676025390626,0.8795652978515625
-0.166228671875,0.026051743164062502,1.2152824755859375
-0.40669861328125,0.030708459472656248,1.2954023876953125
-0.44292714843750003,0.1471263671875,1.207172177734375
-0.24914095703125,-0.00777072265625,1.0191607275390624
-0.1813036328125,0.0740894482421875,0.9542783447265625
-0.107873984375,-0.04477936279296875,0.8707177001953125
-0.24695265625,-0.1298257080078125,0.9070911572265625
-0.2425760546875,0.07629526123046874,0.8761245654296875
-0.315033125,0.00987578125,0.928964384765625
-0.2523018359375,-0.01169216796875,1.1499085595703125
-0.3524773828125,-0.075415654296875,1.25780009765625
-0.36633662109375,-0.16462853515625,1.092153408203125
-0.12635296875,-0.059729873046875,0.8616243359375
-0.23819945312500002,0.12531332763671876,0.7915808544921875
-0.3524773828125,-0.01634888427734375,0.75447009765625
-0.35806970703125,0.0476196923828125,0.7321053369140624
-0.2931501171875,-0.12320826904296875,0.567195947265625
-0.15334201171875,-0.12958061767578125,0.5350005224609375
-0.1715778515625,-0.0827683642578125,0.6244595654296875
-0.2552195703125,-0.14698203125,0.7239950390625
-0.21461443359375,-0.07958218994140626,0.8795652978515625
-0.4332013671875,-0.0082609033203125,1.043000087890625
-0.500795546875,0.05913893798828125,1.2079094775390624
-0.47186134765625,0.07923634521484375,1.11427240234375
-0.32062544921875,0.14933218017578126,0.810996416015625
-0.23163455078125,0.0294830078125,0.574077412109375
-0.129270703125,-0.16781470947265625,0.529839423828125
-0.18786853515625002,-0.2327636474609375,0.5330343896484375
-0.1988100390625,-0.08007237060546875,0.48166916992187503
-0.27053767578125,-0.23006765380859376,0.666485654296875
-0.34542619140624997,-0.14502130859375,1.037101689453125
-0.48012826171875,0.07090327392578125,1.3824037646484375
-0.5212196875,0.25128975830078126,1.3696239013671876
-0.3631757421875,0.26697553955078124,1.1238572998046874
-0.24525064453125,-0.06389640869140625,1.1926719482421875
-0.300444453125,-0.14183513427734376,1.155069658203125
-0.30749564453125,-0.05360261474609375,0.9166760546875
-0.19953947265625,-0.0082609033203125,0.8038691845703125
-0.2610550390625,-0.0641414990234375,0.8667854345703125
-0.2941226953125,-0.08448399658203125,1.076424345703125
-0.3359435546875,-0.11340465576171875,1.33251314453125
-0.3184371484375,-0.07370002197265625,1.4364724169921874
-0.3553951171875,-0.0621807763671875,1.2811479248046875
-0.397702265625,-0.0886505322265625,0.9808211376953125
-0.2882872265625,-0.1504132958984375,0.839996875
-0.35806970703125,-0.03742665283203125,0.796741953125
-0.253760703125,0.01575794921875,0.8785822314453124
-0.195406015625,0.03928662109375,1.0661021484375
-0.29047552734375,-0.00409436767578125,1.2929447216796874
-0.26761994140625,-0.12418863037109375,1.3905140625
-0.17960162109375,-0.026397587890625,1.371344267578125
-0.2630001953125,-0.02615249755859375,1.2133163427734375
-0.30117388671875,0.073599267578125,1.14179826171875
-0.3855450390625,0.13560712158203125,1.1685868212890624
-0.35588140625,0.12286242431640625,1.344801474609375
-0.26859251953125,0.2103596728515625,1.5800001123046874
-0.13680818359375,0.3329048388671875,1.7655538964843749
-0.5849235546875,0.1946738916015625,1.8429703759765625
-0.4511940625,0.096147578125,1.435243583984375
-0.12173322265625,-0.24379271240234374,1.0948568408203125
-0.10130908203125,-0.20751934326171875,1.032677890625
-0.0645942578125,-0.22614620849609374,1.2241300732421876
-0.47283392578125,-0.3219765283203125,1.45244724609375
-0.39502767578125,-0.093062158203125,1.2791817919921875
-0.24233291015625,-0.30065366943359373,0.9124980224609375
-0.1248941015625,-0.28888933349609375,0.8682600341796876
-0.14458880859375,-0.2974674951171875,0.910286123046875
-0.22725794921875,-0.14502130859375,0.963371708984375
-0.29339326171875,-0.07026875732421875,1.110831669921875
-0.3578265625,-0.0906112548828125,1.1997991796875
-0.41836955078125,-0.00752563232421875,1.085271943359375
-0.25692158203125,-0.12075736572265625,0.8195982470703125
-0.197351171875,0.00816014892578125,0.6529684912109375
-0.17765646484375,-0.14502130859375,0.5374581884765625
-0.14580453125,-0.1337471533203125,0.5807131103515625
-0.27418484375,0.015022678222656249,0.639451328125
-0.20051205078125,-0.01978014892578125,0.8225474462890625
-0.1287844140625,0.0137972265625,1.056271484375
-0.23795630859375,0.12629368896484375,1.4836596044921875
-0.578601796875,0.15668489013671874,1.395920927734375
-0.4147223828125,0.16599832275390625,0.983033037109375
-0.27053767578125,0.1250682373046875,0.6662398876953125
-0.16136578125,0.13560712158203125,0.6229849658203125
-0.0529233203125,0.12163697265625,0.84097994140625
-0.11152115234375,0.0843832421875,1.2747579931640625
-0.34396732421875,0.01575794921875,1.477515439453125
-0.4409819921875,-0.11046357177734376,1.2698426611328124
-0.37581925781250003,-0.027868129882812502,1.000728232421875
-0.34834392578125,-0.146001669921875,0.6178238671875
-0.26761994140625,-0.1435507666015625,0.409905322265625
-0.1190586328125,-0.1817848583984375,0.3688622998046875
-0.097175625,-0.25090033203125,0.4701181396484375
-0.12756869140625,-0.2121760595703125,0.713672841796875
-0.2902323828125,-0.057278969726562504,0.818860947265625
-0.384086171875,-0.09330724853515625,0.811979482421875
-0.23066197265625,-0.1778634130859375,0.7114609423828124
-0.3855450390625,-0.01634888427734375,0.8810398974609375
-0.316005703125,-0.0190448779296875,1.0697886474609375
-0.40086314453125,-0.0729647509765625,1.10640787109375
-0.21364185546875,-0.07075893798828126,1.0525849853515625
-0.23990146484375,-0.19036302001953126,0.8372934423828124
-0.17571130859375,-0.06144550537109375,0.6465785595703125
-0.115654609375,-0.1013952294921875,0.584399609375
-0.19905318359375002,0.05717821533203125,0.91569298828125
-0.3437241796875,0.0897752294921875,1.3084280175781249
-0.3301080859375,0.0544822216796875,1.631856865234375
-0.37581925781250003,0.17923320068359375,1.4433538818359375
-0.30020130859375,0.022620478515625,0.8417172412109375
-0.1910294140625,-0.02860340087890625,0.669434853515625
-0.2386857421875,0.038306259765625,0.65911265625
-0.25886673828125,0.1260485986328125,0.7281730712890625
-0.33618669921875,0.1544790771484375,0.9257694189453125
-0.296554140625,-0.0175743359375,0.944693447265625
-0.1540714453125,-0.04036773681640625,0.8205813134765625
-0.15747546875,-0.15359947021484374,0.7527497314453125
-0.159420625,-0.1347275146484375,0.68172318359375
-0.23212083984375,-0.1513936572265625,0.600620205078125
-0.24087404296875,-0.16781470947265625,0.7542243310546874
-0.27783201171875,-0.2827620751953125,0.9346170166015625
-0.21315556640625,-0.35163245849609376,0.95698177734375
-0.24865466796875,-0.23889090576171876,0.9326508837890625
-0.11298001953125,-0.09673851318359375,0.9641090087890625
-0.3359435546875,0.0584036669921875,1.1258234326171874
-0.36876806640625,0.01306195556640625,1.205697578125
-0.3194097265625,0.12923477294921876,1.255342431640625
-0.45727267578124997,0.05497240234375,1.030220224609375
-0.140941640625,-0.1901179296875,0.8009199853515625
0.04895423828125,-0.1886473876953125,0.77806369140625
0.01977689453125,-0.22908729248046875,0.9936010009765625
-0.38457246093749997,-0.22957747314453125,1.129509931640625
-0.5224354101562501,0.04002189208984375,1.2511643994140624
-0.551369609375,-0.0259074072265625,1.185544716796875
-0.4370916796875,0.091245771484375,1.0378389892578126
-0.27977716796875,0.07384435791015626,0.8871840625
-0.1774133203125,0.1407540185546875,0.9820499707031249
-0.25449013671875,0.21599675048828126,1.224867373046875
-0.36925435546875,0.281435869140625,1.338903076171875
-0.2999581640625,0.34736516845703125,1.2659103955078126
-0.26810623046875,0.295160927734375,1.068559814453125
-0.20415921875,0.18707609130859376,0.9046334912109375
-0.19175884765625,0.02531647216796875,0.955507177734375
-0.382141015625,0.07433453857421875,1.150645859375
-0.4711319140625,0.1191860693359375,1.079865078125
-0.30895451171875,-0.06659240234375,0.80165728515625
-0.280992890625,-0.10065995849609374,0.86260740234375
-0.201241484375,0.10595119140625,1.0373474560546876
-0.338375,-0.0411030078125,1.1189419677734376
-0.34931650390625,0.06257020263671875,1.316292548828125
-0.44730375,-0.073454931640625,1.4364724169921874
-0.346155625,-0.1023755908203125,1.2826225244140625
-0.31673513671875,-0.21389169189453125,0.90782845703125
-0.13680818359375,-0.20163717529296876,0.708757509765625
0.0008116210937499993,-0.18889247802734374,0.8948028271484375
-0.16209521484375,0.02433611083984375,1.3531575390625
-0.4458448828125,0.097127939453125,1.6217804345703124
-0.55501677734375,-0.022476142578125,1.6874001171875
-0.46651216796875,-0.07222947998046875,1.3610220703125
-0.21072412109375,-0.1543347412109375,0.95501564453125
-0.2435486328125,-0.20849970458984374,0.89799779296875
-0.28634207031250003,-0.21879349853515626,0.9336339501953125
-0.29631099609375,-0.28741879150390626,0.870963466796875
-0.3344846875,-0.11977700439453125,0.805098017578125
-0.1375376171875,0.0003172583007812497,0.777572158203125
-0.22750109375,-0.0406128271484375,0.9233117529296875
-0.27880458984375,0.0299731884765625,1.0245675927734375
-0.152612578125,0.06600146728515625,1.229782705078125
-0.25449013671875,0.032424091796875,1.3951836279296874
-0.452166640625,0.0603643896484375,1.4327859179687499
-0.3578265625,0.08707923583984375,1.118696201171875
-0.38676076171875,0.1152646240234375,0.8790737646484375
-0.2143712890625,0.067717099609375,0.728418837890625
-0.17668388671875,-0.0651218603515625,0.7640549951171876
-0.28512634765625,0.11599989501953126,1.00810123046875
-0.40913005859375,0.0608545703125,1.021372626953125
-0.19419029296875,0.03217900146484375,0.891607861328125
-0.12805498046875,0.13805802490234376,1.119187734375
-0.2464663671875,0.0270321044921875,1.2784444921875
-0.24136033203125,0.00178780029296875,1.31186875
-0.48693630859375,0.01183650390625,1.0702801806640625
-0.44219771484375,-0.13644314697265625,0.7436563671875001
-0.18859796875,-0.23129310546875,0.4489822119140625
-0.1073876953125,-0.22859711181640624,0.4003204248046875
-0.11054857421875,-0.2611941259765625,0.45365177734375
-0.1210037890625,-0.314623818359375,0.624213798828125
-0.244034921875,-0.3464855615234375,0.822793212890625
-0.3495596484375,-0.3857000146484375,1.05528841796875
-0.35077537109375,-0.00360418701171875,1.1366371630859375
-0.3033621875,0.181439013671875,1.0461950537109375
-0.1064151171875,-0.06928839599609375,0.9233117529296875
-0.02301654296875,0.12384278564453124,1.052830751953125
-0.245980078125,0.0701680029296875,1.0992806396484376
-0.16549923828125,-0.17565760009765624,1.02088109375
-0.26664736328125,-0.025662316894531252,0.8707177001953125
-0.34688505859375,-0.108747939453125,0.655671923828125
-0.16525609375,0.00619942626953125,0.6485446923828125
-0.15164,0.02752228515625,0.685163916015625
-0.2182616015625,-0.02321141357421875,0.903404658203125
-0.3344846875,0.12237224365234375,1.0987891064453126
-0.29387955078125,-0.01438816162109375,1.1907058154296875
-0.30311904296875003,-0.10727739746093751,1.2084010107421874
-0.27613,0.0035034326171875,1.1071451708984374
-0.20488865234375,-0.0317895751953125,0.8864467626953125
-0.121490078125,-0.11438501708984375,0.75840236328125
-0.13534931640625,0.015022678222656249,0.758893896484375
-0.290718671875,0.05521749267578125,0.8259881787109375
-0.33326896484375,-0.00948635498046875,0.8864467626953125
-0.3344846875,0.0799716162109375,0.9537868115234375
-0.237226875,0.06551128662109375,0.968287041015625
-0.2056180859375,-0.05997496337890625,0.8318865771484375
-0.23795630859375,-0.07419020263671874,0.7350545361328125
-0.271267109375,-0.20604880126953126,0.5667044140624999
-0.259596171875,-0.22467566650390625,0.5281190576171875
-0.2800203125,-0.10409122314453124,0.4745419384765625
-0.224583359375,-0.01634888427734375,0.4467703125
-0.19564916015625,0.03512008544921875,0.4529144775390625
-0.06410796875,-0.09796396484375,0.51656802734375
-0.18835482421875,-0.1425704052734375,0.5984083056640626
-0.296554140625,0.03315936279296875,0.7672499609375
-0.3291355078125,0.07041309326171875,0.9287186181640625
-0.32257060546875,0.103010107421875,1.1120605029296875
-0.30506419921875,0.1338914892578125,1.20962984375
-0.29825615234375,-0.09845414550781251,1.1277895654296874
-0.3631757421875,-0.0661022216796875,1.0110504296875
-0.20975154296875,-0.09820905517578125,0.8734211328125
-0.2561921484375,-0.053847705078125,0.7208000732421875
-0.14021220703125,0.00276816162109375,0.70629984375
-0.2698082421875,-0.0778665576171875,0.868997333984375
-0.29776986328125,-0.047965537109375,1.1140266357421875
-0.36147373046875,-0.03840701416015625,1.153103525390625
-0.25983931640625,0.0064445166015625,0.9896687353515625
-0.29509527343749997,-0.07173929931640625,0.908319990234375
-0.346155625,-0.0013983740234375002,1.057746083984375
-0.26616107421875,-0.0612004150390625,0.973202373046875
-0.26761994140625,-0.09967959716796874,0.86850580078125
-0.29679728515625,-0.0533575244140625,0.757419296875
-0.325731484375,-0.07222947998046875,0.7876485888671875
-0.2688356640625,-0.0018885546875000003,0.9837703369140625
-0.20804953125,0.124578056640625,1.169815654296875
-0.302389609375,0.00325834228515625,1.1636714892578124
-0.31308796875,-0.008751083984375,1.1880023828125
-0.31746457031249997,0.04100225341796875,1.1238572998046874
-0.27394169921875,-0.1180613720703125,1.040542421875
-0.17473873046875,-0.0710040283203125,1.0368559228515626
-0.40669861328125,-0.2592334033203125,0.984999169921875
-0.4589746875,-0.1494329345703125,0.82131861328125
-0.374360390625,-0.0513968017578125,0.716622041015625
-0.26372962890625,-0.05360261474609375,0.6947488134765625
-0.1511537109375,0.05668803466796875,0.718096640625
-0.14458880859375,0.011346323242187501,0.876861865234375
-0.183735078125,-0.09575815185546875,1.1061621044921874
-0.22677166015625,-0.21560732421875,1.30695341796875
-0.24938410156250002,-0.076396015625,1.324157080078125
-0.271267109375,0.0338946337890625,1.260257763671875
-0.48839517578125,-0.087179990234375,1.0471781201171875
-0.32864921874999997,0.05668803466796875,1.0702801806640625
-0.47769681640625,0.01012087158203125,1.0506188525390625
-0.24306234375,0.04345315673828125,1.1843158837890626
-0.2240970703125,0.1574201611328125,1.1833328173828126
-0.30506419921875,0.17653720703125,1.2958939208984375
-0.1968648828125,0.17825283935546876,1.3413607421875
-0.28318119140625,0.10668646240234375,1.1371286962890625
-0.22871681640625,0.04345315673828125,1.00023669921875
-0.237226875,0.01551285888671875,0.9822957373046874
-0.3456693359375,-0.0308092138671875,1.0162115283203126
-0.2824517578125,-0.10016977783203125,1.1410609619140626
-0.2532744140625,-0.05752406005859375,1.234698037109375
-0.29825615234375,-0.07222947998046875,1.211104443359375
-0.41691068359375,-0.040122646484374996,1.1931634814453125
-0.2902323828125,0.011346323242187501,1.208155244140625
-0.39989056640625,-0.07271966064453125,1.0501273193359375
-0.1248941015625,-0.030073942871093752,0.92355751953125
-0.16136578125,-0.11340465576171875,0.8871840625
-0.06483740234375,-0.2685468359375,0.9695158740234375
0.0501699609375,-0.33202523193359373,1.1533492919921875
-0.3349709765625,-0.23251855712890626,1.264190029296875
-0.3967296875,-0.029338671875,1.06511908203125
-0.27977716796875,-0.11438501708984375,0.9419900146484375
-0.3889490625,-0.19281392333984376,1.002694365234375
-0.36585033203125,0.10570610107421875,1.152120458984375
-0.13340416015625,-0.0028689160156250004,1.011541962890625
-0.28950294921874997,0.1079119140625,0.92159138671875
-0.2630001953125,-0.03301502685546875,0.7987080859375
-0.2177753125,0.1270289599609375,0.9700074072265625
-0.28755779296875,-0.12075736572265625,1.0324321240234375
-0.1827625,-0.05997496337890625,1.065610615234375
-0.15042427734375,0.010611052246093749,0.9179048876953125
-0.17084841796875,-0.2386458154296875,0.903404658203125
-0.27637314453125,-0.00948635498046875,1.1199250341796876
-0.3777644140625,0.09345158447265625,1.2624696630859376
-0.4040240234375,0.16844922607421875,1.2275708056640624
-0.38335673828125,0.04884514404296875,1.0235845263671874
-0.4098594921875,-0.07909200927734375,0.9208540869140625
-0.2416034765625,-0.13693332763671875,0.7896147216796875
-0.14556138671875,0.01257177490234375,0.7552073974609375
-0.21266927734375,-0.00703545166015625,0.7239950390625
-0.2124261328125,-0.07566074462890625,0.926015185546875
-0.30846822265625,-0.0906112548828125,1.114763935546875
-0.3680386328125,-0.03448556884765625,1.0923991748046875
-0.27783201171875,-0.0259074072265625,0.9090572900390625
-0.2571647265625,-0.00948635498046875,0.755944697265625
-0.24330548828125,0.012816865234374999,0.7026133447265624
-0.3904079296875,-0.05850442138671875,0.7323511035156249
-0.2202067578125,0.05178622802734375,0.870963466796875
-0.24233291015625,-0.02762303955078125,0.9768888720703125
-0.36196001953125,-0.046740085449218746,1.02776255859375
-0.39745912109375,0.01845394287109375,0.9397781152343749
-0.20197091796875,-0.0670825830078125,0.804606484375
-0.063135390625,0.02482629150390625,0.9857364697265625
-0.31624884765625,-0.01193725830078125,1.301546552734375
-0.29509527343749997,-0.008996174316406251,1.4374554833984374
-0.11638404296875,0.08560869384765625,1.241579501953125
-0.31746457031249997,-0.0719843896484375,1.1272980322265624
-0.44414287109375,-0.0857094482421875,1.17522251953125
-0.20440236328125,-0.136198056640625,1.1887396826171874
-0.432715078125,-0.07468038330078125,1.1056705712890624
-0.23698373046875,-0.18938265869140625,0.902421591796875
-0.30530734375,-0.15359947021484374,0.671400986328125
-0.0976619140625,-0.19281392333984376,0.620281533203125
-0.27102396484375,-0.257762861328125,0.7512751318359375
-0.10276794921875,-0.02762303955078125,0.8215643798828125
-0.0655668359375,-0.1229631787109375,1.033169423828125
-0.3811684375,0.05497240234375,1.198324580078125
-0.456056953125,0.226535634765625,1.1661291552734374
-0.23819945312500002,0.15815543212890626,1.0304659912109375
-0.29193439453125003,0.10399046875,1.14179826171875
-0.277102578125,0.19246807861328125,1.1199250341796876
-0.20464550781250002,-0.013162709960937501,0.954032578125
-0.24573693359375,0.08658905517578125,0.8608870361328125
-0.24330548828125,0.01110123291015625,0.8230389794921875
-0.2192341796875,-0.0837487255859375,0.883743330078125
-0.32086859375,-0.1955099169921875,0.998762099609375
-0.23649744140625,-0.13056097900390626,1.1415524951171876
-0.3748466796875,-0.2190385888671875,1.1666206884765624
-0.28464005859375,-0.09575815185546875,1.0186691943359376
-0.19953947265625,-0.055073156738281254,0.91569298828125
-0.3271903515625,-0.163648173828125,0.83311541015625
-0.1949197265625,-0.04477936279296875,0.8707177001953125
-0.1166271875,-0.11438501708984375,0.970253173828125
-0.30652306640625,-0.06585713134765625,1.027271025390625
-0.18495080078125,-0.03889719482421875,0.9695158740234375
-0.28318119140625,-0.09673851318359375,0.9331424169921875
-0.22677166015625,-0.1396293212890625,1.0201437939453124
-0.3096839453125,0.01159141357421875,1.1115689697265625
-0.2756437109375,-0.05115171142578125,1.13098453125
-0.411318359375,-0.138158779296875,1.1194335009765626
-0.32013916015625,0.03512008544921875,0.9990078662109375
-0.185680234375,-0.03644629150390625,0.8891501953125
-0.23455228515625,-0.11879664306640625,0.9267524853515625
-0.20002576171875,0.09590248779296875,1.1754682861328125
-0.38505875,0.15472416748046874,1.1356540966796875
-0.39016478515624997,0.10962754638671875,0.981066904296875
-0.2488978125,0.13756784423828125,0.9311762841796875
-0.36779548828124997,0.06673673828125,0.8721922998046875
-0.25108611328125,-0.07860182861328124,0.756927763671875
-0.10276794921875,-0.0386521044921875,0.624213798828125
-0.1141957421875,-0.012672529296875,0.6355190625
-0.31308796875,-0.09722869384765626,0.654688857421875
-0.185680234375,-0.11389483642578124,0.7576650634765625
-0.27880458984375,0.05619785400390625,1.0378389892578126
-0.47259078125,-0.0259074072265625,1.2010280126953126
-0.34007701171875,-0.01978014892578125,1.144255927734375
-0.3544225390625,0.069677822265625,0.942727314453125
-0.29971501953125,-0.1298257080078125,0.9166760546875
-0.18835482421875,-0.10580685546875,0.872929599609375
-0.18446451171875,-0.18497103271484375,0.7812586572265625
-0.0821006640625,-0.18252012939453124,0.8618701025390625
-0.24768208984375,-0.010221625976562499,0.9088115234375
-0.2503566796875,0.0368357177734375,0.92945591796875
-0.31770771484375,0.0765403515625,0.987948369140625
-0.3573402734375,0.0750698095703125,1.083305810546875
-0.29582470703125,-0.018554697265625,1.0520934521484375
-0.133161015625,-0.010221625976562499,1.1179589013671876
-0.312115390625,0.02090484619140625,1.2069264111328124
-0.3816547265625,0.12678386962890625,1.197833046875
-0.29047552734375,0.0731090869140625,1.070525947265625
-0.3500459375,0.01600303955078125,0.9636174755859375
-0.166228671875,-0.0347306591796875,0.9324051171875
-0.16160892578125,-0.08423890625,1.034152490234375
-0.33278267578125,-0.0621807763671875,1.2332234375
-0.2099946875,-0.00458454833984375,1.2777071923828125
-0.20415921875,-0.011201987304687501,1.1789090185546875
-0.28853037109375,-0.0562986083984375,1.090187275390625
-0.25886673828125,-0.0028689160156250004,1.039067822265625
-0.41156150390625,-0.02076051025390625,0.95894791015625
-0.37800755859375,0.0603643896484375,0.81640328125
-0.27880458984375,0.04247279541015625,0.6372394287109375
-0.34396732421875,-0.012672529296875,0.577026611328125
-0.10325423828125,-0.1464918505859375,0.651739658203125
-0.18859796875,-0.09379742919921875,0.850319072265625
-0.29144810546875,-0.10899302978515625,1.0324321240234375
-0.3291355078125,-0.05703387939453125,1.204222978515625
-0.32548833984375003,-0.052867343750000004,1.195375380859375
-0.3651208984375,-0.029338671875,1.00613509765625
-0.109819140625,-0.01487834228515625,1.0766701123046876
-0.26081189453125,0.0608545703125,1.213562109375
-0.33083751953125,-0.0072805419921875,1.1754682861328125
-0.337402421875,0.04492369873046875,1.02972869140625
-0.48255970703125,0.07433453857421875,0.883251796875
-0.271267109375,0.0927163134765625,0.755944697265625
-0.08963814453125,-0.046740085449218746,0.75053783203125
-0.121490078125,0.009140510253906251,0.78396208984375
-0.044899550781250006,-0.04134809814453125,0.843437607421875
-0.32159802734375,-0.10286577148437501,0.8112421826171875
-0.19905318359375002,0.02090484619140625,0.8771076318359375
-0.27613,-0.02615249755859375,0.930438984375
-0.19346085937500002,-0.03889719482421875,1.1445016943359374
-0.28950294921874997,-0.02321141357421875,1.2521474658203124
-0.316005703125,0.00963069091796875,1.1656376220703124
-0.3690112109375,-0.08154291259765625,0.9955671337890625
-0.40669861328125,0.02335574951171875,0.94125271484375
-0.43368765625,-0.0190448779296875,0.9552614111328125
-0.25157240234375,-0.13301188232421876,1.0058893310546875
-0.19832375,-0.12933552734375,0.8741584326171875
-0.11200744140625,-0.08154291259765625,0.698926845703125
-0.04830357421875,-0.10556176513671875,0.6610787890625
-0.10957599609375,0.02139502685546875,0.840488408203125
-0.29679728515625,-0.00507472900390625,1.1486797265625
-0.30871136718750003,-0.0016434643554687498,1.3361996435546875
-0.37168580078125,-0.0013983740234375002,1.3376742431640625
-0.36439146484375,-0.03301502685546875,1.0329236572265625
-0.30214646484375,0.07433453857421875,0.7994453857421875
-0.1735230078125,0.0054641552734375,0.790352021484375
-0.20586123046875,0.033404453125,0.9724650732421874
-0.33108066406250003,0.07065818359375,1.12312
-0.22239505859375,0.033404453125,1.23420650390625
-0.341292734375,-0.0366913818359375,1.116730068359375
-0.22725794921875,-0.08987598388671875,0.98647376953125
-0.16720125,0.0691876416015625,0.8923451611328125
-0.13583560546875,0.114774443359375,0.8594124365234375
-0.11857234375,-0.048945898437499996,0.997779033203125
-0.32646091796875,-0.0464949951171875,1.252884765625
-0.47915568359375,-0.03129939453125,1.2324861376953125
-0.42858162109375,0.09541230712890625,1.0031858984375
-0.35904228515625003,0.03266918212890625,0.767741494140625
-0.29339326171875,-0.17835359375,0.6099593359375
-0.179844765625,-0.0337502978515625,0.639451328125
-0.13632189453125,-0.11487519775390626,0.708757509765625
-0.0986344921875,-0.1562954638671875,0.9316678173828125
-0.30846822265625,-0.13546278564453124,1.162934189453125
-0.19564916015625,-0.15605037353515624,1.28827515625
-0.23917203125,0.00963069091796875,1.2688595947265624
-0.28901666015625,0.07139345458984375,1.1877566162109374
-0.352963671875,-0.04281864013671875,1.066593681640625
-0.39210994140625,0.0338946337890625,1.02776255859375
-0.343237890625,0.104970830078125,1.037101689453125
-0.23795630859375,-0.018554697265625,1.050864619140625
-0.2309051171875,-0.00262382568359375,1.053813818359375
-0.26275705078125,-0.00777072265625,1.02579642578125
-0.18932740234375,-0.11928682373046876,0.9284728515625
-0.15139685546875,-0.03301502685546875,1.0294829248046875
-0.37411724609375,-0.051886982421875,1.1307387646484375
-0.21072412109375,-0.0567887890625,1.2413337353515626
-0.2921775390625,-0.05703387939453125,1.2059433447265624
-0.3271903515625,0.03021827880859375,0.9950756005859375
-0.2454937890625,0.08707923583984375,0.8893959619140624
-0.26275705078125,0.11158826904296874,0.91176072265625
-0.35199109375,0.1515379931640625,0.988931435546875
-0.29533841796875,0.0922261328125,0.954032578125
-0.33667298828125003,0.00227798095703125,0.9186421875
-0.22288134765625,0.02237538818359375,0.8200897802734375
-0.15747546875,-0.14281549560546875,0.7645465283203124
-0.20488865234375,-0.07909200927734375,0.89603166015625
-0.36050115234375,-0.18521612304687501,1.1410609619140626
-0.42080099609375,-0.0553182470703125,1.360530537109375
-0.374360390625,0.0309535498046875,1.2644357958984376
-0.3019033203125,0.0035034326171875,1.116730068359375
-0.15431458984375,-0.02321141357421875,0.92945591796875
-0.2279873828125,-0.0759058349609375,0.8284458447265625
-0.17692703125,-0.163648173828125,0.7547158642578125
-0.11930177734375,-0.0646316796875,0.8694888671875
-0.24184662109375,-0.0778665576171875,0.9872110693359375
-0.345183046875,-0.07664110595703125,1.0810939111328124
-0.30627992187499997,0.00399361328125,1.0889584423828125
-0.3189234375,-0.00507472900390625,1.0550426513671876
-0.259596171875,0.06943273193359376,1.0230929931640624
-0.24768208984375,0.08242251953125,1.08871267578125
-0.25935302734375,-0.046249904785156254,1.0471781201171875
-0.228473671875,-0.09281706787109376,0.9655836083984375
-0.19759431640625,-0.03252484619140625,0.9129895556640625
-0.1803310546875,-0.0960032421875,0.873912666015625
-0.2163164453125,-0.17418705810546875,0.8928366943359375
-0.27880458984375,-0.0121823486328125,0.9906518017578125
-0.25205869140625,0.07237381591796875,1.1213996337890624
-0.4721044921875,0.053992041015625,1.064136015625
-0.24938410156250002,0.11796061767578125,1.02383029296875
-0.1696326953125,0.08070688720703124,0.952557978515625
-0.25303126953125,0.10766682373046875,1.0425085546875
-0.22579908203125,0.0731090869140625,1.072000546875
-0.31235853515625,0.1642826904296875,0.9857364697265625
-0.3135742578125,0.15080272216796875,0.84097994140625
-0.36439146484375,0.01453249755859375,0.755944697265625
-0.16841697265625,-0.07026875732421875,0.820827080078125
-0.232363984375,-0.11242429443359375,0.84097994140625
-0.22968939453125,-0.2249207568359375,0.7955131201171874
-0.2931501171875,-0.16634416748046876,0.885709462890625
-0.325731484375,-0.05801424072265625,1.003677431640625
-0.370470078125,-0.11364974609375,1.0049062646484375
-0.430769921875,0.0172284912109375,0.8805483642578125
-0.2153438671875,0.10521592041015625,0.74463943359375
-0.10495625,-0.024436865234375,0.7050710107421875
-0.18057419921875,-0.2866835205078125,0.8407341748046875
-0.33278267578125,-0.06046514404296875,1.0919076416015625
-0.3388612890625,0.00423870361328125,1.15752732421875
-0.40256515625,0.061834931640625,1.13196759765625
-0.2513292578125,-0.00213364501953125,0.9877026025390625
-0.17668388671875,-0.110708662109375,0.969761640625
-0.37119951171875,0.040266982421875,0.98647376953125
-0.22968939453125,0.05913893798828125,0.9149556884765625
-0.237226875,-0.0082609033203125,0.8380307421875
-0.21607330078125,0.07384435791015626,0.874895732421875
-0.152612578125,0.0495804150390625,1.079373544921875
-0.28804408203125,-0.0406128271484375,1.2609950634765625
-0.3135742578125,0.014777587890624999,1.1941465478515625
-0.34007701171875,0.05105095703125,0.9717277734375
-0.28998923828125,-0.0043394580078125,0.8353273095703125
-0.24330548828125,0.00987578125,0.8874298291015625
-0.3495596484375,0.01649322021484375,0.9916348681640625
-0.24622322265625,0.03119864013671875,1.069542880859375
-0.27977716796875,0.017718671875,1.0058893310546875
-0.2338228515625,-0.057769150390625,0.90782845703125
-0.26616107421875,-0.104826494140625,0.8613785693359375
-0.16209521484375,-0.0092412646484375,0.8834975634765625
-0.22385392578125,-0.09183670654296874,0.9454307470703125
-0.34591248046875,-0.0710040283203125,0.9397781152343749
-0.24476435546875,-0.10972830078125,0.93338818359375
-0.2921775390625,-0.1543347412109375,0.9444476806640625
-0.2435486328125,-0.06144550537109375,0.9734481396484375
-0.29752671875000003,-0.04870080810546875,0.9808211376953125
-0.38432931640625,-0.02174087158203125,0.992863701171875
-0.2960678515625,0.13707766357421874,1.0358728564453126
-0.35758341796875,0.08364797119140625,0.9233117529296875
-0.0490330078125,0.0799716162109375,0.9901602685546875
-0.29971501953125,0.0652661962890625,1.127543798828125
-0.428824765625,-0.02419177490234375,1.131476064453125
-0.32840607421875,0.02482629150390625,0.9501003125
-0.1589343359375,-0.08203309326171875,0.831640810546875
-0.1764407421875,-0.040122646484374996,0.914709921875
-0.27248283203125,-0.03203466552734375,1.058729150390625
-0.44073884765625,-0.01046671630859375,1.116730068359375
-0.35028908203125,0.033404453125,1.0815854443359374
-0.35515197265625,-0.044044091796875,0.9921264013671875
-0.29047552734375,0.01747358154296875,0.8918536279296875
-0.16549923828125,0.0770305322265625,0.86064126953125
-0.138996484375,-0.09036616455078125,0.8304119775390625
-0.23747001953125,0.028257556152343752,0.874895732421875
-0.25643529296875,-0.0513968017578125,1.01006736328125
-0.31527626953125,-0.08840544189453126,1.153103525390625
-0.30166017578125,-0.055808427734375,1.22830810546875
-0.23357970703125,-0.1425704052734375,1.13000146484375
-0.268349375,0.05962911865234375,1.005643564453125
-0.263486484375,0.00619942626953125,0.8195982470703125
-0.29242068359375,-0.0001729223632812504,0.8717007666015625
-0.29631099609375,0.0721287255859375,1.002694365234375
-0.29193439453125003,-0.05311243408203125,1.0383305224609374
-0.1910294140625,-0.0028689160156250004,1.06905134765625
-0.347128203125,-0.10580685546875,0.993355234375
-0.25789416015625,-0.07615092529296875,0.926015185546875
-0.31041337890625,0.08953013916015624,0.9208540869140625
-0.27394169921875,0.0843832421875,0.9115149560546875
-0.21266927734375,0.0466393310546875,0.95796484375
-0.2800203125,-0.0055649096679687505,1.04349162109375
-0.22725794921875,-0.0425735498046875,1.057746083984375
-0.279047734375,-0.1033559521484375,1.00613509765625
-0.34299474609375,-0.07811164794921875,0.9542783447265625
-0.24573693359375,-0.0092412646484375,0.9149556884765625
-0.4225030078125,-0.11977700439453125,0.8557259375
-0.33813185546875,-0.030073942871093752,0.932896650390625
-0.27418484375,-0.01879978759765625,0.8952943603515625
-0.19321771484375,0.09394176513671874,0.9478884130859375
-0.25838044921875,-0.02076051025390625,0.9493630126953125
-0.13024328125,0.00178780029296875,1.006626630859375
-0.19759431640625,0.00325834228515625,1.007609697265625
-0.3699837890625,0.05374695068359375,1.07298361328125
-0.25692158203125,0.0682072802734375,0.991880634765625
-0.352963671875,-0.01683906494140625,0.87440419921875
-0.31284482421875,0.06306038330078124,0.944693447265625
-0.2707808203125,-0.0886505322265625,0.9478884130859375
-0.22968939453125,-0.012427438964843749,0.9813126708984374
-0.27685943359375,0.0064445166015625,0.9601767431640625
-0.35952857421875,-0.0827683642578125,0.9469053466796875
-0.32013916015625,-0.010221625976562499,0.8795652978515625
-0.29485212890625,-0.0960032421875,0.7736398925781249
-0.18689595703125,0.036345537109375,0.819844013671875
-0.3033621875,0.112813720703125,0.8392595751953125
-0.1346198828125,-0.0180645166015625,0.91077765625
-0.2736985546875,0.02286556884765625,1.075441279296875
-0.26907880859375,0.00227798095703125,1.1828412841796876
-0.24476435546875,-0.05090662109375,1.1115689697265625
-0.4419545703125,0.03536517578125,1.113780869140625
-0.35199109375,0.02237538818359375,1.0053977978515625
-0.3369161328125,-0.0016434643554687498,0.885709462890625
-0.24816837890625,-0.01487834228515625,0.777572158203125
-0.17473873046875,-0.1587463671875,0.739232568359375
-0.18397822265625,-0.17835359375,0.926998251953125
-0.33642984375,-0.15457983154296875,1.016457294921875
-0.28366748046875,-0.1945295556640625,1.0324321240234375
-0.23844259765625,0.021640117187500002,0.9886856689453125
-0.18932740234375,0.0037485229492187503,0.9179048876953125
-0.22142248046875002,0.026051743164062502,0.936828916015625
-0.29922873046875,0.05031568603515625,1.0039231982421875
-0.27248283203125,0.11379408203125,0.9975332666015625
-0.31089966796875,-0.04821062744140625,0.914218388671875
-0.2542469921875,0.08168724853515624,0.8938197607421875
-0.25692158203125,0.02972809814453125,0.907336923828125
-0.26616107421875,-0.1562954638671875,0.9655836083984375
-0.3656071875,0.0907555908203125,1.040542421875
-0.2416034765625,-0.1116890234375,0.97664310546875
-0.25011353515625,-0.0464949951171875,1.029237158203125
-0.2240970703125,-0.08448399658203125,0.997779033203125
-0.20780638671875,-0.0778665576171875,0.9139726220703125
-0.16598552734375,0.0044837939453125,0.916184521484375
-0.44535859375,-0.0028689160156250004,0.8456495068359375
-0.2075632421875,-0.13595296630859374,0.8360646093749999
-0.263486484375,0.04149243408203125,0.9660751416015625
-0.36293259765625,-0.01561361328125,1.00810123046875
-0.17036212890625,-0.040122646484374996,0.9626344091796875
-0.42809533203125,0.0172284912109375,0.9370746826171875
-0.2766162890625,-0.06242586669921875,0.866048134765625
-0.1569891796875,-0.1587463671875,0.7507835986328125
-0.218747890625,-0.04575972412109375,0.865065068359375
-0.4127772265625,-0.09624833251953124,0.976151572265625
-0.35101851562499997,-0.13350206298828124,0.9891772021484375
-0.2260422265625,0.03266918212890625,0.9041419580078125
-0.16355408203125,0.1387932958984375,1.0110504296875
-0.41350666015625,0.134381669921875,1.17129025390625
-0.245980078125,0.06894255126953125,1.340869208984375
-0.494960078125,0.159871064453125,1.2870463232421876
-0.35661083984374997,0.08707923583984375,1.0624156494140624
-0.1676875390625,0.05423713134765625,0.7316138037109375
-0.09425789062500001,0.108892275390625,0.6972064794921875
-0.2921775390625,0.155949619140625,0.8183694140625
-0.25400384765625,0.1079119140625,1.068559814453125
-0.3271903515625,0.0152677685546875,1.245511767578125
-0.44292714843750003,-0.055808427734375,1.2201978076171875
-0.3719289453125,-0.087179990234375,0.994829833984375
-0.18640966796875,-0.20016663330078124,0.7473428662109375
-0.2309051171875,-0.291095146484375,0.698926845703125
-0.28853037109375,-0.23129310546875,0.7380037353515625
-0.15625974609374998,-0.25482177734375,0.7060540771484375
-0.30360533203125,-0.104826494140625,0.6588668896484375
-0.08769298828125,-0.1151202880859375,0.7881401220703125
-0.07602205078125,-0.15457983154296875,1.1302472314453125
-0.370470078125,-0.060710234375,1.364462802734375
