ax,ay,az
-0.2542469921875,-0.06389640869140625,0.64240052734375
-0.2240970703125,-0.0386521044921875,0.636010595703125
-0.35709712890625,-0.049926259765625,0.7630719287109375
-0.4200715625,-0.167569619140625,1.1440101611328124
-0.312115390625,-0.1082577587890625,1.30498728515625
-0.39478453125,-0.12860025634765626,1.2801648583984375
-0.3729015234375,-0.11193411376953125,1.07494974609375
-0.387976484375,-0.1626678125,0.8569547705078124
-0.42566388671875,-0.085219267578125,0.8441749072265625
-0.3884627734375,-0.14722712158203125,0.8294289111328125
-0.2474389453125,-0.20702916259765625,0.823776279296875
-0.2133987109375,-0.11193411376953125,0.88030259765625
-0.31138595703125,-0.0435539111328125,0.986965302734375
-0.31697828125,-0.10850284912109374,1.1032129052734374
-0.39940427734375,-0.01389798095703125,1.13098453125
-0.37995271484375,0.0574233056640625,1.1644087890625
-0.41107521484375,-0.0308092138671875,1.1602307568359376
-0.52632572265625,-0.0474753564453125,1.1130435693359375
-0.41934212890625,-0.0543378857421875,0.9842618701171875
-0.4001337109375,-0.01830960693359375,0.9252778857421875
-0.5275414453125,-0.1082577587890625,0.9188879541015624
-0.411318359375,-0.1131595654296875,0.9090572900390625
-0.2912049609375,-0.107767578125,0.8544971044921875
-0.2523018359375,-0.10409122314453124,0.7829790234375
-0.24719580078125,-0.2136466015625,0.8200897802734375
-0.37946642578125,-0.1513936572265625,0.8078014501953125
-0.48766574218750003,0.0074248779296875,0.7689703271484375
-0.48158712890625,-0.05164189208984375,0.7306307373046875
-0.2668905078125,-0.004829638671875,0.797233486328125
-0.29193439453125003,0.0201695751953125,0.9921264013671875
-0.34591248046875,-0.02909358154296875,1.094119541015625
-0.35028908203125,-0.023456503906250002,1.244528701171875
-0.45921783203125,0.0172284912109375,1.2727918603515624
-0.4798851171875,-0.01928996826171875,1.26566462890625
-0.4594609765625,-0.0028689160156250004,1.19881611328125
-0.508576171875,0.01159141357421875,1.058729150390625
-0.358799140625,-0.01953505859375,0.875387265625
-0.1715778515625,-0.016593974609375,0.8151744482421874
-0.34348103515625,-0.17516741943359376,0.7512751318359375
-0.23139140625,-0.1808044970703125,0.73677490234375
-0.3942982421875,-0.068553125,0.704825244140625
-0.4419545703125,-0.10850284912109374,0.6986810791015625
-0.5187882421875,-0.130315888671875,0.7070371435546875
-0.47915568359375,-0.08693489990234375,0.6804943505859375
-0.2955815625,-0.050661530761718754,0.6210188330078125
-0.14215736328125,-0.0592396923828125,0.6878673486328125
-0.18543708984375,-0.108747939453125,0.8023945849609375
-0.267376796875,-0.14428603759765624,0.890624794921875
-0.386031328125,-0.08840544189453126,0.95698177734375
-0.48426171875,-0.14894275390625,0.810996416015625
-0.37849384765625,-0.16046199951171874,0.6401886279296874
-0.17036212890625,-0.048945898437499996,0.5104238623046875
-0.082586953125,-0.01928996826171875,0.47921150390625
-0.16258150390625,-0.01879978759765625,0.52836482421875
-0.2503566796875,0.013552136230468751,0.6475616259765625
-0.4234755859375,0.11109808837890625,0.763809228515625
-0.4759948046875,0.19393862060546874,0.8481071728515625
-0.3962433984375,0.26403445556640626,0.948625712890625
-0.374360390625,0.27285770751953126,1.0466865869140625
-0.35126166015625,0.1780077490234375,1.0896957421875
-0.36293259765625,0.08511851318359374,1.0582376171875
-0.4118046484375,0.016738310546875,0.9596852099609375
-0.42031470703125,-0.0121823486328125,0.8215643798828125
-0.39502767578125,0.122617333984375,0.8250051123046875
-0.325731484375,0.13340130859375,0.811979482421875
-0.34032015625,0.099088662109375,0.907336923828125
-0.46505330078125,0.2025167822265625,0.968287041015625
-0.501768125,0.1682041357421875,1.0189149609375
-0.55647564453125,0.120656611328125,1.0668394482421875
-0.39940427734375,0.10399046875,1.0825685107421874
-0.2989855859375,0.01551285888671875,1.056763017578125
-0.30798193359375,0.0008074389648437498,1.079865078125
-0.456056953125,-0.063651318359375,1.0319405908203125
-0.35952857421875,-0.13595296630859374,0.98254150390625
-0.25059982421875,-0.12663953369140624,0.9881941357421875
-0.2347954296875,-0.0881603515625,1.1548238916015625
-0.25108611328125,-0.116590830078125,1.2595204638671875
-0.1248941015625,-0.12909043701171874,1.323665546875
-0.06410796875,-0.09967959716796874,1.329072412109375
-0.111764296875,-0.106787216796875,1.328089345703125
-0.28853037109375,-0.02321141357421875,1.260749296875
-0.32111173828125,0.036345537109375,1.18701931640625
-0.34202216796875,0.0525214990234375,1.17522251953125
-0.3612305859375,0.10595119140625,1.1762055859375
-0.3164919921875,0.1123235400390625,1.2256046728515626
-0.24379177734375002,-0.07860182861328124,1.17129025390625
-0.12367837890625,-0.10580685546875,1.1368829296875
-0.2250696484375,-0.07222947998046875,1.1435186279296874
-0.27345541015625,-0.13448242431640625,1.058729150390625
-0.3437241796875,-0.2013920849609375,0.8913620947265625
-0.419098984375,-0.19992154296875,0.8692431005859375
-0.4769673828125,-0.19771572998046874,0.853268271484375
-0.362689453125,-0.183255400390625,0.765283828125
-0.144831953125,-0.08546435791015625,0.80558955078125
-0.234309140625,0.019434304199218752,0.916184521484375
-0.3660934765625,-0.030319033203124998,0.990897568359375
-0.40621232421875,-0.05115171142578125,1.016948828125
-0.32208431640625,0.00816014892578125,0.9183964208984375
-0.251815546875,0.1015395654296875,0.856217470703125
-0.26178447265625,-0.01046671630859375,0.89504859375
-0.23309341796875,-0.151883837890625,0.9803296044921875
-0.37508982421875,-0.11757119140625,1.00613509765625
-0.3164919921875,-0.11340465576171875,0.8427003076171875
-0.29825615234375,-0.10948321044921874,0.759876962890625
-0.18397822265625,-0.07664110595703125,0.799199619140625
-0.271267109375,-0.06659240234375,0.9011927587890625
-0.26810623046875,-0.06046514404296875,1.02088109375
-0.35977171875,0.0672269189453125,1.0948568408203125
-0.3694975,0.063795654296875,0.999745166015625
-0.24695265625,-0.01169216796875,0.8795652978515625
-0.140941640625,-0.03522083984375,0.8820229638671875
-0.10374052734375,-0.011201987304687501,1.0324321240234375
-0.07699462890625,-0.0288484912109375,1.1422897949218749
-0.10106593750000001,-0.07075893798828126,1.2393676025390625
-0.23528171875,-0.0406128271484375,1.257308564453125
-0.31430369140625003,-0.04330882080078125,1.1388490625
-0.38335673828125,-0.0504164404296875,1.029237158203125
-0.3816547265625,-0.05752406005859375,0.9820499707031249
-0.29339326171875,-0.09722869384765626,0.9351085498046875
-0.1472633984375,-0.09183670654296874,0.9164302880859375
-0.12343523437500001,-0.11095375244140625,0.93928658203125
-0.107873984375,-0.12124754638671875,0.9306847509765624
-0.0947441796875,-0.08889562255859375,0.889641728515625
-0.09741876953125,-0.0553182470703125,0.843437607421875
-0.096203046875,-0.1131595654296875,0.902421591796875
-0.213885,-0.1857063037109375,1.0358728564453126
-0.27613,-0.1925688330078125,1.13983212890625
-0.25935302734375,-0.16242272216796874,1.159984990234375
-0.268349375,-0.19967645263671874,0.9960586669921875
-0.294608984375,-0.14673694091796874,0.865065068359375
-0.34688505859375,-0.17810850341796874,0.748080166015625
-0.17960162109375,-0.18399067138671876,0.7822417236328125
-0.17960162109375,-0.11389483642578124,1.0142453955078126
-0.1210037890625,-0.0141430712890625,1.1027213720703124
-0.2338228515625,-0.038161923828125,1.1700614208984375
-0.24136033203125,-0.022476142578125,1.0933822412109375
-0.09595990234375,0.030463369140625002,0.9835245703125
-0.21753216796875,-0.05164189208984375,0.903404658203125
-0.24087404296875,0.03315936279296875,0.928964384765625
-0.3656071875,0.0054641552734375,0.8943112939453125
-0.48012826171875,0.0201695751953125,0.9041419580078125
-0.4351465234375,0.11943115966796874,0.8830060302734375
-0.3116291015625,0.1392834765625,0.804606484375
-0.15747546875,0.0686974609375,0.726452705078125
-0.10422681640625,0.04320806640625,0.6910623144531249
-0.10228166015625,0.04639424072265625,0.791335087890625
-0.27151025390625,-0.02860340087890625,0.812471015625
-0.292663828125,0.04149243408203125,0.8279543115234375
-0.31746457031249997,0.08658905517578125,0.722520439453125
-0.25789416015625,0.10521592041015625,0.63650212890625
-0.13826705078125,0.1123235400390625,0.5873488085937499
-0.1034973828125,0.13364639892578126,0.6185611669921875
-0.17036212890625,0.09002031982421875,0.6913080810546874
-0.1968648828125,0.06404074462890624,0.714164375
-0.2873146484375,0.04345315673828125,0.7119524755859374
-0.32257060546875,0.0025230712890624996,0.6421547607421875
-0.296554140625,0.02678701416015625,0.5667044140624999
-0.27248283203125,0.08364797119140625,0.562280615234375
-0.24768208984375,0.1623219677734375,0.58931494140625
-0.20197091796875,0.18560554931640624,0.6952403466796875
-0.15869119140625,0.19810515625,0.8097675830078125
-0.228473671875,0.23854506103515624,0.9631259423828125
-0.2299325390625,0.10766682373046875,0.93732044921875
-0.1851939453125,0.111833359375,0.966320908203125
-0.2406308984375,0.1054610107421875,0.9724650732421874
-0.288773515625,0.036345537109375,0.951574912109375
-0.2800203125,0.0103659619140625,0.9390408154296875
-0.32402947265625,0.0789912548828125,1.0024485986328124
-0.2921775390625,0.0030132519531249997,1.031203291015625
-0.240144609375,0.03119864013671875,1.094119541015625
-0.26081189453125,0.08854977783203125,1.19291771484375
-0.27831830078124997,0.0044837939453125,1.2575543310546875
-0.26275705078125,-0.004829638671875,1.261240830078125
-0.23844259765625,-0.01389798095703125,1.1435186279296874
-0.288773515625,0.014777587890624999,1.049881552734375
-0.31916658203125,-0.023456503906250002,1.0221099267578124
-0.33715927734375,-0.022476142578125,1.0565172509765626
-0.3009307421875,-0.02174087158203125,1.106899404296875
-0.33618669921875,-0.0455146337890625,1.1292641650390625
-0.2805066015625,-0.08987598388671875,1.1086197705078125
-0.298499296875,-0.11340465576171875,1.0395593554687501
-0.32257060546875,-0.06928839599609375,0.9670582080078125
-0.2785614453125,-0.0371815625,0.98647376953125
-0.2834243359375,-0.059729873046875,1.1081282373046875
-0.33253953125,-0.06634731201171876,1.2546051318359375
-0.33326896484375,-0.09624833251953124,1.31285181640625
-0.39575710937499997,-0.034240478515625,1.2688595947265624
-0.3767918359375,-0.07566074462890625,1.110831669921875
-0.39089421875,-0.07860182861328124,1.032677890625
-0.49131291015625,-0.06340622802734375,1.0176861279296876
-0.6004848046875,-0.046740085449218746,0.9940925341796875
-0.62212466796875,-0.057278969726562504,0.9400238818359374
-0.67658904296875,-0.087179990234375,0.832623876953125
-0.66929470703125,-0.08644471923828125,0.7424275341796875
-0.6724555859375,-0.0680629443359375,0.6903250146484375
-0.642791953125,0.05080586669921875,0.8441749072265625
-0.63719962890625,0.09026541015625,1.0142453955078126
-0.7492892578125,0.0397768017578125,1.1071451708984374
-0.78794923828125,-0.12663953369140624,1.1346710302734375
-0.55404419921875,-0.118551552734375,0.9803296044921875
-0.44511544921875,-0.07909200927734375,0.8977520263671875
-0.362689453125,-0.165608896484375,0.8736668994140625
-0.42809533203125,-0.2293323828125,1.0228472265625
-0.5479655859375,-0.17369687744140624,1.139340595703125
-0.45678638671875,-0.25016506103515623,0.985490703125
-0.4001337109375,-0.17639287109375001,0.8458952734375
-0.3884627734375,-0.14134495361328125,0.7316138037109375
-0.282938046875,-0.2058037109375,0.8446664404296875
-0.47866939453125,-0.1523740185546875,0.931913583984375
-0.54261640625,-0.17247142578125,1.050864619140625
-0.54334583984375,-0.27663481689453123,1.0309575244140625
-0.36439146484375,-0.24967488037109375,0.983033037109375
-0.43004048828125,-0.21487205322265626,0.90782845703125
-0.53872609375,-0.2249207568359375,0.890624794921875
-0.4939875,-0.11389483642578124,0.859166669921875
-0.56376998046875,0.00472888427734375,0.73775796875
-0.48110083984375,0.10178465576171875,0.702367578125
-0.44365658203125,0.15472416748046874,0.7323511035156249
-0.5100350390625,0.10399046875,0.7625803955078125
-0.59586505859375,0.14786163818359374,0.738249501953125
-0.574711484375,0.111833359375,0.7394783349609375
-0.58905701171875,0.1603612451171875,0.7935469873046875
-0.65762376953125,0.1471263671875,0.89996392578125
-0.6316073046875,0.2005560595703125,0.9228202197265625
-0.64449396484375,0.216732021484375,0.904387724609375
-0.6354976171875,0.08707923583984375,0.860149736328125
-0.38676076171875,-0.0317895751953125,0.72497810546875
-0.4944737890625,0.18903681396484376,0.7561904638671875
-0.4633512890625,0.079481435546875,0.8043607177734375
-0.55696193359375,-0.04477936279296875,0.867522734375
-0.5290003125,0.14246965087890626,0.921099853515625
-0.68680111328125,0.0373258984375,0.809030283203125
-0.5336200585937501,0.16697868408203126,0.9272440185546875
-0.6534903125,-0.03129939453125,0.874895732421875
-0.60291625,0.05913893798828125,0.8815314306640625
-0.461892421875,0.1172253466796875,0.862115869140625
-0.51562736328125,0.106931552734375,0.9552614111328125
-0.683640234375,-0.057278969726562504,1.0284998583984375
-0.60486140625,-0.1415900439453125,1.1282810986328125
-0.668078984375,-0.140119501953125,1.03562708984375
-0.6744007421875,-0.08644471923828125,0.94911724609375
-0.58224896484375,-0.1857063037109375,0.7502920654296875
-0.54237326171875,-0.27663481689453123,0.651248125
-0.45386865234375,-0.25359632568359375,0.714655908203125
-0.32451576171875,-0.11144393310546875,0.7593854296875
-0.25059982421875,-0.1906081103515625,0.838522275390625
-0.469673046875,-0.24183198974609374,0.9267524853515625
-0.377278125,-0.02321141357421875,0.9700074072265625
-0.60315939453125,-0.2209993115234375,0.8613785693359375
-0.5975670703125,-0.15703073486328126,0.840488408203125
-0.4818302734375,0.01600303955078125,0.816894814453125
-0.50930560546875,0.013552136230468751,0.8525309716796875
-0.53507892578125,0.026051743164062502,0.9936010009765625
-0.4312562109375,-0.04723026611328125,1.02088109375
-0.43441708984375,-0.03595611083984375,1.026287958984375
-0.596108203125,-0.029338671875,0.9218371533203125
-0.5421301171875,-0.01561361328125,0.8063268505859374
-0.54869501953125,0.034384814453125,0.756927763671875
-0.5557462109375,0.010856142578125,0.7124440087890624
-0.5644994140625,-0.03129939453125,0.6627991552734375
-0.5304591796875,-0.03129939453125,0.6790197509765625
-0.53070232421875,0.00668960693359375,0.6689433203125
-0.358799140625,0.013552136230468751,0.651248125
-0.43782111328125,0.10668646240234375,0.756927763671875
-0.4900971875,0.143204921875,0.8756330322265625
-0.43976626953125,0.1706550390625,1.0307117578125
-0.6724555859375,0.20815385986328125,1.1484339599609374
-0.58711185546875,0.2505544873046875,1.219952041015625
-0.6072928515625,0.2407508740234375,1.05332228515625
-0.5878412890625,0.1784979296875,0.867522734375
-0.37168580078125,0.19099753662109376,0.8648193017578125
-0.30919765625,0.13658748291015624,0.985490703125
-0.407428046875,0.21207530517578124,1.0560257177734376
-0.48985404296875,0.1858506396484375,0.9827872705078124
-0.5168430859375,0.09835339111328124,0.8559717041015625
-0.4477900390625,0.04639424072265625,0.7539785644531249
-0.5664445703125,0.091245771484375,0.731368037109375
-0.56911916015625,0.09394176513671874,0.798216552734375
-0.590272734375,0.00423870361328125,0.8023945849609375
-0.61872064453125,-0.011201987304687501,0.8240220458984375
-0.61969322265625,-0.00654527099609375,0.7645465283203124
-0.610696875,-0.01169216796875,0.6588668896484375
-0.587355,-0.0175743359375,0.5698993798828125
-0.5810332421875,-0.0612004150390625,0.585874208984375
-0.5907590234375,-0.069533486328125,0.6288833642578124
-0.5956219140625,-0.09281706787109376,0.655180390625
-0.549424453125,-0.0543378857421875,0.6313410302734375
-0.4565432421875,-0.02860340087890625,0.6357648291015625
-0.4594609765625,0.04443351806640625,0.6087305029296874
-0.5440752734375,0.00816014892578125,0.632078330078125
-0.6496,-0.0327699365234375,0.744147900390625
-0.681695078125,0.01894412353515625,0.8943112939453125
-0.64765484375,0.13413657958984376,1.0442289208984374
-0.6034025390625,0.101049384765625,1.2133163427734375
-0.54650671875,0.02678701416015625,1.1852989501953124
-0.4604335546875,0.22629054443359375,1.1223827001953124
-0.48815203125,0.21648693115234374,0.97369390625
-0.549424453125,0.16991976806640624,0.9277355517578125
-0.50055240234375,0.12433296630859375,1.00220283203125
-0.47404964843749997,0.08119706787109375,0.880794130859375
-0.35515197265625,0.08953013916015624,0.7788009912109375
-0.3437241796875,0.19933060791015625,0.7952673535156249
-0.31430369140625003,0.16648850341796875,0.7733941259765625
-0.44997833984375,0.17727247802734375,0.8608870361328125
-0.58613927734375,0.10178465576171875,0.985982236328125
-0.67999306640625,0.05423713134765625,1.024813359375
-0.71986876953125,0.1162449853515625,0.9191337207031249
-0.601943671875,0.16991976806640624,0.807064150390625
-0.471618203125,0.1868310009765625,0.7121982421874999
-0.393811953125,0.10619628173828125,0.6374851953125
-0.3417790234375,-0.0004180126953125,0.5797300439453125
-0.39210994140625,-0.059729873046875,0.630112197265625
-0.54237326171875,-0.02909358154296875,0.710723642578125
-0.64303509765625,-0.06928839599609375,0.79379275390625
-0.64303509765625,-0.07811164794921875,0.8087845166015625
-0.55064017578125,-0.09796396484375,0.8441749072265625
-0.5362946484375,0.0044837939453125,0.9198710205078124
-0.48255970703125,0.02237538818359375,1.0329236572265625
-0.39162365234375,0.108892275390625,1.12213693359375
-0.37314466796875,-0.06830803466796875,1.11623853515625
-0.20829267578125,0.021640117187500002,1.23617263671875
-0.51757251953125,-0.29183041748046873,1.1845616503906249
-0.46213556640625,-0.16854998046875,1.090187275390625
-0.5333769140625,-0.07566074462890625,0.8741584326171875
-0.6160460546875,-0.0494360791015625,0.878827998046875
-0.65130201171875,-0.08963089355468751,0.9056165576171875
-0.671969296875,-0.11389483642578124,0.875387265625
-0.46991619140625,0.030708459472656248,0.841471474609375
-0.27929087890625,0.0740894482421875,0.9528037451171875
-0.4273658984375,0.14884199951171875,1.104933271484375
-0.60996744140625,0.15521434814453125,1.1528577587890625
-0.518301953125,-0.028358310546875,0.9896687353515625
-0.563040546875,-0.14281549560546875,0.802148818359375
-0.55453048828125,-0.22222476318359374,0.702859111328125
-0.5112507617187501,-0.18742193603515625,0.6146289013671875
-0.49860724609375,-0.116590830078125,0.50280509765625
-0.47964197265624997,-0.09183670654296874,0.527873291015625
-0.4978778125,-0.159726728515625,0.6942572802734375
-0.626258125,-0.12075736572265625,0.9306847509765624
-0.69433859375,0.0887948681640625,1.0334151904296875
-0.70236236328125,0.2083989501953125,1.105916337890625
-0.610696875,0.31550342529296876,1.172764853515625
-0.35393625,0.182419375,1.1880023828125
-0.2644590625,-0.1043363134765625,1.1848074169921876
-0.4302836328125,0.03904153076171875,1.0294829248046875
-0.60461826171875,0.0936966748046875,0.841471474609375
-0.66516125,0.04051207275390625,0.7891231884765625
-0.55793451171875,0.1691844970703125,0.83311541015625
-0.47283392578125,0.21893783447265625,0.9616513427734374
-0.4045103125,0.2613384619140625,1.073475146484375
-0.51027818359375,0.16011615478515626,1.1204165673828126
-0.53070232421875,-0.08742508056640624,1.0855177099609374
-0.47088876953125003,-0.0925719775390625,1.011541962890625
-0.6510588671875,0.04712951171875,0.876861865234375
-0.596108203125,-0.026397587890625,0.813945615234375
-0.4721044921875,-0.11144393310546875,0.7370206689453125
-0.459947265625,0.06404074462890624,0.8476156396484374
-0.5056584375,0.1329111279296875,0.79575888671875
-0.54529099609375,-0.0023787353515625003,0.7842078564453125
-0.4964189453125,-0.0719843896484375,0.8790737646484375
-0.617504921875,0.0515411376953125,1.0324321240234375
-0.7327554296875,-0.01193725830078125,1.0840431103515624
-0.708927265625,-0.12614935302734376,1.003677431640625
-0.4225030078125,-0.18055940673828125,0.9719735400390626
-0.32791978515625,-0.09281706787109376,0.851302138671875
-0.27515742187500003,-0.03448556884765625,0.8082929833984375
-0.4614061328125,-0.06046514404296875,0.777080625
-0.58370783203125,-0.00801581298828125,0.7252238720703125
-0.561095390625,0.05497240234375,0.7247323388671875
-0.5110076171875,0.08168724853515624,0.7930554541015625
-0.45046462890625,0.085363603515625,0.9321593505859375
-0.408400625,0.16991976806640624,1.10444173828125
-0.28318119140625,0.04541387939453125,1.25681703125
-0.43247193359375,-0.0190448779296875,1.4413877490234375
-0.55015388671875,0.0329142724609375,1.443108115234375
-0.4978778125,0.01747358154296875,1.1307387646484375
-0.4721044921875,0.108892275390625,0.9410069482421874
-0.60267310546875,0.06011929931640625,0.8923451611328125
-0.58176267578125,0.1240878759765625,0.8766160986328125
-0.4759948046875,0.126538779296875,0.804114951171875
-0.5559893554687501,0.12139188232421876,0.746114033203125
-0.60899486328125,0.0936966748046875,0.7458682666015625
-0.617504921875,0.14124419921875,0.7552073974609375
-0.58079009765625,0.22187891845703125,0.850319072265625
-0.65616490234375,0.04443351806640625,0.928964384765625
-0.42590703125,-0.08840544189453126,0.947642646484375
-0.4195852734375,-0.1744321484375,0.9390408154296875
-0.52389427734375,-0.204823349609375,0.70629984375
-0.479398828125,-0.23153819580078125,0.6328156298828125
-0.43198564453125,-0.2670762939453125,0.5979167724609376
-0.25449013671875,-0.11683592041015625,0.5902980078125
-0.37022693359375003,0.00816014892578125,0.82328474609375
-0.47526537109375,-0.10458140380859375,0.7640549951171876
-0.36755234375,0.075559990234375,0.66796025390625
-0.393811953125,0.1005592041015625,0.611433935546875
-0.4925286328125,0.13462676025390624,0.6804943505859375
-0.5450478515625,0.12286242431640625,0.6588668896484375
-0.56571513671875,0.0799716162109375,0.7161305078125
-0.5148979296875,-0.00777072265625,0.8294289111328125
-0.358799140625,-0.1700205224609375,0.777572158203125
-0.557205078125,-0.1239435400390625,0.6141373681640625
-0.5810332421875,-0.0651218603515625,0.48707603515625
-0.5178156640625,-0.11193411376953125,0.4593044091796875
-0.47842625,0.085363603515625,0.6217561328125
-0.51222333984375,0.1436951025390625,0.7999369189453125
-0.38870591796875,0.248103583984375,0.8898874951171875
-0.648627421875,0.04933532470703125,1.0599579833984376
-0.710872421875,-0.030319033203124998,1.0781447119140626
-0.58808443359375,-0.011201987304687501,0.9444476806640625
-0.57203689453125,-0.011201987304687501,0.7802755908203125
-0.321841171875,0.06551128662109375,0.7928096875
-0.26664736328125,-0.0425735498046875,0.8471241064453126
-0.230418828125,-0.0016434643554687498,0.8734211328125
-0.3349709765625,0.0182088525390625,1.015474228515625
-0.5606091015625,0.03806116943359375,0.965337841796875
-0.6588394921875,0.0329142724609375,0.8559717041015625
-0.6230972460937501,-0.10458140380859375,0.7763433251953125
-0.5703348828125,-0.057769150390625,0.766758427734375
-0.49131291015625,0.1157548046875,0.856217470703125
-0.4837754296875,-0.10409122314453124,0.8549886376953125
-0.46286499999999997,-0.2062938916015625,0.9075826904296875
-0.4088869140625,-0.10164031982421876,0.9213456201171875
-0.66102779296875,-0.0435539111328125,0.9007012255859375
-0.69215029296875,-0.04183827880859375,0.8731753662109375
-0.71403330078125,-0.042328459472656246,0.9641090087890625
-0.70771154296875,0.0721287255859375,0.912252255859375
-0.671969296875,0.10766682373046875,0.7670041943359375
-0.5674171484375,0.05913893798828125,0.6846723828125
-0.28512634765625,-0.15359947021484374,0.66599412109375
-0.24670951171875,-0.23104801513671874,0.700892978515625
-0.31333111328125,-0.31928053466796874,0.7714279931640625
-0.4434134375,-0.2607039453125,0.802148818359375
-0.50760359375,-0.19967645263671874,0.8117337158203125
-0.43782111328125,-0.14330567626953125,0.805098017578125
-0.4818302734375,-0.06242586669921875,0.8510563720703125
-0.61677548828125,-0.03105430419921875,0.8572005371093749
-0.70430751953125,-0.04183827880859375,0.8800568310546875
-0.49885039062500003,0.028502646484374998,0.8820229638671875
-0.20148462890625,0.17776265869140626,0.9680412744140625
-0.36487775390625,0.3034939990234375,1.0425085546875
-0.38773333984375,0.30668017333984376,1.19095158203125
-0.43393080078125,-0.0543378857421875,1.42295525390625
-0.64449396484375,-0.0582593310546875,1.4055058251953125
-0.76898396484375,-0.095022880859375,1.0963314404296876
-0.7468578125,-0.108747939453125,0.9188879541015624
-0.71986876953125,-0.0935523388671875,0.71318130859375
-0.57689978515625,0.09982393310546875,0.6819689501953125
-0.19905318359375002,0.11649007568359375,0.605535537109375
-0.13875333984375,0.15815543212890626,0.5821877099609375
-0.1647698046875,0.19295825927734375,0.7271900048828125
-0.27613,0.2799653271484375,0.875878798828125
-0.67950677734375,0.0750698095703125,1.12312
-0.93286337890625,-0.01095689697265625,1.2870463232421876
-0.9642290234374999,-0.030073942871093752,0.97271083984375
-0.84630392578125,0.13536203125,0.74857169921875
-0.302389609375,0.17286085205078125,0.757910830078125
-0.1949197265625,0.03855135009765625,0.706791376953125
-0.36682291015625,-0.134237333984375,0.9936010009765625
-0.6481411328125,-0.2700173779296875,1.10444173828125
-0.5336200585937501,-0.1396293212890625,0.8839890966796875
-0.64449396484375,0.03610044677734375,0.8102591162109375
-0.57179375,0.11207844970703125,0.7252238720703125
-0.71889619140625,0.101049384765625,0.70335064453125
-0.76217591796875,0.02335574951171875,0.8815314306640625
-0.75099126953125,0.09492212646484376,0.9316678173828125
-0.5761703515625,0.1927131689453125,0.983033037109375
-0.346155625,0.1613416064453125,0.841471474609375
-0.26421591796875,-0.10507158447265624,0.7763433251953125
-0.54772244140625,-0.1798241357421875,0.75053783203125
-0.732269140625,-0.09673851318359375,0.59619640625
-0.60121423828125,-0.13497260498046876,0.5689163134765625
-0.61969322265625,-0.1631579931640625,0.6564092236328125
-0.6870442578125,-0.136198056640625,0.8038691845703125
-0.61726177734375,-0.02076051025390625,0.9149556884765625
-0.4623787109375,0.14908708984375,0.9198710205078124
-0.58808443359375,0.14492055419921876,0.8520394384765625
-0.6870442578125,0.14246965087890626,0.7846993896484376
-0.71597845703125,0.1966346142578125,0.840488408203125
-0.5567187890625,0.1407540185546875,0.81148794921875
-0.3203823046875,-0.04698517578125,0.947642646484375
-0.224583359375,-0.09575815185546875,0.9714820068359376
-0.3330258203125,-0.1013952294921875,0.8997181591796874
-0.574711484375,0.03462990478515625,0.8731753662109375
-0.7142764453125,-0.08595453857421875,0.92552365234375
-0.57495462890625,-0.04870080810546875,0.9459222802734375
-0.252788125,-0.00777072265625,1.0609410498046874
-0.43757796875,0.0858537841796875,1.1061621044921874
-0.25594900390624997,0.118695888671875,1.1169758349609376
-0.32937865234375,-0.09869923583984375,1.22830810546875
-0.6454665429687501,-0.20408807861328124,1.2369099365234375
-0.788678671875,-0.0504164404296875,1.1336879638671875
-0.7667956640625,0.087324326171875,0.8913620947265625
-0.65324716796875,0.0686974609375,0.7134270751953125
-0.50590158203125,0.07850107421875,0.7453767333984375
-0.29339326171875,0.0868341455078125,0.840488408203125
-0.3301080859375,-0.05801424072265625,0.8304119775390625
-0.61653234375,0.0976181201171875,0.7837163232421875
-0.54918130859375,0.103010107421875,0.8284458447265625
-0.50784673828125,-0.08154291259765625,0.990897568359375
-0.6218815234375,-0.07320984130859375,1.2550966650390625
-0.7804117578125,0.02482629150390625,1.417548388671875
-0.8402253125,-0.03522083984375,1.2781987255859375
-0.73202599609375,0.0069346972656249995,0.9734481396484375
-0.47964197265624997,-0.12860025634765626,0.7370206689453125
-0.37752126953125,-0.22124440185546876,0.6087305029296874
-0.4730770703125,-0.20702916259765625,0.632078330078125
-0.5576913671875,0.0280124658203125,0.575060478515625
-0.48037140625,-0.06634731201171876,0.508211962890625
-0.49617580078125,-0.1964902783203125,0.4996101318359375
-0.39502767578125,-0.2239403955078125,0.5627721484375
-0.4088869140625,-0.09404251953125001,0.7601227294921875
-0.6145871875,-0.12761989501953125,0.829674677734375
-0.60996744140625,-0.08105273193359375,0.911269189453125
-0.6566511914062501,0.0456589697265625,0.9031588916015625
-0.35806970703125,-0.057769150390625,0.8279543115234375
-0.2892598046875,0.05913893798828125,0.859658203125
-0.41885583984375,-0.02174087158203125,0.7212916064453125
-0.455084375,0.08953013916015624,0.694994580078125
-0.56571513671875,0.01012087158203125,0.690079248046875
-0.5722800390625,0.04345315673828125,0.6215103662109375
-0.5713074609375,0.108892275390625,0.6868842822265625
-0.5756840625,0.03659062744140625,0.7999369189453125
-0.69360916015625,-0.0406128271484375,0.8734211328125
-0.7638779296875,-0.08840544189453126,0.8930824609375
-0.4662690234375,0.03462990478515625,0.791335087890625
-0.56036595703125,0.111833359375,0.784453623046875
-0.56814658203125,0.01796376220703125,0.9206083203125
-0.6209089453125,0.04688442138671875,1.024813359375
-0.6996877734375,0.174576484375,0.9503460791015625
-0.47234763671875,0.09639266845703125,0.7060540771484375
-0.39356880859375,0.11747043701171875,0.707774443359375
-0.5275414453125,0.096147578125,0.6976980126953125
-0.44171142578125,0.15472416748046874,0.84884447265625
-0.54723615234375,0.2005560595703125,0.985982236328125
-0.74223806640625,0.13070531494140625,1.087238076171875
-0.6230972460937501,0.03708080810546875,0.98254150390625
-0.3738741015625,-0.0033590966796874996,1.00613509765625
-0.45702953125,-0.068553125,1.1715360205078125
-0.673914453125,-0.04477936279296875,1.11525546875
-0.638901640625,-0.17810850341796874,0.7891231884765625
-0.40475345703125,-0.09575815185546875,0.65812958984375
-0.422989296875,-0.14477621826171874,0.5482719189453125
-0.392839375,-0.20997024658203126,0.6224934326171875
-0.518301953125,-0.21046042724609376,0.7561904638671875
-0.62650126953125,-0.13105115966796876,0.784453623046875
-0.73056712890625,-0.05311243408203125,0.812471015625
-0.6919071484375,0.026541923828125,0.8181236474609375
-0.56206796875,-0.00850599365234375,0.8805483642578125
-0.553314765625,-0.09036616455078125,1.024813359375
-0.5547736328125,0.080461796875,1.0599579833984376
-0.54261640625,-0.08938580322265625,0.9596852099609375
-0.366579765625,0.040266982421875,0.9196252539062499
-0.3767918359375,0.14099910888671874,0.965337841796875
-0.54918130859375,-0.1062970361328125,0.918150654296875
-0.5912453125,-0.085219267578125,0.9695158740234375
-0.71840990234375,-0.1268846240234375,0.828200078125
-0.683640234375,0.03536517578125,0.7566819970703125
-0.56231111328125,0.05105095703125,0.7694618603515625
-0.55161275390625,0.12433296630859375,0.8569547705078124
-0.4511940625,0.038306259765625,0.9196252539062499
-0.46286499999999997,0.07482471923828125,0.9953213671875
-0.58176267578125,0.18119392333984374,0.9778719384765625
-0.64376453125,0.05962911865234375,1.016948828125
-0.63476818359375,-0.146001669921875,1.056763017578125
-0.6223678125,-0.1357078759765625,0.9316678173828125
-0.44049570312499997,-0.0023787353515625003,0.789368955078125
-0.4166675390625,-0.10164031982421876,0.76233462890625
-0.48401857421875,-0.13693332763671875,0.862115869140625
-0.76047390625,-0.155805283203125,0.8778449316406249
-0.76898396484375,-0.14967802490234375,0.891116328125
-0.5343494921875,-0.23153819580078125,0.8427003076171875
-0.391866796875,-0.0651218603515625,0.86457353515625
-0.28804408203125,0.019679394531249998,0.78396208984375
-0.2970404296875,-0.18252012939453124,0.806081083984375
-0.438550546875,-0.13717841796875,0.8544971044921875
-0.5139253515625,-0.0567887890625,0.7512751318359375
-0.53848294921875,-0.067572763671875,0.7753602587890625
-0.59100216796875,-0.0161037939453125,0.928964384765625
-0.7230296484375,0.0319339111328125,0.9641090087890625
-0.58176267578125,-0.00507472900390625,1.0452119873046875
-0.4215304296875,0.01453249755859375,1.0545511181640626
-0.40937320312500003,0.14345001220703124,1.0189149609375
-0.31089966796875,0.10129447509765625,1.064136015625
-0.52681201171875,0.11747043701171875,1.1140266357421875
-0.5528284765625,0.057668395996093746,1.0358728564453126
-0.60510455078125,-0.061690595703125004,0.9434646142578125
-0.517329375,-0.12761989501953125,0.7724110595703125
-0.4059691796875,-0.1195319140625,0.666485654296875
-0.376305546875,0.00521906494140625,0.6790197509765625
-0.30627992187499997,-0.044044091796875,0.840488408203125
-0.45678638671875,0.0329142724609375,1.0110504296875
-0.6510588671875,-0.1038461328125,1.028745625
-0.629175859375,-0.16070708984375,1.014491162109375
-0.3111428125,-0.0298288525390625,0.888658662109375
-0.286828359375,0.15031254150390624,0.8658023681640625
-0.43344451171875,0.05913893798828125,0.78494515625
-0.44754689453125,-0.1592365478515625,0.7778179248046875
-0.3500459375,-0.02223105224609375,0.8048522509765625
-0.23795630859375,-0.0386521044921875,0.7502920654296875
-0.263486484375,0.0387964404296875,0.8245135791015625
-0.3194097265625,-0.01389798095703125,0.9277355517578125
-0.3500459375,-0.035711020507812496,1.1155012353515625
-0.42371873046874997,0.046149150390625,1.199307646484375
-0.56766029296875,0.150067451171875,1.1504000927734375
-0.33570041015625,-0.00703545166015625,0.9714820068359376
-0.315033125,0.0407571630859375,0.9815584374999999
-0.19516287109375,-0.067572763671875,0.9464138134765625
-0.27442798828125,-0.12958061767578125,0.9614055761718749
-0.228473671875,-0.08105273193359375,0.9065996240234375
-0.286828359375,-0.147962392578125,0.9245405859375
-0.3563676953125,-0.0562986083984375,1.00515203125
-0.24914095703125,0.00325834228515625,1.0936280078125
-0.26761994140625,0.06796218994140625,1.134916796875
-0.17814275390625,0.1260485986328125,1.223884306640625
-0.23260712890625002,0.03413972412109375,1.2949108544921875
-0.22677166015625,-0.096983603515625,1.25386783203125
-0.36147373046875,-0.032279755859375,1.1685868212890624
-0.4633512890625,-0.10556176513671875,0.947642646484375
-0.380195859375,-0.19379428466796875,0.7399698681640625
-0.25692158203125,-0.08938580322265625,0.6480531591796875
-0.24184662109375,0.0037485229492187503,0.5590856494140625
-0.1968648828125,-0.029338671875,0.468889306640625
-0.2056180859375,-0.01095689697265625,0.5384412548828125
-0.20804953125,-0.0739451123046875,0.681231650390625
-0.2153438671875,-0.087179990234375,0.9011927587890625
-0.30603677734375,0.040266982421875,1.1386032958984376
-0.3344846875,0.09247122314453125,1.268122294921875
-0.277102578125,-0.05899460205078125,1.250427099609375
-0.3072525,0.0054641552734375,1.181612451171875
-0.391866796875,-0.08056255126953125,0.9469053466796875
-0.21412814453125,-0.1553151025390625,0.730384970703125
-0.21169669921875,-0.057769150390625,0.6913080810546874
-0.24938410156250002,-0.04085791748046875,0.6492819921874999
-0.35855599609375,-0.128355166015625,0.66009572265625
-0.3933256640625,-0.051886982421875,0.6529684912109375
-0.237226875,0.0515411376953125,0.627162998046875
-0.15139685546875,0.040266982421875,0.6922911474609375
-0.14604767578125,0.13732275390625,0.9587021435546875
-0.20294349609375,0.1789881103515625,1.143272861328125
-0.237226875,0.057668395996093746,1.26173236328125
-0.31965287109375,0.03512008544921875,1.41705685546875
-0.48304599609375,0.02531647216796875,1.2017653125
-0.31235853515625,-0.05090662109375,0.9110234228515625
-0.18300564453125,0.06624655761718751,0.8065726171875
-0.148722265625,-0.07664110595703125,0.72301197265625
-0.15674603515625,-0.13987441162109376,0.6937657470703125
-0.1997826171875,-0.0964934228515625,0.673367119140625
-0.175954453125,-0.02762303955078125,0.596687939453125
-0.17765646484375,-0.08840544189453126,0.657638056640625
-0.23357970703125,-0.09477779052734375,0.7439021337890624
-0.21607330078125,-0.03497574951171875,0.6765620849609375
-0.15042427734375,-0.0386521044921875,0.6234764990234375
-0.10422681640625,0.0451687890625,0.7670041943359375
-0.15723232421875,-0.02615249755859375,0.968287041015625
-0.26227076171875,0.00227798095703125,1.071509013671875
-0.38505875,0.12531332763671876,1.115747001953125
-0.3033621875,-0.04870080810546875,0.9562444775390625
-0.366579765625,0.06060947998046875,0.9011927587890625
-0.33253953125,0.093206494140625,0.810996416015625
-0.22239505859375,0.04712951171875,0.7746229589843749
-0.11492517578125,0.06158984130859375,0.90782845703125
-0.09425789062500001,0.048109873046875,1.0825685107421874
-0.12124693359375,0.032424091796875,1.2374014697265625
-0.33570041015625,0.01404231689453125,1.2767241259765625
-0.3967296875,-0.118551552734375,1.089204208984375
-0.32402947265625,-0.104826494140625,1.0098215966796875
-0.33035123046875,-0.08987598388671875,0.9245405859375
-0.2172890234375,-0.13987441162109376,0.7886316552734375
-0.11784291015625001,-0.16193254150390626,0.6913080810546874
-0.1881116796875,-0.21536223388671874,0.7085117431640625
-0.2211793359375,-0.18350049072265626,0.7689703271484375
-0.24038775390625,-0.0229663232421875,0.8242678125
-0.174981875,0.09786321044921875,0.908319990234375
-0.17425244140625,0.13805802490234376,1.012525029296875
-0.17279357421875,0.02874773681640625,1.160968056640625
-0.1715778515625,-0.06536695068359374,1.289749755859375
-0.19953947265625,0.05080586669921875,1.31973328125
-0.31381740234375,0.0059543359375,1.20471451171875
-0.35515197265625,-0.07051384765625,1.1051790380859374
-0.4176401171875,-0.04772044677734375,0.974185439453125
-0.29047552734375,-0.081297822265625,0.7620888623046875
-0.244034921875,-0.00801581298828125,0.642892060546875
-0.1579617578125,0.01747358154296875,0.6593584228515625
-0.10568568359375,0.0221302978515625,0.8500733056640625
-0.21655958984375,0.0407571630859375,1.15949345703125
-0.35588140625,0.00570924560546875,1.393954794921875
-0.374360390625,0.004973974609375,1.5426435888671874
-0.37654869140625,0.0922261328125,1.459820244140625
-0.352963671875,0.0387964404296875,1.2103671435546874
-0.30068759765624997,-0.00360418701171875,1.1258234326171874
-0.23455228515625,-0.00777072265625,1.1086197705078125
-0.213885,-0.0749254736328125,1.1297556982421875
-0.1647698046875,-0.13987441162109376,1.1081282373046875
-0.21996361328125,-0.146001669921875,1.0791277783203126
-0.316005703125,-0.087179990234375,1.026287958984375
-0.40621232421875,-0.048945898437499996,0.9599309765625
-0.42080099609375,-0.06585713134765625,0.9203625537109374
-0.34883021484375,-0.0827683642578125,0.853268271484375
-0.24914095703125,-0.187176845703125,0.8097675830078125
-0.1633109375,-0.1744321484375,0.718588173828125
-0.12319208984375,-0.15457983154296875,0.73087650390625
-0.15066742187499998,-0.19036302001953126,0.791335087890625
-0.28585578125,-0.22761675048828126,1.0127707958984375
-0.31430369140625003,-0.1278649853515625,1.181612451171875
-0.30798193359375,-0.047965537109375,1.20274837890625
-0.29169125,0.09933375244140626,1.1676037548828124
-0.33642984375,0.11796061767578125,1.047915419921875
-0.44365658203125,0.04124734375,0.9031588916015625
-0.39089421875,0.024091020507812498,0.7257154052734375
-0.273212265625,-0.01291761962890625,0.6244595654296875
-0.1871391015625,-0.03522083984375,0.580958876953125
-0.16185207031249998,-0.06291604736328126,0.659604189453125
-0.0743200390625,-0.02272123291015625,0.77216529296875
-0.08234380859375,-0.06242586669921875,0.9520664453125
-0.28220861328125,0.06109966064453125,1.2197062744140625
-0.458002109375,0.071638544921875,1.4522014794921876
-0.44511544921875,0.11796061767578125,1.403785458984375
-0.415208671875,0.21207530517578124,1.266156162109375
-0.38141158203125003,-0.013652890625,1.0540595849609375
-0.2630001953125,-0.15997181884765624,0.8377849755859375
-0.12756869140625,-0.16193254150390626,0.6362563623046875
-0.09109701171875,-0.1131595654296875,0.536720888671875
-0.049519296875,-0.061690595703125004,0.529839423828125
-0.03031087890625,-0.0955130615234375,0.7188339404296875
-0.03079716796875,-0.206784072265625,0.9206083203125
-0.22701480468750002,-0.22663638916015624,1.1002637060546876
-0.44706060546875,0.0137972265625,1.0786362451171876
-0.35320681640625,0.05815857666015625,0.989914501953125
-0.1788721875,0.11060790771484375,0.8984893261718749
-0.05632734375,0.0574233056640625,0.8358188427734374
-0.1141957421875,-0.012427438964843749,0.8220559130859375
-0.2279873828125,-0.0396324658203125,0.841471474609375
-0.33813185546875,-0.0670825830078125,0.72104583984375
-0.1929745703125,0.01110123291015625,0.6052897705078125
-0.22920310546875,0.12874459228515625,0.6583753564453125
-0.1696326953125,0.19344843994140626,0.7262069384765625
-0.22142248046875002,0.23805488037109374,0.9218371533203125
-0.24184662109375,0.29025912109375,1.11525546875
-0.226528515625,0.2309472607421875,1.2673849951171876
-0.31308796875,0.14982236083984374,1.3342335107421874
-0.401592578125,0.0358553564453125,1.2767241259765625
-0.3563676953125,-0.0268877685546875,0.990897568359375
-0.3485870703125,-0.015368522949218751,0.749063232421875
-0.28415376953125,0.0642858349609375,0.726452705078125
-0.4147223828125,-0.01144707763671875,0.68762158203125
-0.45046462890625,-0.028113220214843748,0.725469638671875
-0.41107521484375,-0.05262225341796875,0.762826162109375
-0.29193439453125003,-0.1170810107421875,0.7930554541015625
-0.2571647265625,0.0093856005859375,0.868997333984375
-0.27588685546875,0.0593840283203125,0.9591936767578125
-0.52389427734375,0.0289928271484375,1.0353813232421876
-0.5489381640625,-0.07124911865234375,0.943710380859375
-0.4244481640625,0.00227798095703125,0.89209939453125
-0.39016478515624997,-0.01561361328125,0.885709462890625
-0.366579765625,-0.14771730224609375,0.8038691845703125
-0.3038484765625,-0.17124597412109374,0.805098017578125
-0.3923530859375,-0.1945295556640625,0.804114951171875
-0.4507077734375,-0.17320669677734374,0.8313950439453125
-0.50881931640625,-0.1822750390625,0.8205813134765625
-0.434660234375,-0.06732767333984375,0.82525087890625
-0.44073884765625,-0.030073942871093752,0.906353857421875
-0.53094546875,-0.11438501708984375,0.9454307470703125
-0.36244630859375,0.0280124658203125,0.9245405859375
-0.3544225390625,-0.0592396923828125,0.868014267578125
-0.36876806640625,0.03659062744140625,1.0058893310546875
-0.4001337109375,-0.02027032958984375,1.1828412841796876
-0.475508515625,0.07286399658203124,1.38264953125
-0.5336200585937501,0.07139345458984375,1.5116769970703126
-0.7347005859375,0.0044837939453125,1.4005904931640625
-0.71695103515625,-0.008751083984375,1.0520934521484375
-0.599998515625,-0.07271966064453125,0.8544971044921875
-0.51149390625,-0.07075893798828126,0.752012431640625
-0.391866796875,-0.05874951171875,0.7335799365234374
-0.304334765625,-0.11291447509765624,0.692045380859375
-0.44462916015625,-0.15752091552734376,0.73874103515625
-0.33642984375,-0.19967645263671874,0.79969115234375
-0.35199109375,-0.22222476318359374,0.9041419580078125
-0.4400094140625,-0.10458140380859375,1.1130435693359375
-0.3816547265625,-0.07370002197265625,1.1204165673828126
-0.4156949609375,-0.03203466552734375,1.1907058154296875
-0.529972890625,-0.07909200927734375,1.203239912109375
-0.4322287890625,-0.1102184814453125,1.0683140478515625
-0.26616107421875,-0.12149263671875,0.9528037451171875
-0.16549923828125,-0.06732767333984375,0.8746499658203125
-0.12902755859375,-0.1111988427734375,1.0044147314453125
-0.20488865234375,-0.17124597412109374,1.11034013671875
-0.31333111328125,-0.075415654296875,1.2585373974609375
-0.33813185546875,0.0451687890625,1.27254609375
-0.41302037109375,0.03021827880859375,1.18603625
-0.4400094140625,0.06624655761718751,1.1621968896484376
-0.40037685546875,-0.01487834228515625,1.040542421875
-0.3320532421875,-0.036201201171875,0.9469053466796875
-0.2177753125,-0.06291604736328126,0.8825144970703125
-0.29339326171875,-0.06291604736328126,0.9065996240234375
-0.26470220703125,-0.18693175537109374,1.010558896484375
-0.38627447265625,-0.10286577148437501,1.211104443359375
-0.42760904296875,-0.03889719482421875,1.1823497509765626
-0.46991619140625,-0.052867343750000004,1.1233657666015624
-0.42080099609375,-0.05874951171875,0.933879716796875
-0.23357970703125,-0.14134495361328125,0.713672841796875
-0.17376615234375,-0.09820905517578125,0.6532142578125
-0.30530734375,-0.1935491943359375,0.6256883984375
-0.43636224609375,-0.18423576171875,0.63453599609375
-0.43441708984375,-0.2160975048828125,0.6298664306640624
-0.2878009375,-0.118551552734375,0.650756591796875
-0.12343523437500001,-0.04379900146484375,0.7554531640625
-0.263486484375,-0.13987441162109376,0.8301662109375
-0.5294866015625,-0.15899145751953125,0.853268271484375
-0.53021603515625,-0.1229631787109375,0.651248125
-0.2182616015625,-0.0719843896484375,0.6013575048828125
-0.26713365234374997,0.08168724853515624,0.683197783203125
-0.3388612890625,0.18658591064453126,0.713672841796875
-0.2678630859375,0.23462361572265625,0.7591396630859375
-0.38578818359375,0.1471263671875,0.8970147265625
-0.4283384765625,0.111833359375,0.890624794921875
-0.42979734375,0.0574233056640625,0.847369873046875
-0.32864921874999997,0.09786321044921875,0.91176072265625
-0.43830740234375,0.118695888671875,0.9896687353515625
-0.50541529296875,0.0378160791015625,0.9405154150390624
-0.39065107421875,-0.00703545166015625,0.8127167822265625
-0.284883203125,0.07188363525390624,0.784453623046875
-0.2766162890625,0.0922261328125,0.8225474462890625
-0.19637859375,-0.013652890625,0.8267254785156251
-0.1968648828125,0.16158669677734375,0.934862783203125
-0.36098744140625,0.09884357177734375,1.0638902490234374
-0.3388612890625,0.00472888427734375,1.19390078125
-0.3972159765625,0.04590406005859375,1.2231470068359376
-0.41885583984375,-0.04526954345703125,1.264190029296875
-0.518301953125,-0.1195319140625,1.2285538720703124
-0.4954463671875,-0.16830489013671876,0.92552365234375
-0.34591248046875,-0.1778634130859375,0.686146982421875
-0.30141703125,-0.2092349755859375,0.5477803857421875
-0.26616107421875,-0.17663796142578125,0.4937117333984375
-0.22336763671875,-0.057278969726562504,0.4534060107421875
-0.16452666015625,0.00865032958984375,0.432515849609375
-0.2250696484375,0.0486000537109375,0.526890224609375
-0.3709563671875,0.04712951171875,0.6465785595703125
-0.44414287109375,0.00791505859375,0.79772501953125
-0.48936775390625,0.093206494140625,0.9990078662109375
-0.4798851171875,0.220653466796875,1.1577730908203125
-0.37800755859375,0.10717664306640624,1.2949108544921875
-0.329621796875,-0.0680629443359375,1.4320486181640626
-0.49131291015625,-0.1195319140625,1.4408962158203125
-0.3612305859375,-0.0190448779296875,1.3479964404296876
-0.4351465234375,-0.022476142578125,1.3334962109375
-0.4283384765625,0.05815857666015625,1.3253859130859376
-0.44706060546875,-0.04330882080078125,1.2961396875
-0.36196001953125,-0.0016434643554687498,1.1941465478515625
-0.3855450390625,0.09296140380859375,1.12312
-0.43830740234375,-0.065612041015625,1.012525029296875
-0.42031470703125,-0.008996174316406251,0.9670582080078125
-0.4477900390625,-0.11389483642578124,0.969761640625
-0.40645546875,-0.15114856689453124,1.058729150390625
-0.43174250000000003,-0.16781470947265625,1.1327048974609375
-0.50954875,-0.2229600341796875,1.084288876953125
-0.48304599609375,-0.20212735595703124,0.9311762841796875
-0.4278521875,-0.24918469970703125,0.7905977880859375
-0.3213548828125,-0.24624361572265624,0.5826792431640625
-0.14847912109375,-0.20948006591796875,0.582925009765625
-0.1093328515625,-0.236194912109375,0.6234764990234375
-0.212912421875,-0.2758995458984375,0.8132083154296875
-0.4545980859375,-0.09281706787109376,0.71318130859375
-0.237226875,0.0936966748046875,1.090187275390625
-0.5304591796875,0.0397768017578125,1.3130975830078124
-0.51538421875,0.04100225341796875,1.4753035400390626
-0.5965944921875,0.0887948681640625,1.463752509765625
-0.708927265625,-0.00801581298828125,1.2359268701171875
-0.60315939453125,-0.03448556884765625,1.0206353271484374
-0.4234755859375,-0.0513968017578125,0.829674677734375
-0.31576255859375,-0.0219859619140625,0.715638974609375
-0.24768208984375,-0.04772044677734375,0.6436293603515625
-0.185680234375,-0.12712971435546874,0.6020948046875
-0.07699462890625,-0.0749254736328125,0.7242408056640625
-0.21315556640625,-0.179333955078125,0.9481341796875
-0.470645625,-0.1602169091796875,1.0801108447265624
-0.53751037109375,-0.1621776318359375,1.0530765185546875
-0.51757251953125,-0.01438816162109375,0.8943112939453125
-0.4594609765625,-0.1474722119140625,0.6571465234375
-0.34299474609375,-0.10507158447265624,0.5460600195312499
-0.14750654296875,0.021885207519531248,0.5045254638671874
-0.11054857421875,0.03462990478515625,0.501330498046875
-0.09401474609375,-0.09771887451171875,0.6067643701171875
-0.2177753125,-0.12516899169921875,0.7561904638671875
-0.1073876953125,0.06796218994140625,0.9719735400390626
-0.08866556640625001,0.057668395996093746,1.2162655419921875
-0.1968648828125,0.06673673828125,1.5615676171875
-0.29971501953125,0.14639109619140625,1.749824833984375
-0.48742259765625,0.21158512451171874,1.507007431640625
-0.47672423828125,0.1231075146484375,1.294665087890625
-0.45411179687500003,0.11256863037109376,1.0722463134765625
-0.44025255859375,0.15864561279296874,0.9257694189453125
-0.2746711328125,0.146146005859375,0.802148818359375
-0.26129818359375,0.128499501953125,0.7561904638671875
-0.27418484375,0.03536517578125,0.7935469873046875
-0.30652306640625,-0.01193725830078125,0.8048522509765625
-0.17522501953125,-0.01291761962890625,0.8353273095703125
-0.2036729296875,-0.0043394580078125,0.8623616357421875
-0.212912421875,0.02482629150390625,0.9872110693359375
-0.3553951171875,-0.00752563232421875,1.087238076171875
-0.53702408203125,0.03119864013671875,1.0661021484375
-0.51927453125,-0.015368522949218751,0.8623616357421875
-0.39745912109375,-0.0415931884765625,0.78002982421875
-0.26154132812499997,-0.02174087158203125,0.668451787109375
-0.331566953125,-0.09845414550781251,0.592264140625
-0.22531279296875,-0.09722869384765626,0.5644925146484375
-0.23795630859375,-0.1435507666015625,0.6126627685546875
-0.2561921484375,-0.16585398681640626,0.6819689501953125
-0.21607330078125,-0.069533486328125,0.83311541015625
-0.26616107421875,-0.06144550537109375,0.961897109375
-0.255705859375,-0.00458454833984375,1.1056705712890624
-0.37703498046875,-0.00605509033203125,1.194392314453125
-0.27296912109375,0.05497240234375,1.189968515625
-0.20148462890625,0.01600303955078125,1.1454847607421874
-0.38724705078125,0.01575794921875,1.121645400390625
-0.3631757421875,-0.0249270458984375,0.99630443359375
-0.1706052734375,-0.1504132958984375,0.7945300537109374
-0.1482359765625,-0.1641383544921875,0.78494515625
-0.32889236328125,-0.0768861962890625,0.839996875
-0.2970404296875,-0.059729873046875,0.92552365234375
-0.20634751953125,-0.09379742919921875,1.0393135888671874
-0.3544225390625,0.0270321044921875,1.0422627880859374
-0.33035123046875,0.09884357177734375,0.914709921875
-0.1103054296875,0.03708080810546875,0.8707177001953125
-0.061676523437500005,0.0770305322265625,0.961897109375
-0.21266927734375,-0.09869923583984375,1.0997721728515626
-0.29582470703125,-0.1347275146484375,1.2138078759765625
-0.2114535546875,-0.1587463671875,1.1916888818359375
-0.1978374609375,0.01159141357421875,1.094119541015625
-0.39478453125,0.00178780029296875,1.0395593554687501
-0.34396732421875,-0.0876701708984375,1.118696201171875
-0.38432931640625,-0.0001729223632812504,1.195375380859375
-0.384086171875,-0.05409279541015625,1.0761785791015626
-0.300444453125,-0.1092381201171875,0.855234404296875
-0.10106593750000001,-0.09820905517578125,0.7004014453125
-0.0388209375,-0.038161923828125,0.6185611669921875
-0.06337853515625,-0.02713285888671875,0.53229708984375
-0.131215859375,-0.11830646240234374,0.5974252392578125
-0.17133470703125,0.03168882080078125,0.899472392578125
-0.2289599609375,0.0035034326171875,1.2781987255859375
-0.37508982421875,0.12678386962890625,1.511922763671875
-0.4341739453125,0.14688127685546876,1.6065429052734375
-0.49520322265625,0.05325677001953125,1.4438454150390625
-0.3573402734375,0.21599675048828126,1.1919346484375
-0.45581380859375,0.20080114990234374,0.9272440185546875
-0.28512634765625,0.2789849658203125,0.985490703125
-0.31989601562500003,0.20570295654296875,1.0894499755859375
-0.4409819921875,0.07629526123046874,1.1636714892578124
-0.39818855468750003,0.08168724853515624,1.1700614208984375
-0.44292714843750003,-0.05997496337890625,1.0137538623046876
-0.34250845703125,-0.034240478515625,0.896523193359375
-0.2824517578125,0.024091020507812498,0.765283828125
-0.13948277343749999,-0.00409436767578125,0.755944697265625
-0.1978374609375,-0.05850442138671875,1.0363643896484376
-0.3291355078125,-0.08889562255859375,1.33251314453125
-0.37752126953125,-0.110708662109375,1.402310859375
-0.39478453125,-0.09134652587890625,1.218968974609375
-0.35612455078125,-0.1808044970703125,0.929947451171875
-0.23114826171875,-0.24722397705078125,0.708757509765625
-0.185680234375,-0.2641352099609375,0.6347817626953125
-0.17036212890625,-0.28643843017578124,0.5895607080078125
-0.1793584765625,-0.2739388232421875,0.5787469775390625
-0.14361623046875,-0.2781053588867187,0.6554261572265625
-0.156502890625,-0.28790897216796874,0.7325968701171874
-0.22044990234375,-0.08399381591796876,0.76626689453125
-0.27151025390625,0.02776737548828125,0.8377849755859375
-0.30652306640625,0.1015395654296875,0.8992266259765624
-0.284883203125,0.155949619140625,0.9518206787109375
-0.2581373046875,0.17923320068359375,1.091170341796875
-0.44365658203125,0.17923320068359375,1.064627548828125
-0.39575710937499997,0.1574201611328125,0.87440419921875
-0.24379177734375002,0.13364639892578126,0.85081060546875
-0.2027003515625,0.1211467919921875,1.0309575244140625
-0.39940427734375,0.1858506396484375,1.2329776708984375
-0.39502767578125,0.118695888671875,1.31186875
-0.37606240234375,0.04492369873046875,1.20078224609375
-0.34493990234375,0.09590248779296875,1.1666206884765624
-0.3563676953125,0.07139345458984375,1.12410306640625
-0.4263933203125,0.06306038330078124,1.0722463134765625
-0.32451576171875,0.021885207519531248,0.8923451611328125
-0.32062544921875,0.03806116943359375,0.8097675830078125
-0.32159802734375,-0.06781785400390625,0.735300302734375
-0.22434021484375,-0.15703073486328126,0.8859552294921875
-0.3184371484375,-0.1935491943359375,1.0346440234375
-0.4254207421875,-0.063651318359375,1.129509931640625
-0.356853984375,-0.20384298828125,1.06020375
-0.46286499999999997,-0.12541408203125,0.859658203125
-0.40134943359374997,-0.15457983154296875,0.6650110546875
-0.24622322265625,-0.17565760009765624,0.5551533837890625
-0.2056180859375,-0.11438501708984375,0.5079661962890625
-0.22336763671875,-0.03546593017578125,0.5875945751953124
-0.103983671875,-0.071494208984375,0.7001556787109375
-0.2240970703125,-0.1445311279296875,0.9921264013671875
-0.3641483203125,-0.05360261474609375,1.2772156591796875
-0.44219771484375,-0.087179990234375,1.3484879736328126
-0.3991611328125,-0.02149578125,1.268613828125
-0.26178447265625,0.101049384765625,1.2108586767578124
-0.14629082031250001,0.10913736572265625,1.2437914013671876
-0.46091984375,0.01453249755859375,1.3084280175781249
-0.419098984375,0.08511851318359374,1.3135891162109374
-0.5032269921875,-0.030319033203124998,1.005643564453125
-0.29485212890625,0.030708459472656248,0.84491220703125
-0.3038484765625,-0.07517056396484376,0.8082929833984375
-0.2309051171875,-0.03448556884765625,0.8952943603515625
-0.32354318359375,-0.07026875732421875,0.9011927587890625
-0.38043900390625,-0.1543347412109375,0.8778449316406249
-0.16209521484375,-0.03938737548828125,1.0029401318359374
-0.48304599609375,-0.03987755615234375,1.151137392578125
-0.50103869140625,0.0976181201171875,1.1739936865234375
-0.335457265625,-0.05556333740234375,1.0437373876953124
-0.40718490234375,0.00865032958984375,1.0570087841796876
-0.4030514453125,0.01208159423828125,0.9808211376953125
-0.370470078125,0.00791505859375,0.8997181591796874
-0.34396732421875,0.0201695751953125,0.8869382958984375
-0.37411724609375,-0.0327699365234375,1.026287958984375
-0.3612305859375,-0.1023755908203125,1.04939001953125
-0.37168580078125,-0.15114856689453124,1.072492080078125
-0.19832375,0.16256705810546876,1.172764853515625
-0.3602580078125,0.00570924560546875,1.2182316748046875
-0.5353220703125,0.06060947998046875,1.2155282421875
-0.3748466796875,0.2015364208984375,1.1408151953125
-0.4978778125,-0.07762146728515625,1.180629384765625
-0.6423056640625,-0.14673694091796874,1.2359268701171875
-0.43295822265625,-0.2631548486328125,0.9242948193359375
-0.086477265625,-0.21438187255859376,0.6165950341796875
-0.03760521484375,-0.15678564453125,0.43399044921874996
-0.009400449218749999,-0.11193411376953125,0.324870078125
-0.00502384765625,-0.13154134033203124,0.3496925048828125
0.001784199218750001,-0.17418705810546875,0.4251428515625
0.0034862109374999978,-0.1979608203125,0.5738316455078125
-0.10544253906250001,-0.263645029296875,0.866048134765625
-0.0655668359375,-0.353838271484375,1.0737209130859375
0.03874216796875,-0.3915821826171875,1.11623853515625
0.02123576171875,-0.4111894091796875,1.103950205078125
-0.26664736328125,-0.25751777099609374,0.99040603515625
-0.2630001953125,0.05913893798828125,0.8717007666015625
-0.288773515625,0.10619628173828125,0.925032119140625
-0.25084296875,0.19099753662109376,0.916184521484375
-0.28123603515625,0.2436919580078125,0.93535431640625
-0.2202067578125,0.32432667724609376,0.9196252539062499
-0.1599069140625,0.32947357421875,1.04545775390625
-0.32305689453124997,0.434372236328125,1.3809291650390625
-0.5012818359375,0.5091247875976562,1.5829493115234374
-0.66200037109375,0.4456463916015625,1.7699776953125
-0.8912856640625,0.3164837866210938,1.4925072021484376
-0.75488158203125,0.37481528564453126,1.2118417431640625
-0.3811684375,0.06281529296875,1.0621698828125
-0.31770771484375,-0.3111925537109375,1.0417712548828124
-0.45921783203125,-0.33006450927734376,0.892590927734375
-0.516356796875,-0.27516427490234374,0.6915538476562499
-0.53410634765625,-0.28300716552734373,0.5010847314453125
-0.44122513671875,-0.28888933349609375,0.35092133789062496
-0.17960162109375,-0.0016434643554687498,0.4204732861328125
-0.32743349609375,-0.12369844970703125,0.7065456103515625
-0.49374435546875,-0.32810378662109374,0.7969877197265625
-0.5606091015625,-0.40604251220703125,1.026287958984375
-0.43757796875,-0.14698203125,1.223884306640625
-0.75269328125,-0.2621744873046875,1.3076907177734376
-0.79670244140625,-0.3160943603515625,1.3848614306640625
-0.41836955078125,-0.12933552734375,1.2949108544921875
-0.360744296875,0.0976181201171875,1.24207103515625
-0.26640421875,0.13707766357421874,1.2850801904296876
-0.21364185546875,0.00865032958984375,1.3706069677734374
-0.38821962890625,-0.191098291015625,1.246494833984375
-0.52875716796875,-0.19918627197265626,1.0294829248046875
-0.54869501953125,-0.13889405029296875,0.8368019091796874
-0.44365658203125,-0.057278969726562504,0.7163762744140625
-0.18349193359375,-0.081297822265625,0.6264256982421875
-0.18227621093750002,-0.198941181640625,0.6765620849609375
-0.103983671875,-0.13742350830078126,0.9700074072265625
-0.2488978125,-0.05899460205078125,1.46424404296875
-0.3967296875,-0.1749223291015625,1.8395296435546875
-0.34421046875,-0.2136466015625,2.0562957861328126
-0.5367809375,0.04247279541015625,1.73557037109375
-0.6296621484375,0.10178465576171875,1.3089195507812499
-0.506631015625,0.0294830078125,0.8048522509765625
-0.18251935546875,-0.012672529296875,0.56178908203125
-0.24427806640625,-0.05874951171875,0.5042796972656249
-0.3213548828125,-0.12149263671875,0.3683707666015625
-0.392839375,-0.11242429443359375,0.239834833984375
-0.3038484765625,-0.11340465576171875,0.1103158349609375
-0.1920019921875,-0.10409122314453124,0.028229790039062494
-0.14993798828125,-0.06536695068359374,-0.004211401367187506
-0.13389044921874999,-0.051886982421875,0.022085624999999998
-0.11832919921875,-0.030319033203124998,0.028229790039062494
-0.08380267578125,-0.0009081933593750001,0.11326503417968749
-0.10519939453125,0.0530116796875,0.172986318359375
-0.23212083984375,0.0172284912109375,0.32192087890625
-0.35320681640625,0.050070595703125,0.7276815380859375
-0.48693630859375,0.112813720703125,1.052830751953125
-0.6627298046875,0.191242626953125,1.34627607421875
-0.68971884765625,0.4407445849609375,1.3769968994140624
-0.2503566796875,0.378491640625,1.7648165966796876
-0.16112263671875,0.1495772705078125,1.6207973681640624
-0.17960162109375,0.175556845703125,1.2491982666015624
-0.2231244921875,0.1471263671875,0.8717007666015625
-0.1015522265625,0.06600146728515625,0.6701721533203124
0.024396640625,0.0255615625,1.0393135888671874
0.28723587890625,-0.04428918212890625,1.4900495361328125
-0.0889087109375,-0.27271337158203124,1.7149259765625
-0.72181392578125,-0.19600009765625,1.3966582275390624
-0.7308102734375,-0.0092412646484375,1.423446787109375
-0.5664445703125,-0.38937636962890626,1.4079634912109376
0.24249728515625,-0.3200158056640625,1.91645458984375
-0.36585033203125,0.18854663330078125,2.1238816015625
-0.45313921875,0.31844450927734375,0.850319072265625
-0.3816547265625,0.15668489013671874,0.489533701171875
-0.060460800781250004,0.05619785400390625,0.4421007470703125
-0.004537558593750001,-0.046004814453125,0.69548611328125
-0.12246265625,-0.1979608203125,1.3199790478515625
-0.33108066406250003,-0.12173772705078124,1.2988431201171875
-0.5912453125,0.0456589697265625,1.410175390625
-0.60996744140625,0.0868341455078125,1.128526865234375
-0.3967296875,-0.16291290283203125,0.74267330078125
-0.26275705078125,-0.0011532836914062497,0.7611057958984375
-0.32791978515625,0.15080272216796875,0.989914501953125
-0.26081189453125,0.161831787109375,0.9754142724609375
-0.39745912109375,-0.00752563232421875,1.2432998681640626
-0.3923530859375,-0.03056412353515625,1.4227094873046875
-0.201241484375,-0.05458297607421875,1.4040312255859375
-0.26859251953125,0.02433611083984375,1.1966042138671875
-0.22531279296875,-0.08301345458984374,0.9655836083984375
-0.23819945312500002,0.008405239257812499,0.879811064453125
-0.362689453125,0.0020328906249999995,0.688113115234375
-0.3592854296875,-0.060710234375,0.5595771826171875
-0.372415234375,-0.067572763671875,0.513127294921875
-0.28172232421875,-0.189137568359375,0.514110361328125
-0.22774423828125,-0.16585398681640626,0.725961171875
-0.3339983984375,-0.079337099609375,0.884726396484375
-0.48450486328125,0.04345315673828125,1.0284998583984375
-0.4341739453125,-0.05899460205078125,1.161951123046875
-0.3656071875,-0.1700205224609375,1.2963854541015625
-0.22385392578125,-0.128355166015625,1.307444951171875
-0.1949197265625,0.07457962890625,1.227816572265625
-0.2027003515625,-0.0876701708984375,0.932896650390625
-0.10860341796875,-0.03595611083984375,0.848352939453125
-0.38505875,0.01551285888671875,0.8215643798828125
-0.42979734375,0.04394333740234375,0.7345630029296875
-0.39794541015625,-0.011201987304687501,0.677299384765625
-0.16525609375,-0.06291604736328126,0.657638056640625
-0.09158330078125,0.019434304199218752,0.8707177001953125
-0.4088869140625,0.05962911865234375,1.06905134765625
-0.5858961328125,0.07090327392578125,1.2059433447265624
-0.3378887109375,0.024581201171875,1.0840431103515624
-0.17765646484375,0.04786478271484375,1.037101689453125
-0.1579617578125,0.1103628173828125,1.0604495166015624
-0.119544921875,0.04002189208984375,1.216019775390625
-0.46359443359375,-0.035711020507812496,1.18898544921875
-0.517329375,0.0270321044921875,0.9284728515625
-0.3067662109375,-0.0964934228515625,0.592264140625
-0.08988128906250001,-0.13791368896484374,0.4789657373046875
-0.011588750000000002,0.0740894482421875,0.797233486328125
-0.038091503906250004,0.01183650390625,0.8372934423828124
-0.19273142578125,-0.0945327001953125,0.9139726220703125
-0.1725504296875,-0.014633251953124999,1.11427240234375
-0.378250703125,-0.08056255126953125,1.1100943701171875
-0.28269490234375,0.0005623486328125002,1.0958399072265625
-0.2561921484375,-0.03497574951171875,1.18308705078125
-0.30360533203125,0.059874208984374996,1.3307927783203124
-0.4438997265625,0.0966377587890625,1.2944193212890625
-0.2406308984375,0.012816865234374999,1.2246216064453126
-0.2532744140625,0.16893940673828126,1.2836055908203126
-0.34639876953125,0.14884199951171875,1.2875378564453124
-0.38141158203125003,0.203006962890625,1.2025026123046876
-0.36730919921875,-0.136198056640625,0.9896687353515625
-0.057543066406249996,-0.1739419677734375,0.781012890625
-0.2133987109375,-0.1739419677734375,0.5880861083984374
-0.16136578125,-0.1102184814453125,0.5576110498046875
-0.061190234375,-0.0935523388671875,0.5536787841796875
-0.004051269531250002,-0.0906112548828125,0.69941837890625
-0.22701480468750002,-0.06267095703125,1.1420440283203126
-0.44049570312499997,-0.06536695068359374,1.2489525
-0.508576171875,0.0750698095703125,1.1282810986328125
-0.50298384765625,0.1495772705078125,0.9370746826171875
-0.294608984375,0.13609730224609376,0.7719195263671875
-0.09547361328125001,-0.0347306591796875,0.6564092236328125
-0.000890390625000001,-0.044044091796875,0.6382224951171875
-0.04684470703125,0.01012087158203125,0.6976980126953125
-0.0310403125,-0.07271966064453125,0.858183603515625
-0.08526154296874999,-0.02174087158203125,1.1494170263671875
-0.3281629296875,0.0037485229492187503,1.3199790478515625
-0.3359435546875,0.0530116796875,1.2516559326171874
-0.35709712890625,0.0907555908203125,1.19488384765625
-0.510521328125,0.14394019287109375,1.0226014599609374
-0.3826273046875,0.13854820556640626,0.9129895556640625
-0.15869119140625,-0.0366913818359375,0.770690693359375
-0.0412523828125,-0.09281706787109376,0.69351998046875
-0.01231818359375,-0.11928682373046876,0.6239680322265625
-0.10179537109375,-0.116590830078125,0.72104583984375
-0.26859251953125,0.0319339111328125,0.8481071728515625
-0.34737134765625,0.089285048828125,1.050864619140625
-0.08915185546875,0.11060790771484375,1.2118417431640625
-0.19127255859375,0.09418685546875,1.2732833935546874
-0.26810623046875,0.16207687744140625,1.1258234326171874
-0.3126016796875,0.08266760986328126,0.9562444775390625
-0.33083751953125,-0.00850599365234375,0.8613785693359375
-0.3631757421875,-0.02713285888671875,0.83508154296875
-0.23698373046875,-0.12418863037109375,0.915201455078125
-0.2722396875,-0.05752406005859375,0.9191337207031249
-0.143859375,-0.01953505859375,1.023338759765625
-0.1832487890625,0.0044837939453125,1.1975872802734375
-0.37314466796875,0.00178780029296875,1.2526389990234374
-0.3456693359375,0.16256705810546876,1.1427813281249999
-0.224583359375,0.17580193603515626,1.04545775390625
-0.3111428125,-0.0337502978515625,1.095594140625
-0.37460353515625,-0.0945327001953125,0.9818042041015624
-0.16525609375,0.013552136230468751,0.76921609375
-0.08477525390625,-0.05164189208984375,0.75250396484375
-0.18592337890625,-0.13007079833984375,0.9552614111328125
-0.374360390625,-0.04870080810546875,1.2329776708984375
-0.4594609765625,0.0142874072265625,1.20864677734375
-0.39089421875,0.0887948681640625,1.049881552734375
-0.207076953125,-0.061690595703125004,0.813945615234375
-0.0363894921875,0.06624655761718751,0.90193005859375
0.0530876953125,-0.02615249755859375,1.0579918505859376
-0.265431640625,0.03659062744140625,1.334970810546875
-0.5790880859375,-0.0200252392578125,1.2108586767578124
-0.50541529296875,-0.05801424072265625,0.7856824560546875
-0.009400449218749999,-0.0700236669921875,0.5745689453125
0.00956482421875,0.095167216796875,0.6642737548828125
-0.27272597656249997,-0.05801424072265625,0.6915538476562499
-0.43174250000000003,-0.10972830078125,0.7748687255859374
-0.4808576953125,-0.0009081933593750001,0.7955131201171874
-0.21801845703125,0.075559990234375,0.7556989306640625
-0.090367578125,0.0780108935546875,0.8078014501953125
-0.2153438671875,0.103010107421875,0.8112421826171875
-0.20926525390625,0.1897720849609375,0.9410069482421874
-0.23260712890625002,0.0074248779296875,1.0471781201171875
-0.20415921875,0.06943273193359376,1.205206044921875
-0.2800203125,-0.1219828173828125,0.9970417333984375
-0.3189234375,-0.1043363134765625,0.8038691845703125
-0.1866528125,-0.11585555908203125,0.5726028125
-0.1239215234375,-0.18497103271484375,0.529839423828125
-0.12367837890625,-0.12124754638671875,0.705808310546875
-0.24670951171875,0.0201695751953125,1.0226014599609374
-0.50249755859375,0.04590406005859375,1.1218911669921874
-0.33861814453125,0.00987578125,1.030220224609375
-0.166228671875,-0.02664267822265625,0.9048792578125
-0.2221519140625,0.11796061767578125,0.82131861328125
-0.24038775390625,0.18168410400390625,0.7783094580078125
-0.3651208984375,0.13560712158203125,0.778555224609375
-0.25449013671875,0.04712951171875,0.8102591162109375
-0.18738224609375,0.0456589697265625,1.0801108447265624
-0.3573402734375,0.08315779052734375,1.3637255029296875
-0.37946642578125,0.18462518798828126,1.3863360302734375
-0.3057936328125,0.2652599072265625,1.365445869140625
-0.36050115234375,0.08364797119140625,1.252393232421875
-0.43684853515625,0.11060790771484375,1.2423168017578126
-0.36050115234375,-0.09967959716796874,1.0560257177734376
-0.1589343359375,-0.18497103271484375,0.948625712890625
-0.154557734375,-0.06977857666015624,0.85277673828125
-0.1949197265625,-0.1435507666015625,0.8065726171875
-0.10422681640625,-0.18104958740234375,0.8313950439453125
-0.24962724609375,-0.157766005859375,0.9985163330078125
-0.34639876953125,-0.123453359375,1.16539185546875
-0.403537734375,0.02237538818359375,1.20471451171875
-0.32986494140625,0.1476165478515625,1.113780869140625
-0.2552195703125,0.12874459228515625,0.974185439453125
-0.19224513671875,-0.06095532470703125,0.8930824609375
-0.1453182421875,0.026296833496093748,1.0093300634765625
-0.3553951171875,-0.07468038330078125,1.1440101611328124
-0.347128203125,-0.0631611376953125,1.271071494140625
-0.12367837890625,-0.02272123291015625,1.246494833984375
-0.26713365234374997,-0.07075893798828126,1.2865547900390626
-0.4779399609375,0.04982550537109375,1.2703341943359374
-0.35758341796875,-0.06144550537109375,0.9582106103515625
-0.26372962890625,0.013552136230468751,0.7424275341796875
-0.31965287109375,-0.08938580322265625,0.63846826171875
-0.072861171875,-0.014633251953124999,0.6691890869140625
-0.1997826171875,0.0486000537109375,0.8746499658203125
-0.3904079296875,0.04639424072265625,0.9820499707031249
-0.397702265625,-0.13007079833984375,1.054796884765625
-0.13389044921874999,-0.09281706787109376,1.1956211474609375
-0.10617197265625,0.157910341796875,1.3268605126953126
-0.2192341796875,0.18658591064453126,1.4266417529296875
-0.38578818359375,0.07629526123046874,1.4856257373046875
-0.46213556640625,0.00717978759765625,1.2501813330078124
-0.45046462890625,0.06404074462890624,1.0786362451171876
-0.372415234375,0.034384814453125,0.8264797119140626
-0.2722396875,-0.0254172265625,0.5878403417968749
-0.14191421875,-0.0543378857421875,0.493465966796875
-0.07383375,-0.1327667919921875,0.4794572705078125
-0.0422249609375,-0.1631579931640625,0.66796025390625
-0.22361078125,-0.22663638916015624,0.953541044921875
-0.47186134765625,-0.12075736572265625,1.04349162109375
-0.426879609375,-0.19722554931640626,0.9191337207031249
-0.21121041015625,-0.051886982421875,0.883251796875
-0.1710915625,-0.012672529296875,0.85867513671875
-0.18349193359375,0.1157548046875,0.9778719384765625
-0.2902323828125,0.1152646240234375,1.1513831591796875
-0.33424154296874997,0.12972495361328126,1.0638902490234374
-0.20683380859375,-0.03252484619140625,0.8422087744140625
-0.1744955859375,0.06649164794921875,0.8431918408203125
-0.24136033203125,-0.0435539111328125,0.8498275390625
-0.2104809765625,0.02360083984375,0.991880634765625
-0.245980078125,0.016738310546875,1.097068740234375
-0.1477496875,0.07041309326171875,1.154578125
-0.31722142578125,0.055952763671875,1.1936550146484375
-0.442440859375,0.10717664306640624,1.1499085595703125
-0.3972159765625,0.1633023291015625,1.01006736328125
-0.298499296875,0.14197947021484375,0.90389619140625
-0.154557734375,0.09982393310546875,0.796741953125
-0.230418828125,0.00717978759765625,0.78494515625
-0.0247185546875,-0.05115171142578125,0.855234404296875
-0.18738224609375,-0.14330567626953125,1.0112961962890625
-0.31819400390625,-0.08423890625,1.0899415087890625
-0.34299474609375,-0.0141430712890625,1.1292641650390625
-0.2805066015625,0.0064445166015625,1.103950205078125
-0.3135742578125,0.1515379931640625,1.074458212890625
-0.21412814453125,-0.03301502685546875,0.996795966796875
-0.23795630859375,-0.012672529296875,1.0299744580078125
-0.234309140625,0.021885207519531248,0.9874568359375
-0.23139140625,-0.077376376953125,0.84687833984375
-0.19759431640625,0.01208159423828125,0.85081060546875
-0.1944334375,0.019679394531249998,0.9599309765625
-0.3967296875,0.03904153076171875,1.1073909375
-0.23357970703125,-0.1170810107421875,1.001711298828125
-0.2668905078125,0.013552136230468751,1.0668394482421875
-0.17571130859375,0.04590406005859375,1.0464408203125
-0.23017568359375,-0.06267095703125,1.027271025390625
-0.11346630859375,-0.01046671630859375,1.158510390625
-0.4925286328125,-0.0406128271484375,1.1907058154296875
-0.42371873046874997,0.015022678222656249,0.9444476806640625
-0.2931501171875,0.1211467919921875,0.8599039697265625
-0.29290697265625,0.13364639892578126,0.8576920703124999
-0.12221951171875,0.07065818359375,0.8471241064453126
-0.23017568359375,0.033404453125,0.83704767578125
-0.15139685546875,0.01698340087890625,0.8938197607421875
-0.2416034765625,-0.0386521044921875,0.9169218212890625
-0.22142248046875002,-0.013162709960937501,1.0444746875
-0.22579908203125,-0.024436865234375,1.106899404296875
-0.27005138671875,-0.0847290869140625,0.9985163330078125
-0.3111428125,-0.00752563232421875,0.923065986328125
-0.3189234375,-0.106787216796875,0.8446664404296875
-0.30603677734375,-0.1494329345703125,0.8038691845703125
-0.28391062499999997,-0.1053166748046875,0.9493630126953125
-0.3203823046875,-0.169530341796875,0.9768888720703125
-0.224583359375,-0.12271808837890624,0.9166760546875
-0.29509527343749997,-0.09281706787109376,0.8353273095703125
-0.32281375,0.016738310546875,0.7719195263671875
-0.2328502734375,-0.10188541015625,0.6768078515625
0.0029999218749999987,0.04443351806640625,0.84491220703125
-0.213885,0.114774443359375,1.192426181640625
-0.48547744140625,0.04149243408203125,1.3725731005859374
-0.6111831640625,0.0054641552734375,1.3494710400390626
-0.44171142578125,0.10423555908203125,1.0307117578125
-0.36341888671875,0.15668489013671874,0.833606943359375
-0.2022140625,0.10129447509765625,0.8830060302734375
-0.17911533203125,0.04786478271484375,1.1447474609375
-0.3408064453125,0.09394176513671874,1.3303012451171874
-0.374360390625,-0.047965537109375,1.3081822509765626
-0.2255559375,0.0030132519531249997,1.181612451171875
-0.30360533203125,0.12580350830078124,1.112797802734375
-0.46067669921875,0.12555841796875,1.143272861328125
-0.31819400390625,0.12237224365234375,1.2253589062499999
-0.362689453125,0.1260485986328125,1.276969892578125
-0.38384302734375,0.03904153076171875,1.283851357421875
-0.22774423828125,-0.0592396923828125,1.127052265625
-0.24330548828125,-0.02125069091796875,0.993846767578125
-0.37119951171875,-0.098944326171875,0.9115149560546875
-0.30652306640625,-0.20506843994140625,0.9174133544921875
-0.3242726171875,-0.21340151123046874,1.0167030615234376
-0.4049966015625,-0.236194912109375,0.9528037451171875
-0.13729447265625,-0.26266466796875,0.87047193359375
-0.2172890234375,-0.2555570483398438,0.781504423828125
-0.2279873828125,-0.11683592041015625,0.7325968701171874
-0.1550440234375,-0.12320826904296875,0.742181767578125
-0.34688505859375,-0.0710040283203125,0.93338818359375
-0.46213556640625,-0.04036773681640625,1.0245675927734375
-0.2795340234375,-0.071494208984375,0.97369390625
-0.349073359375,0.01845394287109375,0.9970417333984375
-0.3660934765625,0.1000690234375,0.8186151806640625
-0.34007701171875,0.09100068115234375,0.801165751953125
-0.40815748046875,0.0946770361328125,0.7829790234375
-0.26859251953125,0.1123235400390625,0.780521357421875
-0.13802390625,0.06649164794921875,0.9139726220703125
-0.25157240234375,0.157910341796875,1.1695698876953124
-0.564013125,0.17923320068359375,1.332021611328125
-0.51027818359375,0.17335103271484376,1.246494833984375
-0.41447923828125,0.08634396484375,1.0648733154296874
-0.347128203125,0.06281529296875,0.8422087744140625
-0.29242068359375,-0.0004180126953125,0.7424275341796875
-0.2255559375,-0.059729873046875,0.634044462890625
-0.27880458984375,0.014777587890624999,0.6200357666015625
-0.40280830078125,-0.00605509033203125,0.6573922900390625
-0.3767918359375,-0.14894275390625,0.6495277587890624
-0.26056875,-0.1935491943359375,0.6623076220703125
-0.2561921484375,-0.0582593310546875,0.693028447265625
-0.1530988671875,-0.08938580322265625,0.5885776416015625
-0.25740787109375,0.030463369140625002,0.790352021484375
-0.36439146484375,0.03512008544921875,0.913235322265625
-0.35952857421875,0.0456589697265625,1.091170341796875
-0.438550546875,0.17237067138671874,1.215036708984375
-0.44949205078125,0.1079119140625,1.128526865234375
-0.40523974609375,0.0711483642578125,1.0717547802734375
-0.25740787109375,-0.0121823486328125,0.796250419921875
-0.09523046875,0.06109966064453125,0.68172318359375
-0.0310403125,0.106931552734375,0.8136998486328125
-0.18251935546875,0.1770273876953125,1.15752732421875
-0.5625542578125,0.11501953369140624,1.42492138671875
-0.64643912109375,0.0451687890625,1.534533291015625
-0.41156150390625,0.14246965087890626,1.3735561669921874
-0.35977171875,0.2564366552734375,1.1631799560546874
-0.11881548828124999,0.12874459228515625,1.01399962890625
-0.2649453515625,0.07139345458984375,1.0648733154296874
-0.43247193359375,0.142224560546875,1.0540595849609375
-0.5056584375,0.028502646484374998,0.932896650390625
-0.323786328125,-0.09771887451171875,0.840488408203125
-0.1696326953125,0.0907555908203125,0.9407611816406249
-0.2221519140625,0.0976181201171875,1.01596576171875
-0.2027003515625,-0.03938737548828125,1.098051806640625
