ax,ay,az
-0.53313376953125,0.0985984814453125,1.0818312109375
-0.25643529296875,-0.0945327001953125,0.86457353515625
-0.28609892578125,0.06060947998046875,0.699909912109375
-0.1949197265625,0.17040994873046875,0.5920183740234375
0.024396640625,-0.02370159423828125,0.6362563623046875
0.04165990234375,-0.09428760986328125,0.82525087890625
-0.047574140625,-0.0013983740234375002,1.0594664501953126
-0.13680818359375,-0.08840544189453126,1.144255927734375
-0.14896541015625,-0.01561361328125,1.3214536474609375
-0.44511544921875,-0.030319033203124998,0.969761640625
-0.29485212890625,-0.060710234375,0.8992266259765624
-0.3388612890625,-0.045024453125,0.8859552294921875
-0.298499296875,-0.1151202880859375,0.8970147265625
-0.284883203125,-0.08595453857421875,0.931913583984375
-0.31284482421875,-0.03840701416015625,0.9356000830078125
-0.16841697265625,-0.01879978759765625,0.9191337207031249
-0.07966921874999999,0.04786478271484375,0.9577190771484375
-0.11468203125,0.07286399658203124,1.0425085546875
-0.16452666015625,0.1015395654296875,1.040542421875
-0.137051328125,0.097127939453125,0.9444476806640625
-0.21266927734375,0.06158984130859375,0.8790737646484375
-0.13000013671875,0.06796218994140625,0.9242948193359375
-0.2523018359375,0.03536517578125,0.9016842919921875
-0.337402421875,0.053992041015625,0.9316678173828125
-0.3242726171875,0.0348749951171875,0.9646005419921875
-0.24573693359375,-0.03522083984375,1.010558896484375
-0.18008791015625,-0.02909358154296875,1.084288876953125
-0.2416034765625,-0.07811164794921875,1.129509931640625
-0.24719580078125,-0.06095532470703125,1.1744852197265625
-0.27442798828125,-0.10948321044921874,1.0098215966796875
-0.216802734375,-0.130315888671875,0.7925639208984375
-0.1997826171875,-0.1043363134765625,0.7768348583984375
-0.2454937890625,-0.1680597998046875,0.7778179248046875
-0.160393203125,-0.138158779296875,0.6937657470703125
-0.13607875,-0.03301502685546875,0.648790458984375
-0.21315556640625,-0.03497574951171875,0.6814774169921874
-0.2367405859375,0.064776015625,0.7318595703125
-0.2367405859375,0.07923634521484375,0.8778449316406249
-0.3194097265625,0.03462990478515625,1.0358728564453126
-0.3952708203125,0.14124419921875,1.118696201171875
-0.27005138671875,0.02433611083984375,1.060695283203125
-0.183735078125,-0.03301502685546875,0.966320908203125
-0.22361078125,-0.09428760986328125,1.0692971142578125
-0.3203823046875,-0.00581,1.2369099365234375
-0.237226875,0.0760501708984375,1.21061291015625
-0.20926525390625,-0.12933552734375,1.009575830078125
-0.22531279296875,0.13021513427734374,1.02186416015625
-0.28512634765625,0.09418685546875,1.1213996337890624
-0.21023783203125002,0.00987578125,1.1538408251953125
-0.268349375,0.081442158203125,1.172764853515625
-0.32694720703125,0.08953013916015624,1.1381117626953126
-0.2999581640625,-0.03546593017578125,0.9724650732421874
-0.2104809765625,0.10668646240234375,0.904387724609375
-0.21510072265625,0.12580350830078124,1.07691587890625
-0.26372962890625,-0.07811164794921875,1.3420980419921875
-0.2902323828125,0.01649322021484375,1.460803310546875
-0.378250703125,-0.0009081933593750001,1.3175213818359375
-0.33983386718749997,-0.1308060693359375,1.0511103857421875
-0.1783858984375,-0.0955130615234375,0.9213456201171875
-0.18300564453125,-0.09796396484375,0.837539208984375
-0.2192341796875,-0.11585555908203125,0.80558955078125
-0.1317021484375,-0.10850284912109374,0.8267254785156251
-0.063135390625,-0.0612004150390625,0.98647376953125
-0.206104375,-0.1268846240234375,1.20471451171875
-0.38505875,-0.1602169091796875,1.2177401416015625
-0.28634207031250003,-0.06267095703125,1.02972869140625
-0.3067662109375,0.0535018603515625,1.0309575244140625
-0.32402947265625,0.0137972265625,1.127052265625
-0.28415376953125,-0.11340465576171875,1.127543798828125
-0.10617197265625,0.03708080810546875,1.1695698876953124
-0.25084296875,0.11109808837890625,1.1513831591796875
-0.37922328125,0.00423870361328125,1.03169482421875
-0.1317021484375,0.0123266845703125,0.8402426416015625
-0.13680818359375,0.04884514404296875,0.7561904638671875
-0.1920019921875,0.0162481298828125,0.803131884765625
-0.237226875,-0.013162709960937501,0.9390408154296875
-0.13948277343749999,-0.0092412646484375,0.87440419921875
-0.2552195703125,-0.07566074462890625,0.8567090039062499
-0.23114826171875,-0.14477621826171874,0.95894791015625
-0.10714455078125,0.11305881103515625,1.12803533203125
-0.4487626171875,0.157910341796875,1.16145958984375
-0.36098744140625,0.0397768017578125,1.22437583984375
-0.17668388671875,0.1417343798828125,1.1867735498046874
-0.23892888671875,-0.01953505859375,1.1194335009765626
-0.1832487890625,-0.00360418701171875,1.1789090185546875
-0.2406308984375,0.11845079833984375,1.0466865869140625
-0.2318776953125,0.14246965087890626,0.821810146484375
-0.207076953125,0.02752228515625,0.6146289013671875
-0.08331638671875,-0.08889562255859375,0.6141373681640625
-0.1424005078125,-0.0798272802734375,0.808047216796875
-0.1307295703125,-0.09036616455078125,1.0201437939453124
-0.33278267578125,-0.06291604736328126,1.1975872802734375
-0.37119951171875,-0.08154291259765625,1.1892312158203124
-0.389921640625,-0.1430605859375,1.0088385302734375
-0.37606240234375,-0.07860182861328124,0.863098935546875
-0.220693046875,-0.06095532470703125,0.8810398974609375
-0.24962724609375,0.0843832421875,0.9835245703125
-0.33253953125,0.1064413720703125,1.089204208984375
-0.16355408203125,0.00178780029296875,1.010558896484375
-0.05657048828125,-0.05115171142578125,1.0078554638671875
-0.17911533203125,0.06502110595703126,0.9670582080078125
-0.30068759765624997,-0.037916833496093746,0.78986048828125
-0.0626491015625,-0.07566074462890625,0.7822417236328125
-0.17911533203125,0.0564429443359375,1.0648733154296874
-0.36366203125,0.17776265869140626,1.3371827099609375
-0.4263933203125,0.0505607763671875,1.39346326171875
-0.43174250000000003,0.11403917236328125,1.3275978125
-0.47526537109375,0.155949619140625,1.055779951171875
-0.32305689453124997,-0.0011532836914062497,0.799199619140625
-0.0879361328125,0.00521906494140625,0.7994453857421875
-0.2017277734375,0.07335417724609375,0.860149736328125
-0.2488978125,0.03953171142578125,0.8481071728515625
-0.27053767578125,-0.132276611328125,0.8210728466796875
-0.24573693359375,-0.010711806640625,0.704825244140625
-0.17473873046875,0.05668803466796875,0.6121712353515625
-0.14458880859375,-0.0827683642578125,0.5974252392578125
-0.10179537109375,-0.01830960693359375,0.8250051123046875
-0.32646091796875,0.09296140380859375,1.0975602734375
-0.35661083984374997,-0.0072805419921875,1.2688595947265624
-0.45775896484375,0.07629526123046874,1.3452930078125
-0.37363095703125,0.01992448486328125,1.07298361328125
-0.2056180859375,0.067717099609375,0.94715111328125
-0.329621796875,-0.0001729223632812504,0.8065726171875
-0.20926525390625,-0.01438816162109375,0.9311762841796875
-0.17960162109375,0.11771552734375,0.963371708984375
-0.27540056640625,-0.0562986083984375,0.8092760498046875
-0.17376615234375,0.00399361328125,0.7050710107421875
-0.06532369140625,-0.0582593310546875,0.686638515625
-0.0344443359375,-0.0072805419921875,0.90586232421875
-0.18543708984375,0.0211499365234375,1.2840971240234376
-0.3592854296875,0.1172253466796875,1.4947191015625
-0.48061455078125,0.11158826904296874,1.3951836279296874
-0.4020788671875,0.0838930615234375,1.1784174853515625
-0.368524921875,0.008405239257812499,0.9857364697265625
-0.3126016796875,0.063795654296875,0.90389619140625
-0.2124261328125,-0.01830960693359375,0.7947758203124999
-0.13607875,-0.01438816162109375,0.715638974609375
-0.16914640625,-0.047965537109375,0.6981895458984375
-0.1647698046875,-0.163648173828125,0.6755790185546875
-0.1044699609375,-0.1396293212890625,0.812962548828125
-0.14021220703125,-0.01585870361328125,0.93338818359375
-0.2581373046875,-0.05360261474609375,0.9813126708984374
-0.2416034765625,0.019679394531249998,1.1066536376953124
-0.33959072265625,0.1157548046875,1.1710444873046875
-0.3826273046875,0.04933532470703125,1.03169482421875
-0.302389609375,0.06355056396484375,0.9768888720703125
-0.25740787109375,0.042227705078125,0.980083837890625
-0.298499296875,0.02286556884765625,1.0132623291015626
-0.284883203125,0.0294830078125,1.1051790380859374
-0.247925234375,0.010611052246093749,1.15556119140625
-0.25643529296875,-0.03742665283203125,1.058729150390625
-0.2182616015625,0.061834931640625,1.009084296875
-0.2435486328125,-0.04919098876953125,0.9449392138671875
-0.174009296875,-0.07075893798828126,0.902421591796875
-0.13024328125,0.0427178857421875,0.8820229638671875
-0.282938046875,-0.07222947998046875,0.8572005371093749
-0.29752671875000003,0.0436982470703125,0.9960586669921875
-0.27880458984375,0.04296297607421875,1.00220283203125
-0.29971501953125,0.05031568603515625,0.98647376953125
-0.33910443359375,0.04443351806640625,1.1071451708984374
-0.3184371484375,0.05521749267578125,1.0857634765625
-0.2775888671875,0.07825598388671876,0.954524111328125
-0.2620276171875,0.08413815185546875,0.9021758251953125
-0.18786853515625002,0.05178622802734375,0.8790737646484375
-0.18859796875,0.0008074389648437498,0.996795966796875
-0.1968648828125,-0.01487834228515625,1.015474228515625
-0.18081734375,-0.0376717431640625,0.9518206787109375
-0.17133470703125,-0.0680629443359375,0.887675595703125
-0.2338228515625,-0.08056255126953125,1.003677431640625
-0.152612578125,-0.02615249755859375,1.1292641650390625
-0.3417790234375,-0.06389640869140625,1.20274837890625
-0.29679728515625,0.0319339111328125,1.1808751513671876
-0.26032560546875,-0.050661530761718754,1.0108046630859375
-0.22725794921875,-0.03105430419921875,1.032186357421875
-0.2464663671875,0.0633054736328125,1.0909245751953125
-0.25108611328125,-0.08154291259765625,1.0742124462890625
-0.28585578125,-0.0004180126953125,1.0761785791015626
-0.19273142578125,0.0799716162109375,0.985982236328125
-0.09109701171875,-0.05899460205078125,0.8544971044921875
-0.12124693359375,0.00717978759765625,0.8603955029296875
-0.117599765625,0.0378160791015625,0.8136998486328125
-0.08574783203125,-0.00850599365234375,0.783470556640625
-0.14410251953125,-0.04134809814453125,0.968287041015625
-0.25692158203125,0.00865032958984375,1.2054518115234374
-0.2746711328125,0.028257556152343752,1.2627154296875
-0.3252451953125,0.093206494140625,1.147205126953125
-0.3738741015625,0.06355056396484375,1.008592763671875
-0.26227076171875,0.06355056396484375,0.984999169921875
-0.327676640625,0.1123235400390625,1.061678349609375
-0.25108611328125,0.06673673828125,1.0383305224609374
-0.1229489453125,0.05864875732421875,0.89603166015625
-0.13340416015625,-0.006790361328125,0.7994453857421875
-0.0937716015625,-0.015368522949218751,0.725961171875
-0.164283515625,0.0319339111328125,0.7045794775390625
-0.2970404296875,0.0848734228515625,0.7561904638671875
-0.1958923046875,0.07850107421875,0.82525087890625
-0.25059982421875,0.12384278564453124,0.9793465380859375
-0.26713365234374997,0.07384435791015626,1.14179826171875
-0.3009307421875,0.07065818359375,1.2587831640625
-0.392839375,0.10521592041015625,1.1749767529296875
-0.36050115234375,-0.0180645166015625,0.9124980224609375
-0.1472633984375,0.03610044677734375,0.743164833984375
-0.1205175,-0.01095689697265625,0.716622041015625
-0.18300564453125,-0.0915916162109375,0.8245135791015625
-0.0509781640625,-0.05017135009765625,0.9852449365234375
-0.2095083984375,-0.07468038330078125,0.94518498046875
-0.14191421875,0.021885207519531248,0.8889044287109376
-0.20391607421875,-0.0175743359375,0.84786140625
-0.2143712890625,0.06698182861328125,0.8485987060546875
-0.25594900390624997,0.1270289599609375,1.00023669921875
-0.2805066015625,0.09884357177734375,1.166866455078125
-0.2289599609375,0.05374695068359375,1.1985703466796875
-0.3466419140625,0.0966377587890625,1.143272861328125
-0.37922328125,0.09835339111328124,1.0275167919921875
-0.17182099609375,0.04884514404296875,0.9336339501953125
-0.1842213671875,0.0608545703125,0.8717007666015625
-0.21072412109375,0.0182088525390625,0.885709462890625
-0.12221951171875,0.02041466552734375,0.822793212890625
-0.1404553515625,0.06624655761718751,0.797233486328125
-0.1521262890625,0.0780108935546875,0.9046334912109375
-0.249870390625,0.1079119140625,1.0688055810546875
-0.21607330078125,0.10080429443359375,1.2142994091796875
-0.315033125,0.136342392578125,1.2509186328125
-0.41156150390625,0.14908708984375,1.160968056640625
-0.25594900390624997,0.12335260498046875,1.0761785791015626
-0.42080099609375,0.055952763671875,1.0412797216796874
-0.296554140625,0.10276501708984374,0.9847534033203125
-0.19127255859375,0.062080021972656246,0.7851909228515626
-0.16404037109375,0.0162481298828125,0.69548611328125
-0.10714455078125,-0.014633251953124999,0.6313410302734375
-0.07942607421875,-0.08963089355468751,0.6627991552734375
-0.16720125,-0.06242586669921875,0.73775796875
-0.16452666015625,-0.06267095703125,0.902913125
-0.1910294140625,-0.01732924560546875,1.0196522607421874
-0.3271903515625,-0.0023787353515625003,1.0884669091796875
-0.28464005859375,0.02531647216796875,1.0688055810546875
-0.38821962890625,0.0486000537109375,0.978117705078125
-0.35855599609375,0.03806116943359375,0.927981318359375
-0.20537494140625,0.07139345458984375,0.804114951171875
-0.1355924609375,0.0525214990234375,0.77609755859375
-0.21072412109375,0.08364797119140625,0.816894814453125
-0.2416034765625,0.03364954345703125,0.740215634765625
-0.21972046875,0.06404074462890624,0.700892978515625
-0.20634751953125,0.014777587890624999,0.7247323388671875
-0.12124693359375,0.05325677001953125,0.8340984765625
-0.19637859375,0.0809519775390625,1.0284998583984375
-0.24281919921875,0.0584036669921875,1.0786362451171876
-0.2785614453125,0.0721287255859375,1.12017080078125
-0.35417939453125,0.157910341796875,1.1164843017578125
-0.299471875,0.09639266845703125,1.0545511181640626
-0.33813185546875,0.1387932958984375,1.1155012353515625
-0.3690112109375,0.067717099609375,1.167849521484375
-0.3874901953125,-0.0317895751953125,1.0014655322265624
-0.21655958984375,-0.03644629150390625,0.8741584326171875
-0.14750654296875,-0.0906112548828125,0.7448852001953125
-0.06532369140625,-0.06095532470703125,0.7456225
-0.17279357421875,-0.0788469189453125,0.943710380859375
-0.18203306640625,-0.02664267822265625,1.182595517578125
-0.34104958984375,0.0887948681640625,1.211104443359375
-0.33959072265625,0.03144373046875,1.07888201171875
-0.24233291015625,0.04345315673828125,1.0009739990234374
-0.31138595703125,-0.0023787353515625003,1.0638902490234374
-0.31284482421875,-0.0415931884765625,1.1159927685546875
-0.2931501171875,-0.0006631030273437505,1.047915419921875
-0.30992708984375,-0.03399538818359375,0.8780906982421874
-0.30409162109375,-0.05360261474609375,0.7522581982421875
-0.25400384765625,-0.02737794921875,0.6480531591796875
-0.1321884375,0.063795654296875,0.6593584228515625
-0.15358515625,0.017718671875,0.6922911474609375
-0.24379177734375002,0.00963069091796875,0.7984623193359375
-0.17133470703125,0.05031568603515625,0.8731753662109375
-0.16015005859375,0.0427178857421875,0.8667854345703125
-0.16598552734375,0.053992041015625,0.9127437890625
-0.25862359375,0.1035002880859375,0.9911433349609375
-0.22701480468750002,0.12874459228515625,1.087729609375
-0.3155194140625,0.174576484375,1.199307646484375
-0.3583128515625,0.16256705810546876,1.2555881982421875
-0.3359435546875,0.03928662109375,1.2319946044921875
-0.284883203125,0.130460224609375,1.1051790380859374
-0.25643529296875,0.00570924560546875,0.91765912109375
-0.11881548828124999,-0.10703230712890625,0.9026673583984375
-0.16452666015625,-0.0553182470703125,0.8717007666015625
-0.23260712890625002,-0.10188541015625,0.796250419921875
-0.21023783203125002,-0.09477779052734375,0.7846993896484376
-0.158448046875,-0.06438658935546875,0.82721701171875
-0.2007551953125,-0.05017135009765625,1.01596576171875
-0.31235853515625,0.0294830078125,1.1710444873046875
-0.27345541015625,0.16991976806640624,1.15359505859375
-0.27929087890625,0.0525214990234375,0.967303974609375
-0.2717533984375,0.0123266845703125,0.9542783447265625
-0.2056180859375,-0.04968116943359375,1.0112961962890625
-0.2834243359375,-0.013407800292968751,1.051847685546875
-0.12270580078125,-0.0016434643554687498,1.043983154296875
-0.29582470703125,-0.08154291259765625,0.9926179345703126
-0.28269490234375,0.03119864013671875,1.10640787109375
-0.2255559375,0.00178780029296875,1.0899415087890625
-0.28026345703125,-0.068553125,0.98254150390625
-0.26032560546875,0.03659062744140625,1.115747001953125
-0.280992890625,-0.01978014892578125,1.2654188623046876
-0.37703498046875,0.0015427099609375003,1.283851357421875
-0.29728357421875,0.00276816162109375,1.0936280078125
-0.35515197265625,-0.040122646484374996,0.923065986328125
-0.31868029296875,0.0074248779296875,0.854251337890625
-0.25011353515625,-0.04134809814453125,0.698926845703125
-0.15042427734375,-0.04526954345703125,0.6296206640625
-0.09061072265625,-0.0788469189453125,0.61290853515625
-0.09693248046875,-0.157766005859375,0.7217831396484375
-0.1866528125,-0.12909043701171874,0.8989808593749999
-0.358799140625,-0.13987441162109376,0.9960586669921875
-0.170118984375,-0.0945327001953125,0.9498545458984375
-0.13145900390625,0.09884357177734375,1.073475146484375
-0.2416034765625,0.1549692578125,1.11230626953125
-0.3656071875,-0.0239466845703125,1.132459130859375
-0.138996484375,0.24932903564453124,1.3465218408203126
-0.31430369140625003,0.17727247802734375,1.3440641748046875
-0.1735230078125,-0.1484525732421875,1.3401319091796875
-0.26664736328125,0.20619313720703125,1.4177941552734374
-0.53507892578125,0.2034971435546875,1.2600119970703125
-0.3942982421875,0.05668803466796875,0.8800568310546875
-0.11225058593750001,0.167713955078125,0.7357918359375
-0.0782103515625,-0.0175743359375,0.6937657470703125
-0.218747890625,-0.14894275390625,0.757910830078125
-0.14021220703125,-0.0543378857421875,0.8913620947265625
-0.22142248046875002,-0.055808427734375,1.0840431103515624
-0.30457791015625,-0.04085791748046875,1.1145181689453125
-0.31722142578125,-0.01046671630859375,1.1513831591796875
-0.28172232421875,0.10619628173828125,1.3052330517578126
-0.50930560546875,0.13266603759765624,1.425904453125
-0.3874901953125,0.0338946337890625,1.0894499755859375
-0.247925234375,-0.142080224609375,0.9016842919921875
-0.24136033203125,-0.049926259765625,0.8461410400390625
-0.15528716796875,-0.11340465576171875,0.9321593505859375
-0.25351755859375,-0.19722554931640626,1.1032129052734374
-0.2396583203125,-0.083258544921875,1.17325638671875
-0.30530734375,-0.146001669921875,0.90389619140625
-0.27831830078124997,-0.1543347412109375,0.768724560546875
-0.42712275390625,0.019434304199218752,0.8815314306640625
-0.3913805078125,-0.12541408203125,0.9444476806640625
-0.3233000390625,-0.15801109619140624,0.8989808593749999
-0.2795340234375,-0.014633251953124999,0.8274627783203125
-0.22968939453125,-0.04330882080078125,0.8191067138671875
-0.2396583203125,-0.04575972412109375,0.8540055712890625
-0.30117388671875,0.14099910888671874,0.92650671875
-0.2085358203125,0.08021670654296875,0.9124980224609375
-0.26324333984375,0.2182025634765625,1.1680952880859374
-0.4283384765625,0.1152646240234375,1.2634527294921876
-0.1793584765625,-0.02370159423828125,1.223884306640625
-0.35855599609375,0.16795904541015624,1.01989802734375
-0.14556138671875,0.00619942626953125,0.89603166015625
-0.24136033203125,0.063795654296875,0.9183964208984375
-0.33326896484375,0.06502110595703126,1.045949287109375
-0.32889236328125,-0.0200252392578125,1.0142453955078126
-0.16452666015625,-0.04919098876953125,1.0978060400390626
-0.245980078125,0.0682072802734375,1.1862820166015624
-0.354908828125,-0.0308092138671875,1.11623853515625
-0.230418828125,-0.06389640869140625,1.1789090185546875
-0.3573402734375,0.10031411376953125,1.0923991748046875
-0.14945169921875,-0.0925719775390625,0.9088115234375
-0.20391607421875,-0.09526797119140624,1.0884669091796875
-0.39989056640625,0.11305881103515625,1.0678225146484375
-0.09912078125,-0.028113220214843748,0.9709904736328125
-0.30457791015625,-0.0621807763671875,0.9208540869140625
-0.1278118359375,0.0103659619140625,1.00613509765625
-0.22944625,-0.08301345458984374,0.85867513671875
-0.23747001953125,0.195164072265625,0.963371708984375
-0.16987583984375,-0.013652890625,0.8417172412109375
-0.199296328125,-0.14036459228515624,0.9410069482421874
-0.24719580078125,-0.046249904785156254,1.077407412109375
-0.26761994140625,-0.06438658935546875,1.105916337890625
-0.15480087890625,-0.11242429443359375,1.1617053564453126
-0.52827087890625,0.00276816162109375,1.1526119921875
-0.13510617187500001,0.02874773681640625,1.0879753759765625
-0.3344846875,-0.1611972705078125,1.0343982568359376
-0.1866528125,0.07629526123046874,1.20668064453125
-0.2707808203125,0.062080021972656246,1.0756870458984376
-0.1287844140625,-0.00458454833984375,1.032186357421875
-0.28026345703125,-0.01487834228515625,0.78396208984375
-0.06799828125,0.05570767333984375,0.8171405810546875
-0.3729015234375,-0.112669384765625,0.7397241015625
-0.1944334375,0.01575794921875,0.9469053466796875
-0.226528515625,-0.011201987304687501,0.8761245654296875
-0.34980279296875,0.02531647216796875,1.026287958984375
-0.2523018359375,0.10815700439453126,1.156052724609375
-0.3262177734375,0.00399361328125,1.235681103515625
-0.411318359375,0.111833359375,1.16342572265625
-0.33132380859375,-0.07222947998046875,0.95894791015625
-0.10228166015625,-0.00311400634765625,0.9695158740234375
-0.3913805078125,0.06624655761718751,0.8952943603515625
-0.14969484375,-0.08252327392578125,0.893573994140625
-0.19321771484375,0.08413815185546875,0.9277355517578125
-0.2785614453125,-0.02468195556640625,0.957473310546875
-0.2795340234375,0.01649322021484375,0.9631259423828125
-0.34348103515625,0.13952856689453125,0.8830060302734375
-0.210967265625,0.0003172583007812497,0.803131884765625
-0.17473873046875,-0.035711020507812496,0.75250396484375
-0.21023783203125002,0.008405239257812499,1.04349162109375
-0.352963671875,-0.071494208984375,1.201273779296875
-0.30117388671875,0.02972809814453125,1.3406234423828125
-0.44049570312499997,0.13732275390625,1.0958399072265625
-0.3563676953125,-0.0455146337890625,0.871455
-0.117599765625,0.03904153076171875,0.7994453857421875
-0.2484115234375,0.0603643896484375,0.8328696435546875
-0.1210037890625,0.03364954345703125,0.702367578125
-0.2017277734375,-0.03987755615234375,0.7193254736328125
-0.2688356640625,0.00276816162109375,0.733334169921875
-0.13948277343749999,0.01796376220703125,0.6854096826171875
-0.24622322265625,-0.08693489990234375,0.7365291357421875
-0.21315556640625,-0.07566074462890625,0.8520394384765625
-0.20245720703125,-0.0371815625,1.047915419921875
-0.36244630859375,0.0037485229492187503,1.1469593603515624
-0.46942990234375,-0.05213207275390625,1.0565172509765626
-0.1842213671875,-0.0072805419921875,0.915201455078125
-0.31624884765625,0.050070595703125,0.8589209033203125
-0.288773515625,-0.06928839599609375,0.8849721630859375
-0.04003666015625,0.05374695068359375,0.9100403564453124
-0.31089966796875,-0.07075893798828126,0.9481341796875
-0.15334201171875,-0.0641414990234375,0.924049052734375
-0.19127255859375,-0.08399381591796876,0.8972604931640625
-0.32937865234375,-0.1161006494140625,0.8618701025390625
-0.13729447265625,0.01649322021484375,0.888658662109375
-0.2639727734375,0.04737460205078125,0.974185439453125
-0.31965287109375,0.05423713134765625,1.0184234277343749
-0.20440236328125,0.10717664306640624,1.1762055859375
-0.22093619140625,0.19050735595703125,1.266156162109375
-0.32646091796875,0.16305723876953124,1.2693511279296874
-0.17084841796875,0.049090234375,1.2305200048828124
-0.28974609375,0.08364797119140625,1.2098756103515624
-0.2814791796875,-0.069533486328125,1.0250591259765625
-0.2056180859375,0.013552136230468751,0.9709904736328125
-0.3709563671875,-0.05997496337890625,0.97074470703125
-0.2027003515625,-0.061690595703125004,0.9407611816406249
-0.21558701171875,-0.059484782714843754,0.796250419921875
-0.199296328125,-0.05850442138671875,0.7758517919921875
-0.21996361328125,-0.1273748046875,0.8073099169921875
-0.2843969140625,-0.1033559521484375,0.884726396484375
-0.2386857421875,-0.09085634521484375,0.84884447265625
-0.2581373046875,-0.0827683642578125,0.906353857421875
-0.3184371484375,-0.044534272460937496,0.930930517578125
-0.29096181640625,-0.04723026611328125,0.84294607421875
-0.27053767578125,0.03536517578125,0.875878798828125
-0.31430369140625003,-0.013407800292968751,0.938303515625
-0.32937865234375,0.03144373046875,0.9139726220703125
-0.18349193359375,0.0407571630859375,0.8313950439453125
-0.22579908203125,-0.0011532836914062497,0.9100403564453124
-0.17717017578125,-0.022476142578125,1.0412797216796874
-0.27734572265625,-0.03595611083984375,1.0953483740234375
-0.38189787109375,-0.034240478515625,1.06905134765625
-0.18981369140625,0.0162481298828125,1.02383029296875
-0.3203823046875,0.00178780029296875,0.9473968798828125
-0.27831830078124997,-0.03889719482421875,0.9031588916015625
-0.197351171875,0.0221302978515625,0.9284728515625
-0.26372962890625,-0.057769150390625,1.026287958984375
-0.26275705078125,0.03928662109375,1.0879753759765625
-0.240144609375,0.06404074462890624,1.0395593554687501
-0.212912421875,0.056933125,1.0147369287109376
-0.28950294921874997,0.07335417724609375,1.0496357861328125
-0.33715927734375,0.03659062744140625,1.06020375
-0.2853694921875,-0.0190448779296875,1.0098215966796875
-0.27588685546875,0.06698182861328125,0.954524111328125
-0.1900568359375,0.0417375244140625,0.9105318896484375
-0.251815546875,0.0003172583007812497,0.7940385205078125
-0.23309341796875,0.0966377587890625,0.74070716796875
-0.1900568359375,-0.03129939453125,0.759876962890625
-0.28901666015625,-0.13693332763671875,0.8250051123046875
-0.25108611328125,-0.022476142578125,1.0189149609375
-0.28415376953125,-0.0837487255859375,1.1297556982421875
-0.3709563671875,-0.0513968017578125,1.213562109375
-0.27053767578125,0.0456589697265625,1.2275708056640624
-0.38141158203125003,-0.014633251953124999,1.1051790380859374
-0.17571130859375,0.05668803466796875,1.0496357861328125
-0.234309140625,-0.03350520751953125,0.920116787109375
-0.273212265625,-0.03546593017578125,0.979100771484375
-0.15431458984375,0.008895419921875,0.9626344091796875
-0.2746711328125,-0.01732924560546875,0.9670582080078125
-0.19662173828125,-0.03987755615234375,0.974185439453125
-0.22725794921875,-0.0464949951171875,0.9975332666015625
-0.29679728515625,0.033404453125,1.0417712548828124
-0.23212083984375,0.01159141357421875,1.0184234277343749
-0.30919765625,0.053992041015625,1.06315294921875
-0.25351755859375,0.05374695068359375,1.0815854443359374
-0.28998923828125,0.03928662109375,1.0732293798828125
-0.17303671874999998,0.0574233056640625,1.0525849853515625
-0.2153438671875,-0.01978014892578125,0.8884128955078126
-0.25473328125,0.099088662109375,0.977626171875
-0.22968939453125,0.07923634521484375,0.985982236328125
-0.22871681640625,-0.0063001806640625,0.9166760546875
-0.29874244140625,0.0750698095703125,0.94321884765625
-0.252788125,0.038306259765625,0.8682600341796876
-0.21753216796875,-0.012672529296875,0.8181236474609375
-0.29363640625,0.02335574951171875,0.8982435595703124
-0.29485212890625,-0.0254172265625,0.96484630859375
-0.28196546875,0.028502646484374998,1.019406494140625
-0.2834243359375,0.06698182861328125,1.0648733154296874
-0.2659179296875,0.01796376220703125,0.95698177734375
-0.23917203125,0.00717978759765625,0.976151572265625
-0.31527626953125,0.0289928271484375,1.0157199951171876
-0.361716875,-0.02909358154296875,0.9872110693359375
-0.2532744140625,-0.0180645166015625,1.0393135888671874
-0.28901666015625,-0.00262382568359375,1.0742124462890625
-0.21996361328125,-0.045024453125,1.009575830078125
-0.25303126953125,-0.0097314453125,0.9599309765625
-0.2367405859375,0.0564429443359375,0.9587021435546875
-0.2805066015625,0.00325834228515625,0.9700074072265625
-0.2488978125,0.0897752294921875,1.120662333984375
-0.2464663671875,0.02335574951171875,1.130492998046875
-0.2931501171875,-0.0239466845703125,1.0661021484375
-0.23139140625,0.04590406005859375,1.06315294921875
-0.28804408203125,-0.050661530761718754,0.97074470703125
-0.2800203125,-0.0121823486328125,0.9650920751953125
-0.2153438671875,-0.04477936279296875,0.8589209033203125
-0.2192341796875,-0.11781628173828125,0.8009199853515625
-0.27394169921875,-0.05997496337890625,0.8048522509765625
-0.1667149609375,-0.1062970361328125,0.8122252490234375
-0.2464663671875,0.02433611083984375,0.8599039697265625
-0.337402421875,-0.0464949951171875,0.8891501953125
-0.26470220703125,-0.03301502685546875,0.8741584326171875
-0.19953947265625,0.04688442138671875,0.7768348583984375
-0.2255559375,-0.0612004150390625,0.6962234130859375
-0.189570546875,-0.020515419921875,0.7829790234375
-0.26664736328125,0.02874773681640625,0.8500733056640625
-0.24768208984375,-0.0298288525390625,0.8736668994140625
-0.26713365234374997,0.0064445166015625,0.858183603515625
-0.16647181640625,0.030463369140625002,0.8780906982421874
-0.2912049609375,0.009140510253906251,0.8997181591796874
-0.28512634765625,0.1182057080078125,0.9719735400390626
-0.162338359375,0.00717978759765625,1.004660498046875
-0.35563826171875,0.08462833251953125,1.053813818359375
-0.3797095703125,0.15864561279296874,1.0464408203125
-0.12610982421875,-0.063651318359375,0.943710380859375
-0.1569891796875,0.09810830078125,1.009575830078125
-0.316005703125,0.09786321044921875,1.0621698828125
-0.2411171875,0.12580350830078124,1.143272861328125
-0.39940427734375,0.07531489990234375,1.2103671435546874
-0.4122909375,-0.0249270458984375,1.1317218310546875
-0.22628537109375,-0.04821062744140625,0.84786140625
-0.11468203125,-0.04036773681640625,0.6355190625
-0.1511537109375,-0.09967959716796874,0.6102051025390625
-0.15577345703125,-0.17810850341796874,0.75643623046875
-0.14167107421875,0.07727562255859374,0.9424815478515625
-0.1861665234375,-0.0415931884765625,1.0304659912109375
-0.26640421875,-0.15310928955078124,1.1798920849609376
-0.41204779296875,0.08756941650390625,1.0582376171875
-0.3466419140625,0.08315779052734375,0.67484171875
-0.08623412109375,-0.1308060693359375,0.58341654296875
-0.1171134765625,-0.07124911865234375,0.6539515576171875
-0.09425789062500001,-0.0700236669921875,0.8117337158203125
-0.1555303125,-0.0724745703125,0.91569298828125
-0.23212083984375,-0.06536695068359374,1.0024485986328124
-0.25084296875,-0.055808427734375,0.9744312060546875
-0.2099946875,0.0368357177734375,0.9100403564453124
-0.34226531250000003,0.04002189208984375,0.899472392578125
-0.279047734375,0.114774443359375,1.0343982568359376
-0.2347954296875,0.05619785400390625,1.1002637060546876
-0.25692158203125,-0.013407800292968751,1.1159927685546875
-0.26129818359375,0.0338946337890625,1.098051806640625
-0.242089765625,0.07580508056640625,0.99433830078125
-0.3164919921875,0.0686974609375,0.8766160986328125
-0.345183046875,0.13070531494140625,0.93732044921875
-0.1744955859375,0.07457962890625,1.0464408203125
-0.3281629296875,0.06306038330078124,1.098051806640625
-0.3962433984375,0.10987263671875,1.630873798828125
-0.27637314453125,0.33339501953125,1.380191865234375
-0.5343494921875,0.0608545703125,1.0810939111328124
-0.432715078125,0.04639424072265625,0.9191337207031249
-0.32111173828125,0.0030132519531249997,0.7753602587890625
-0.053409609375,0.0765403515625,0.62470533203125
0.02707123046875,-0.0435539111328125,0.610450869140625
0.04992681640625,-0.02419177490234375,0.7945300537109374
-0.07796720703125,0.00791505859375,1.106899404296875
-0.2153438671875,-0.04085791748046875,1.219952041015625
-0.19248828125,0.17678229736328124,1.5844239111328124
-0.62406982421875,0.12286242431640625,1.7726811279296875
-0.64157623046875,0.04443351806640625,1.4374554833984374
-0.49325806640625003,0.0936966748046875,1.1808751513671876
-0.4137498046875,0.1157548046875,1.0452119873046875
-0.33326896484375,-0.19036302001953126,0.8250051123046875
-0.02107138671875,-0.18104958740234375,0.8741584326171875
0.008592246093749999,-0.165608896484375,0.9051250244140625
-0.109819140625,-0.15261910888671876,0.8043607177734375
-0.18932740234375,-0.17810850341796874,0.7016302783203126
-0.249870390625,0.03364954345703125,0.810996416015625
-0.3388612890625,-0.13717841796875,0.8343442431640625
-0.31624884765625,-0.0955130615234375,1.041033955078125
-0.39308251953125,-0.014633251953124999,1.3425895751953125
-0.51927453125,-0.17173615478515625,1.341852275390625
-0.41885583984375,-0.030319033203124998,1.2516559326171874
-0.48985404296875,-0.02615249755859375,1.02186416015625
-0.28901666015625,-0.012427438964843749,0.9213456201171875
-0.22944625,0.13658748291015624,1.048898486328125
-0.2882872265625,0.0642858349609375,1.128526865234375
-0.34737134765625,0.16991976806640624,0.9690243408203125
-0.32402947265625,-0.01193725830078125,0.7266984716796875
-0.09401474609375,0.02237538818359375,0.6627991552734375
-0.19224513671875,0.0843832421875,0.583908076171875
-0.1073876953125,0.05889384765625,0.5487634521484375
0.021965195312499998,-0.036201201171875,0.8019030517578125
-0.210967265625,0.04688442138671875,1.390022529296875
-0.3889490625,0.055952763671875,1.8267497802734374
-0.49593265625,0.1446754638671875,1.877623466796875
-0.610696875,0.02776737548828125,1.4659644091796875
-0.44535859375,-0.02125069091796875,1.083305810546875
-0.41399294921875,-0.1906081103515625,0.9744312060546875
-0.29752671875000003,-0.04428918212890625,0.80165728515625
-0.2814791796875,0.112813720703125,0.6436293603515625
-0.1929745703125,-0.023456503906250002,0.4701181396484375
-0.0636216796875,-0.10311086181640625,0.381396396484375
-0.0159653515625,-0.13644314697265625,0.418752919921875
0.0012979101562499984,-0.17320669677734374,0.5590856494140625
-0.02933830078125,-0.24428289306640624,0.7719195263671875
-0.27491427734375,-0.12149263671875,1.10640787109375
-0.5080898828125,0.01649322021484375,1.365445869140625
-0.5849235546875,0.14050892822265626,1.446057314453125
-0.48742259765625,0.12531332763671876,1.2128248095703125
-0.2630001953125,-0.01928996826171875,0.9638632421875
-0.27248283203125,-0.0006631030273437505,0.8672769677734375
-0.19321771484375,-0.08252327392578125,0.8048522509765625
-0.1287844140625,-0.04870080810546875,0.8567090039062499
-0.23212083984375,-0.09379742919921875,0.925032119140625
-0.09206958984375,-0.1778634130859375,0.97271083984375
-0.1492085546875,-0.1180613720703125,0.9913891015625
-0.22434021484375,-0.0018885546875000003,1.0071181640625
-0.19224513671875,-0.02860340087890625,1.0373474560546876
-0.3612305859375,0.0466393310546875,1.0425085546875
-0.43733482421875003,0.10619628173828125,1.0368559228515626
-0.38287044921875,0.19148771728515626,1.16735798828125
-0.4954463671875,0.0731090869140625,1.0953483740234375
-0.2561921484375,0.13168567626953126,0.964354775390625
-0.26129818359375,-0.10311086181640625,0.91176072265625
-0.33132380859375,-0.05409279541015625,0.91569298828125
-0.18689595703125,-0.02125069091796875,0.899472392578125
-0.2882872265625,-0.2170778662109375,0.9282270849609375
-0.34542619140624997,-0.0562986083984375,0.984016103515625
-0.14969484375,-0.0724745703125,0.98647376953125
-0.3189234375,-0.10801266845703125,0.9454307470703125
-0.3456693359375,-0.0876701708984375,0.8805483642578125
-0.18592337890625,0.0368357177734375,0.9360916162109375
-0.32500205078125,0.04198261474609375,0.9783634716796875
-0.30749564453125,0.0682072802734375,1.12410306640625
-0.36098744140625,-0.035711020507812496,1.1621968896484376
-0.4088869140625,0.062080021972656246,1.1307387646484375
-0.3787369921875,0.1392834765625,1.1307387646484375
-0.34737134765625,0.04443351806640625,1.0936280078125
-0.337402421875,0.02360083984375,1.1120605029296875
-0.25692158203125,0.12482314697265626,1.033169423828125
-0.2143712890625,0.01747358154296875,0.8859552294921875
-0.20294349609375,-0.06536695068359374,0.7724110595703125
-0.09741876953125,-0.059729873046875,0.7601227294921875
-0.267376796875,-0.0425735498046875,0.865065068359375
-0.28366748046875,-0.0749254736328125,1.014491162109375
-0.21510072265625,0.01747358154296875,1.132459130859375
-0.2785614453125,-0.03056412353515625,1.1862820166015624
-0.39016478515624997,-0.008996174316406251,1.24403716796875
-0.38384302734375,0.01992448486328125,1.154578125
-0.39356880859375,-0.0386521044921875,1.1014925390624999
-0.4536255078125,0.015022678222656249,0.981066904296875
-0.16404037109375,-0.1116890234375,0.8456495068359375
-0.07407689453124999,-0.11095375244140625,0.8687515673828125
-0.3223274609375,-0.10188541015625,0.8923451611328125
-0.1579617578125,-0.01193725830078125,0.9218371533203125
-0.2425760546875,-0.0817880029296875,0.9203625537109374
-0.2454937890625,-0.0254172265625,0.93142205078125
-0.205131796875,0.01894412353515625,1.03366095703125
-0.296554140625,0.016738310546875,1.0850261767578124
-0.339347578125,0.01575794921875,0.9950756005859375
-0.23066197265625,0.083402880859375,1.0545511181640626
-0.40937320312500003,0.00276816162109375,1.0417712548828124
-0.2921775390625,0.05227640869140625,1.0707717138671875
-0.273212265625,0.07923634521484375,1.112797802734375
-0.41423609375,7.216796875000007e-05,1.0457035205078125
-0.2474389453125,0.1211467919921875,1.0457035205078125
-0.28804408203125,0.05717821533203125,1.0250591259765625
-0.24865466796875,-0.0474753564453125,0.9921264013671875
-0.23260712890625002,-0.00777072265625,0.92650671875
-0.240144609375,0.0025230712890624996,0.8977520263671875
-0.23260712890625002,0.05619785400390625,0.770690693359375
-0.2377131640625,0.04394333740234375,0.775606025390625
-0.29096181640625,0.11550971435546875,0.9169218212890625
-0.3573402734375,-0.123453359375,0.968287041015625
-0.28658521484375,0.02580665283203125,0.901438525390625
-0.23552486328125,-0.00507472900390625,0.7672499609375
-0.35855599609375,-0.12933552734375,0.6937657470703125
-0.23455228515625,-0.052867343750000004,0.7743771923828124
-0.29290697265625,0.02482629150390625,0.93535431640625
-0.3719289453125,-0.07173929931640625,1.043983154296875
-0.2289599609375,-0.0239466845703125,1.01203349609375
-0.2279873828125,-0.0847290869140625,0.83901380859375
-0.15236943359375,-0.107767578125,0.8785822314453124
-0.1093328515625,-0.0788469189453125,1.044966220703125
-0.31697828125,-0.01953505859375,1.1066536376953124
-0.277102578125,-0.05360261474609375,1.0019570654296874
-0.27637314453125,-0.0063001806640625,0.9316678173828125
-0.36585033203125,-0.05115171142578125,0.9493630126953125
-0.2255559375,-0.0347306591796875,0.9835245703125
-0.3135742578125,0.02923791748046875,1.050864619140625
-0.37849384765625,0.052031318359375,1.101984072265625
-0.26470220703125,0.03659062744140625,1.0452119873046875
-0.30603677734375,0.0103659619140625,1.055779951171875
-0.09425789062500001,-0.0317895751953125,1.0702801806640625
-0.2177753125,0.106931552734375,1.1617053564453126
-0.3301080859375,0.05962911865234375,1.0174403613281249
-0.36974064453125,-0.057769150390625,0.841471474609375
-0.2566784375,0.124578056640625,0.92552365234375
-0.25157240234375,0.08756941650390625,0.8274627783203125
-0.24938410156250002,-0.028113220214843748,0.9026673583984375
-0.28318119140625,0.01183650390625,1.0184234277343749
-0.21801845703125,-0.12712971435546874,0.9036504248046875
-0.28172232421875,-0.0097314453125,0.9223286865234375
-0.30457791015625,-0.09404251953125001,1.0071181640625
-0.30944080078125,-0.042328459472656246,1.1125520361328125
-0.493014921875,-0.0641414990234375,1.042017021484375
-0.43368765625,-0.08840544189453126,0.9650920751953125
-0.2513292578125,-0.0592396923828125,0.8839890966796875
-0.2435486328125,0.08217742919921875,0.998762099609375
-0.2299325390625,0.122617333984375,0.9763973388671875
-0.26664736328125,-0.08203309326171875,0.7615973291015625
-0.11200744140625,-0.0411030078125,0.6863927490234375
-0.22823052734375,0.0093856005859375,0.676316318359375
-0.31624884765625,-0.1229631787109375,0.7689703271484375
-0.3738741015625,-0.01144707763671875,0.8721922998046875
-0.33181009765625,0.0829127001953125,0.663536455078125
-0.17182099609375,-0.09624833251953124,0.6296206640625
-0.09595990234375,-0.079337099609375,0.8576920703124999
-0.2027003515625,-0.02321141357421875,1.0869923095703125
-0.38700390625000003,0.0843832421875,1.3828952978515625
-0.42274615234375,0.093206494140625,1.502092099609375
-0.5965944921875,0.09394176513671874,1.3027753857421875
-0.32013916015625,0.0495804150390625,0.9599309765625
-0.28658521484375,-0.147962392578125,0.8065726171875
-0.13291787109375,-0.18301031005859375,0.696960712890625
-0.04465640625,-0.0680629443359375,0.5831707763671875
-0.00696900390625,-0.0690433056640625,0.5895607080078125
-0.1511537109375,-0.11732610107421874,0.694994580078125
-0.2104809765625,-0.06659240234375,0.9009469921875
-0.29631099609375,0.0074248779296875,1.15752732421875
-0.13583560546875,0.03512008544921875,1.44851498046875
-0.52316484375,0.21207530517578124,1.6212889013671874
-0.66540439453125,0.1510478125,1.374785
-0.51951767578125,0.0319339111328125,1.0299744580078125
-0.3339983984375,0.010611052246093749,0.9601767431640625
-0.28755779296875,-0.0018885546875000003,1.0653648486328124
-0.20586123046875,-0.0347306591796875,0.8446664404296875
-0.16306779296875,-0.049926259765625,0.6760705517578125
-0.2036729296875,-0.06732767333984375,0.6387140283203125
-0.2484115234375,0.01453249755859375,0.593738740234375
-0.011345605468749999,-0.1229631787109375,0.685163916015625
-0.024475410156250002,-0.13105115966796876,1.1120605029296875
-0.52389427734375,0.0270321044921875,1.33644541015625
-0.55112646484375,0.03806116943359375,1.2049602783203124
-0.3446967578125,0.00987578125,1.0860092431640624
-0.39648654296875,-0.02860340087890625,0.9164302880859375
-0.19467658203125,0.17482157470703125,1.1592476904296876
-0.35369310546875,0.1338914892578125,1.465718642578125
-0.33959072265625,0.11771552734375,1.6522554931640625
-0.44900576171875,-0.02860340087890625,1.3258774462890626
-0.47842625,-0.08595453857421875,0.821810146484375
-0.30919765625,-0.087179990234375,0.537703955078125
-0.1190586328125,-0.0337502978515625,0.34748060546875
-0.10203851562499999,-0.0592396923828125,0.3162682470703125
0.012239414062499999,-0.0406128271484375,0.51460189453125
-0.28269490234375,-0.071494208984375,0.77806369140625
-0.45411179687500003,-0.0906112548828125,1.00220283203125
-0.61045373046875,-0.04477936279296875,1.197341513671875
-0.376305546875,-0.0229663232421875,1.2069264111328124
-0.13778076171875,0.0505607763671875,1.234698037109375
-0.325731484375,0.042227705078125,1.245020234375
-0.41399294921875,-0.008996174316406251,1.3057245849609376
-0.39794541015625,-0.0837487255859375,1.0845346435546874
-0.33910443359375,0.03561026611328125,0.9021758251953125
-0.30409162109375,-0.13007079833984375,0.705808310546875
-0.0869635546875,-0.1710008837890625,0.78494515625
-0.146777109375,0.0015427099609375003,0.9646005419921875
-0.341292734375,-0.0915916162109375,0.9980247998046875
-0.28609892578125,-0.11487519775390626,0.9429730810546875
-0.1754681640625,-0.03129939453125,0.8038691845703125
-0.3563676953125,-0.03056412353515625,0.6795112841796875
-0.36147373046875,0.04100225341796875,0.84097994140625
-0.44511544921875,0.05619785400390625,1.026287958984375
-0.27199654296875,-0.046249904785156254,1.1887396826171874
-0.5528284765625,0.080461796875,1.1852989501953124
-0.42420501953125,0.01404231689453125,0.95796484375
-0.10519939453125,-0.05801424072265625,0.8053437841796875
-0.26616107421875,0.00619942626953125,0.8569547705078124
-0.21947732421875,-0.0337502978515625,0.7679872607421875
-0.10471310546875,-0.06291604736328126,0.8859552294921875
-0.24038775390625,0.04712951171875,1.1125520361328125
-0.345183046875,0.04345315673828125,1.19488384765625
-0.44414287109375,0.00963069091796875,1.0049062646484375
-0.40329458984375,0.13756784423828125,0.9363373828125
-0.2600824609375,-0.008996174316406251,0.932896650390625
-0.38627447265625,0.0838930615234375,1.1211538671875
-0.44317029296875,0.0250713818359375,1.261240830078125
-0.39065107421875,0.030708459472656248,1.17817171875
-0.2464663671875,-0.10654212646484375,1.044966220703125
-0.31430369140625003,-0.013162709960937501,1.0157199951171876
-0.23795630859375,-0.0533575244140625,1.048406953125
-0.34396732421875,-0.022476142578125,1.05332228515625
-0.2561921484375,-0.049926259765625,0.9837703369140625
-0.1871391015625,-0.20261753662109375,0.8417172412109375
-0.3164919921875,-0.10605194580078126,0.7869112890625
-0.18835482421875,-0.146001669921875,0.68172318359375
-0.15164,0.03413972412109375,0.8972604931640625
-0.448276328125,0.0280124658203125,1.159001923828125
-0.52875716796875,0.09418685546875,1.2737749267578125
-0.3967296875,-0.00997653564453125,1.045949287109375
-0.33472783203125,0.03413972412109375,1.0265337255859375
-0.3408064453125,0.0037485229492187503,0.906845390625
-0.0996070703125,-0.1038461328125,0.851302138671875
-0.27199654296875,-0.0055649096679687505,0.845403740234375
-0.323786328125,-0.01144707763671875,0.7910893212890625
-0.23844259765625,-0.0925719775390625,0.8368019091796874
-0.23260712890625002,-0.11977700439453125,0.9282270849609375
-0.327676640625,-0.08301345458984374,0.8613785693359375
-0.14264365234375,-0.010221625976562499,0.705808310546875
-0.1530988671875,0.016738310546875,0.8972604931640625
-0.42590703125,0.0020328906249999995,1.0491442529296875
-0.496905234375,0.036345537109375,1.1312302978515625
-0.34931650390625,0.12555841796875,1.0884669091796875
-0.45873154296875,0.1221271533203125,1.02776255859375
-0.3301080859375,-0.12541408203125,0.850319072265625
-0.16647181640625,0.0191892138671875,0.8267254785156251
-0.17279357421875,0.0868341455078125,0.8549886376953125
-0.294608984375,-0.03840701416015625,0.9292101513671875
-0.2523018359375,0.09247122314453125,0.882760263671875
-0.255705859375,-0.068553125,0.9677955078125
-0.213885,0.04443351806640625,1.1838243505859376
-0.35417939453125,0.12090170166015625,1.2627154296875
-0.39818855468750003,-0.09869923583984375,1.0599579833984376
-0.144831953125,0.1191860693359375,1.1046875048828124
-0.49471693359375,0.10399046875,1.1307387646484375
-0.448276328125,0.1093824560546875,1.0904330419921875
-0.2834243359375,0.10668646240234375,0.9154472216796875
-0.3028758984375,-0.0366913818359375,0.7409529345703125
-0.19613544921875,-0.0043394580078125,0.6699263867187499
-0.14458880859375,-0.0719843896484375,0.7869112890625
-0.2843969140625,-0.11732610107421874,0.953541044921875
-0.23503857421875,-0.11585555908203125,1.1720275537109375
-0.3933256640625,-0.0063001806640625,1.1722733203125
-0.41034578125,-0.0371815625,0.969270107421875
-0.23139140625,0.0044837939453125,0.9149556884765625
-0.36876806640625,0.0172284912109375,0.8741584326171875
-0.2367405859375,-0.02076051025390625,0.9601767431640625
-0.3500459375,0.04541387939453125,1.0228472265625
-0.346155625,-0.045024453125,0.8537598046875
-0.21850474609375,0.03536517578125,0.7517666650390625
-0.2425760546875,-0.00997653564453125,0.7488174658203125
-0.26664736328125,0.10227483642578125,0.7684787939453125
-0.1944334375,0.07972652587890625,0.8068183837890625
-0.40378087890625003,-0.029338671875,0.97467697265625
-0.30360533203125,0.03266918212890625,1.110831669921875
-0.2202067578125,0.0044837939453125,1.12312
-0.249870390625,-0.01046671630859375,1.174239453125
-0.35393625,0.04296297607421875,1.2713172607421874
-0.39745912109375,0.185360458984375,1.3381657763671875
-0.32694720703125,0.011346323242187501,1.1789090185546875
-0.38432931640625,0.140263837890625,1.030220224609375
-0.29582470703125,0.1314405859375,1.0112961962890625
-0.26518849609375,-0.0680629443359375,0.842454541015625
-0.1424005078125,0.1731059423828125,0.9208540869140625
-0.28196546875,-0.068553125,0.9528037451171875
-0.32159802734375,0.055462583007812497,1.028745625
-0.2843969140625,0.0427178857421875,0.98843990234375
-0.3330258203125,0.11305881103515625,1.0270252587890625
-0.03687578125,-0.076396015625,1.0503730859375
-0.2056180859375,-0.01732924560546875,1.3435726416015625
-0.4925286328125,0.09590248779296875,1.4979140673828124
-0.4983641015625,-0.059484782714843754,1.27156302734375
-0.32475890625,0.01257177490234375,0.962388642578125
-0.33667298828125003,-0.0425735498046875,0.712689775390625
-0.17327986328125,-0.16242272216796874,0.70138451171875
-0.175954453125,-0.09967959716796874,0.8623616357421875
-0.323786328125,-0.01389798095703125,0.9282270849609375
-0.321841171875,-0.1665892578125,0.859658203125
-0.39016478515624997,-0.04698517578125,0.8608870361328125
-0.25546271484375,-0.0827683642578125,0.8087845166015625
-0.1715778515625,-0.0411030078125,0.8957858935546875
-0.265431640625,0.0780108935546875,1.067576748046875
-0.37557611328125,0.07286399658203124,1.1474508935546874
-0.35612455078125,0.1280093212890625,1.20471451171875
-0.38141158203125003,0.077520712890625,1.0835515771484374
-0.28585578125,-0.057278969726562504,0.8618701025390625
-0.13194529296875,-0.05874951171875,0.75250396484375
-0.1686601171875,-0.02076051025390625,0.7896147216796875
-0.27296912109375,-0.06781785400390625,0.868014267578125
-0.206104375,0.08168724853515624,1.0073639306640625
-0.26154132812499997,0.13070531494140625,1.046932353515625
-0.2153438671875,-0.00605509033203125,1.04939001953125
-0.175954453125,0.1201664306640625,1.0810939111328124
-0.34007701171875,0.1476165478515625,0.9886856689453125
-0.2172890234375,0.14394019287109375,0.8633447021484375
-0.34737134765625,0.1574201611328125,0.93535431640625
-0.19346085937500002,0.15300853515625001,0.88620099609375
-0.25108611328125,0.011346323242187501,0.7468513330078125
-0.19029998046875,-0.0170841552734375,0.6976980126953125
-0.207076953125,-0.17663796142578125,0.6161035009765625
-0.22579908203125,-0.03252484619140625,0.599637138671875
-0.1647698046875,-0.1680597998046875,0.597671005859375
-0.16695810546875,-0.03056412353515625,0.796250419921875
-0.31965287109375,0.0701680029296875,0.9591936767578125
-0.2980130078125,0.0338946337890625,1.0751955126953125
-0.1944334375,0.065756376953125,1.0692971142578125
-0.35977171875,0.238299970703125,1.153103525390625
-0.3631757421875,0.212810576171875,1.162934189453125
-0.32475890625,0.07188363525390624,1.14376439453125
-0.38238416015625,0.08119706787109375,1.12017080078125
-0.2873146484375,-0.18987283935546875,1.0130165625
-0.19637859375,-0.09085634521484375,0.9380577490234375
-0.16938955078125,-0.08987598388671875,0.9245405859375
-0.3767918359375,-0.012672529296875,1.0919076416015625
-0.39940427734375,-0.10972830078125,1.080356611328125
-0.34591248046875,0.01845394287109375,1.1051790380859374
-0.30652306640625,0.06673673828125,1.12803533203125
-0.3203823046875,0.08266760986328126,1.212087509765625
-0.3267040625,-0.04526954345703125,1.24207103515625
-0.33181009765625,0.08119706787109375,1.042017021484375
-0.3811684375,0.09835339111328124,0.902913125
-0.31430369140625003,-0.10580685546875,0.7689703271484375
-0.27807515625,-0.08889562255859375,0.6406801611328125
-0.06751199218750001,-0.08056255126953125,0.5782554443359375
-0.16015005859375,-0.116590830078125,0.7370206689453125
-0.39818855468750003,0.10521592041015625,0.86359046875
-0.25497642578125,0.08242251953125,0.9292101513671875
-0.22677166015625,0.0995788427734375,0.9641090087890625
-0.4176401171875,0.12923477294921876,1.075441279296875
-0.28464005859375,0.18462518798828126,1.1607222900390626
-0.4122909375,0.2387901513671875,1.135408330078125
-0.38481560546875,0.09933375244140626,0.975168505859375
-0.22579908203125,0.04712951171875,0.749063232421875
-0.2289599609375,0.08242251953125,0.645841259765625
-0.01426333984375,-0.01144707763671875,0.677299384765625
-0.2892598046875,0.019434304199218752,0.894557060546875
-0.39016478515624997,0.07850107421875,1.0776531787109376
-0.25205869140625,-0.10311086181640625,1.1287726318359375
-0.33472783203125,0.143204921875,1.2605035302734375
-0.29387955078125,-0.04306373046875,1.17817171875
-0.1832487890625,-0.126394443359375,0.98647376953125
-0.2814791796875,-0.028358310546875,0.95108337890625
-0.33181009765625,-0.167569619140625,0.984016103515625
-0.19953947265625,-0.1249239013671875,0.8446664404296875
-0.29728357421875,-0.1229631787109375,0.8653108349609375
-0.24306234375,-0.17516741943359376,0.8834975634765625
-0.19370400390625,-0.20948006591796875,0.7974792529296875
-0.142886796875,-0.20849970458984374,0.722520439453125
-0.29679728515625,-0.11487519775390626,0.76921609375
-0.21583015625000002,-0.02125069091796875,0.8458952734375
-0.30555048828125,0.09541230712890625,0.9621428759765625
-0.335457265625,0.09982393310546875,0.9559987109375
-0.12635296875,0.12335260498046875,1.0270252587890625
-0.1997826171875,0.2152614794921875,1.1037044384765624
-0.26251390625,0.167713955078125,1.091170341796875
-0.26470220703125,0.1946738916015625,1.1005094726562499
-0.40329458984375,0.16452778076171876,1.0737209130859375
-0.2756437109375,0.1368325732421875,1.0850261767578124
-0.3583128515625,-0.013162709960937501,0.916184521484375
-0.20488865234375,0.0574233056640625,0.8603955029296875
-0.26616107421875,0.08242251953125,0.949608779296875
-0.21972046875,0.153988896484375,1.131476064453125
-0.22750109375,-0.0006631030273437505,1.1683410546875
-0.316005703125,0.14394019287109375,1.3135891162109374
-0.2581373046875,0.13462676025390624,1.3804376318359375
-0.2800203125,0.0020328906249999995,1.2767241259765625
-0.47526537109375,-0.0562986083984375,1.2374014697265625
-0.5343494921875,-0.15016820556640625,1.0071181640625
-0.4127772265625,-0.149923115234375,0.8058353173828126
-0.24281919921875,-0.1906081103515625,0.601603271484375
-0.038577792968749997,-0.03350520751953125,0.747097099609375
-0.2153438671875,-0.08840544189453126,0.7566819970703125
-0.06240595703125,-0.21928367919921876,1.0044147314453125
-0.21850474609375,-0.0043394580078125,1.2705799609375
-0.48693630859375,0.05178622802734375,1.3846156640625
-0.25692158203125,0.03659062744140625,1.2806563916015625
-0.510521328125,0.04124734375,1.0879753759765625
-0.47332021484375,-0.08252327392578125,0.953541044921875
-0.25400384765625,-0.2516356030273437,0.75250396484375
-0.14361623046875,-0.07222947998046875,0.55589068359375
-0.13680818359375,-0.1004148681640625,0.4189986865234375
-0.09595990234375,-0.10360104248046875,0.4538975439453125
-0.08672041015625,-0.029338671875,0.5069831298828125
-0.25157240234375,0.13315621826171875,0.718096640625
-0.2960678515625,0.23928033203125,0.955507177734375
-0.32791978515625,0.29589619873046874,1.25976623046875
-0.3155194140625,0.17482157470703125,1.4094380908203126
-0.29193439453125003,0.087324326171875,1.2671392285156249
-0.3417790234375,0.0613447509765625,1.2275708056640624
-0.33715927734375,-0.01879978759765625,0.984016103515625
-0.23528171875,0.1079119140625,0.9680412744140625
-0.34056330078125,0.15815543212890626,0.8535140380859375
-0.349073359375,-0.09330724853515625,0.756927763671875
-0.2411171875,0.02874773681640625,0.786419755859375
-0.26154132812499997,-0.10458140380859375,0.8220559130859375
-0.28901666015625,-0.01585870361328125,0.9402696484374999
-0.096203046875,0.077520712890625,1.0031858984375
-0.17571130859375,-0.09796396484375,1.067576748046875
0.036797011718749995,-0.09845414550781251,1.2600119970703125
-0.45338236328125,-0.03742665283203125,1.4408962158203125
-0.34591248046875,-0.16462853515625,1.3332504443359374
-0.35101851562499997,-0.10458140380859375,1.1427813281249999
-0.5139253515625,0.00472888427734375,1.1046875048828124
-0.3242726171875,-0.15801109619140624,0.920116787109375
-0.304334765625,0.0103659619140625,0.741198701171875
-0.29971501953125,0.04443351806640625,0.7006472119140625
-0.1307295703125,-0.12516899169921875,0.6809858837890626
-0.10374052734375,0.1358522119140625,0.793301220703125
-0.27977716796875,0.16011615478515626,0.9183964208984375
-0.20537494140625,-0.13105115966796876,1.020389560546875
-0.22361078125,0.12555841796875,1.0781447119140626
-0.316005703125,0.010611052246093749,0.91765912109375
-0.35223423828125,-0.16830489013671876,0.9007012255859375
-0.3111428125,-0.01561361328125,1.00416896484375
-0.35272052734375,-0.0009081933593750001,1.0461950537109375
-0.39989056640625,0.03610044677734375,1.037101689453125
-0.2581373046875,0.0397768017578125,0.87243806640625
-0.22701480468750002,0.12825441162109374,0.812471015625
-0.18227621093750002,0.09737302978515625,0.9992536328125
-0.19127255859375,0.10227483642578125,1.2442829345703126
-0.10714455078125,0.13070531494140625,1.2988431201171875
-0.3135742578125,0.1628121484375,1.1612138232421876
-0.35515197265625,0.114774443359375,1.068559814453125
-0.36366203125,-0.05874951171875,1.0240760595703124
-0.26470220703125,-0.1979608203125,1.0727378466796875
-0.41204779296875,-0.0749254736328125,0.9754142724609375
-0.30846822265625,-0.0876701708984375,0.7475886328125
-0.1803310546875,-0.15507001220703126,0.568670546875
-0.1200312109375,-0.15114856689453124,0.546551552734375
-0.16695810546875,-0.0327699365234375,0.730384970703125
-0.33715927734375,0.038306259765625,0.984016103515625
-0.298499296875,0.05129604736328125,1.197833046875
-0.39989056640625,-0.0016434643554687498,1.252393232421875
-0.29825615234375,-0.0239466845703125,1.14179826171875
-0.19564916015625,-0.08791526123046875,1.0130165625
-0.21583015625000002,-0.14918784423828124,0.885709462890625
-0.21510072265625,-0.032279755859375,0.7586481298828125
-0.24816837890625,0.00276816162109375,0.6564092236328125
-0.201241484375,0.01306195556640625,0.7178508740234375
-0.33715927734375,0.0603643896484375,0.904387724609375
-0.40913005859375,0.028502646484374998,1.1430270947265626
-0.20683380859375,0.0397768017578125,1.205206044921875
-0.3738741015625,0.1079119140625,1.1565442578125
-0.28269490234375,-0.026397587890625,0.9803296044921875
-0.17522501953125,0.0809519775390625,0.9085657568359375
-0.35806970703125,-0.08497417724609375,0.8564632373046875
-0.28172232421875,-0.09281706787109376,0.924049052734375
-0.321841171875,-0.08105273193359375,0.9134810888671875
-0.32864921874999997,-0.00654527099609375,0.9242948193359375
-0.30919765625,0.06109966064453125,0.7625803955078125
-0.18397822265625,0.15521434814453125,0.712689775390625
-0.12513724609375,0.1466361865234375,0.748080166015625
-0.1920019921875,0.07457962890625,0.9523122119140625
-0.35369310546875,0.022620478515625,1.08478041015625
-0.06726884765625,-0.081297822265625,0.978117705078125
-0.30214646484375,-0.0866898095703125,1.026287958984375
-0.419098984375,-0.14894275390625,1.032186357421875
-0.271267109375,-0.057769150390625,0.9301932177734376
-0.3028758984375,-0.0161037939453125,0.9852449365234375
-0.38530189453125,-0.10188541015625,1.157035791015625
-0.302389609375,-0.0038492773437499997,0.99827056640625
-0.35199109375,-0.08889562255859375,0.7674957275390625
-0.1988100390625,-0.0254172265625,0.66599412109375
-0.09061072265625,0.103010107421875,0.6706636865234374
-0.127325546875,0.03462990478515625,0.82721701171875
-0.1774133203125,0.13217585693359374,0.974185439453125
-0.10860341796875,0.063795654296875,1.024321826171875
-0.29485212890625,0.0436982470703125,1.079373544921875
-0.40694175781249997,0.0701680029296875,1.17129025390625
-0.38700390625000003,0.04124734375,1.2044687451171874
-0.40062,0.04051207275390625,1.1317218310546875
-0.38384302734375,0.01159141357421875,0.9980247998046875
-0.21412814453125,-0.01561361328125,1.0307117578125
-0.300444453125,-0.0161037939453125,1.062661416015625
-0.29752671875000003,0.13756784423828125,1.084288876953125
-0.21899103515625,0.1534987158203125,0.971236240234375
-0.210967265625,0.0608545703125,0.930438984375
-0.1355924609375,0.10595119140625,0.9547698779296875
-0.13583560546875,0.015022678222656249,1.004660498046875
-0.2746711328125,-0.11879664306640625,1.11820466796875
-0.2425760546875,-0.05164189208984375,1.180629384765625
-0.4614061328125,0.04933532470703125,1.1046875048828124
-0.40329458984375,0.07457962890625,0.97664310546875
-0.35977171875,0.1280093212890625,0.97664310546875
-0.24330548828125,0.03266918212890625,1.1010010058593749
-0.23990146484375,0.091245771484375,1.2369099365234375
-0.34104958984375,0.07850107421875,1.2123332763671875
-0.48888146484375,0.03928662109375,0.866048134765625
-0.23528171875,-0.12222790771484375,0.5359835888671876
-0.033714902343750006,-0.12761989501953125,0.509195029296875
-0.0723748828125,-0.0729647509765625,0.669434853515625
-0.1608794921875,-0.053847705078125,0.884726396484375
-0.28658521484375,0.03364954345703125,1.1366371630859375
-0.39891798828125,0.073599267578125,1.22240970703125
-0.2678630859375,0.01012087158203125,1.2241300732421876
-0.32354318359375,0.087324326171875,1.2157740087890625
-0.21169669921875,-0.02223105224609375,1.2192147412109375
-0.43879369140625,-0.01978014892578125,1.1538408251953125
-0.43004048828125,0.01649322021484375,1.01399962890625
-0.34421046875,0.03561026611328125,0.83508154296875
-0.17911533203125,0.04443351806640625,0.6873758154296875
-0.0723748828125,-0.0562986083984375,0.80067421875
-0.1083602734375,-0.11364974609375,1.0943653076171875
-0.252788125,-0.07860182861328124,1.2496897998046874
-0.22434021484375,-0.01879978759765625,1.1091113037109375
-0.2561921484375,-0.00458454833984375,0.9763973388671875
-0.292663828125,0.03953171142578125,0.863098935546875
-0.2454937890625,0.014777587890624999,0.9046334912109375
-0.42663646484375,-0.0006631030273437505,0.955507177734375
-0.423961875,0.0789912548828125,1.064627548828125
-0.310170234375,-0.01732924560546875,0.9572275439453125
-0.2649453515625,0.06453092529296875,0.9007012255859375
-0.137051328125,0.0378160791015625,0.9316678173828125
-0.2260422265625,-0.07370002197265625,0.905370791015625
-0.2347954296875,0.04002189208984375,1.0179318945312499
-0.312115390625,-0.05115171142578125,1.0280083251953125
-0.33083751953125,-0.1102184814453125,1.0073639306640625
-0.271267109375,0.08217742919921875,1.0184234277343749
-0.25546271484375,0.04394333740234375,0.9532952783203125
-0.201241484375,0.0530116796875,0.8264797119140626
-0.273212265625,0.026296833496093748,0.7581565966796875
-0.30798193359375,0.02923791748046875,0.871946533203125
-0.34226531250000003,0.0515411376953125,0.9992536328125
-0.3748466796875,-0.09012107421875,1.1612138232421876
-0.32086859375,-0.02958376220703125,1.177680185546875
-0.30944080078125,-0.07443529296875,1.0265337255859375
-0.29776986328125,0.01453249755859375,0.7979707861328125
-0.23163455078125,-0.00311400634765625,0.754961630859375
-0.21510072265625,0.0505607763671875,0.7832247900390625
-0.15723232421875,0.01747358154296875,0.9100403564453124
-0.1268392578125,-0.10286577148437501,1.0157199951171876
-0.2182616015625,-0.13129625,1.1877566162109374
-0.43149935546875,-0.05850442138671875,1.14966279296875
-0.3680386328125,-0.11242429443359375,0.913235322265625
-0.28512634765625,-0.0254172265625,0.8301662109375
-0.3456693359375,0.1093824560546875,0.84491220703125
-0.2644590625,0.11550971435546875,0.9380577490234375
-0.30846822265625,0.10276501708984374,1.085271943359375
-0.28269490234375,0.05374695068359375,1.1189419677734376
-0.25084296875,-0.0935523388671875,1.0638902490234374
-0.27248283203125,-0.03987755615234375,1.2142994091796875
-0.13826705078125,0.07678544189453125,1.23224037109375
-0.30846822265625,0.116735166015625,1.1548238916015625
-0.4156949609375,0.10987263671875,1.0825685107421874
-0.338375,0.05472731201171875,1.11820466796875
-0.4565432421875,0.0843832421875,1.134425263671875
-0.29339326171875,-0.0641414990234375,1.06315294921875
-0.24233291015625,-0.03644629150390625,0.8908705615234375
-0.25011353515625,0.0505607763671875,0.7409529345703125
-0.20294349609375,-0.1582561865234375,0.7011387451171875
-0.222638203125,0.0338946337890625,0.8962774267578125
-0.39502767578125,0.08364797119140625,1.10640787109375
-0.330594375,-0.030073942871093752,1.2899955224609374
-0.39745912109375,0.03217900146484375,1.3465218408203126
-0.32111173828125,-0.04919098876953125,1.1626884228515626
-0.15480087890625,-0.06340622802734375,0.9360916162109375
-0.2099946875,0.04712951171875,0.88226873046875
-0.218747890625,-0.06634731201171876,0.9051250244140625
-0.2630001953125,0.00717978759765625,1.010558896484375
-0.3631757421875,-0.0259074072265625,1.0860092431640624
-0.2834243359375,-0.0803174609375,1.056763017578125
-0.290718671875,-0.00948635498046875,1.02579642578125
-0.32500205078125,0.02482629150390625,1.0503730859375
-0.22044990234375,-0.02615249755859375,0.990897568359375
-0.240144609375,-0.00777072265625,1.0117877294921875
-0.24281919921875,-0.10727739746093751,1.048406953125
-0.27540056640625,0.0535018603515625,1.113780869140625
-0.22434021484375,-0.05164189208984375,1.027271025390625
-0.28415376953125,-0.12565917236328125,0.8879213623046875
-0.23844259765625,-0.083258544921875,0.8839890966796875
-0.26664736328125,-0.08546435791015625,0.8154202148437499
-0.236254296875,0.09149086181640625,0.8274627783203125
-0.16720125,-0.006790361328125,0.8259881787109375
-0.23917203125,-0.012672529296875,0.9528037451171875
-0.21072412109375,-0.0004180126953125,1.13098453125
-0.23601115234375,0.0809519775390625,1.367412001953125
-0.3787369921875,0.0495804150390625,1.3374284765625
-0.2513292578125,-0.027868129882812502,1.1587561572265626
-0.24184662109375,0.02286556884765625,1.0481611865234375
-0.36779548828124997,-0.126394443359375,1.0540595849609375
-0.325731484375,-0.0886505322265625,0.9363373828125
-0.3369161328125,-0.16487362548828124,0.717605107421875
-0.1015522265625,-0.1298257080078125,0.6416632275390625
-0.1866528125,-0.155805283203125,0.791335087890625
-0.16987583984375,-0.04330882080078125,0.938303515625
-0.237226875,-0.024436865234375,0.9206083203125
-0.29825615234375,0.0387964404296875,0.9626344091796875
-0.29485212890625,0.15300853515625001,0.8820229638671875
-0.2347954296875,0.1780077490234375,0.8407341748046875
-0.25643529296875,0.1392834765625,0.9390408154296875
-0.2980130078125,0.04712951171875,1.039067822265625
-0.33813185546875,-0.01928996826171875,1.0629071826171874
-0.347128203125,-0.036201201171875,0.985982236328125
-0.323786328125,-0.06340622802734375,0.906845390625
-0.17303671874999998,-0.0474753564453125,0.770690693359375
-0.2425760546875,-0.05605351806640625,0.6846723828125
-0.2377131640625,-0.0847290869140625,0.884726396484375
-0.27442798828125,-0.212666240234375,0.860149736328125
-0.28123603515625,-0.114630107421875,0.763809228515625
-0.27613,-0.09428760986328125,0.6696806201171875
-0.15431458984375,-0.05556333740234375,0.6691890869140625
-0.29096181640625,0.03610044677734375,0.7434106005859376
-0.2795340234375,0.11158826904296874,0.9174133544921875
-0.1861665234375,0.050070595703125,1.04349162109375
-0.376305546875,0.14246965087890626,1.1919346484375
-0.37581925781250003,0.0221302978515625,1.2162655419921875
-0.31308796875,0.04320806640625,1.1880023828125
-0.35320681640625,0.05178622802734375,1.1005094726562499
-0.2532744140625,0.0201695751953125,0.8498275390625
-0.20780638671875,0.0505607763671875,0.724486572265625
-0.205131796875,-0.0724745703125,0.719571240234375
-0.2192341796875,0.07090327392578125,0.9414984814453125
-0.24306234375,-0.0562986083984375,1.0874838427734375
-0.44365658203125,-0.0960032421875,1.1351625634765625
-0.22142248046875002,0.0133070458984375,1.1297556982421875
-0.36098744140625,-0.07566074462890625,0.9704989404296875
-0.2873146484375,0.036345537109375,0.9284728515625
-0.35588140625,0.0044837939453125,0.923065986328125
-0.2566784375,-0.042083369140625,0.76823302734375
-0.21801845703125,0.00227798095703125,0.64633279296875
-0.12416466796875,-0.0249270458984375,0.694011513671875
-0.13972591796875,-0.15997181884765624,0.8490902392578125
-0.17911533203125,0.07678544189453125,1.070525947265625
-0.25497642578125,0.0564429443359375,1.276969892578125
-0.4312562109375,-0.05605351806640625,1.4192687548828125
-0.46797103515625,0.11796061767578125,1.1327048974609375
-0.37800755859375,-0.0033590966796874996,0.8903790283203125
-0.1287844140625,-0.14085477294921875,0.8692431005859375
-0.12367837890625,-0.139139140625,0.8918536279296875
-0.26275705078125,-0.065612041015625,0.7960046533203124
-0.1958923046875,-0.1798241357421875,0.70531677734375
-0.22774423828125,-0.1572758251953125,0.62667146484375
-0.26227076171875,0.06502110595703126,0.806081083984375
-0.40329458984375,0.07384435791015626,1.0083469970703125
-0.23503857421875,-0.0018885546875000003,1.1415524951171876
-0.321841171875,0.1495772705078125,1.4300824853515626
-0.33570041015625,0.042227705078125,1.464735576171875
-0.28853037109375,0.0956573974609375,1.2339607373046875
-0.10179537109375,-0.03154448486328125,0.98647376953125
-0.30846822265625,0.06551128662109375,1.02186416015625
-0.2756437109375,-0.0396324658203125,1.11820466796875
-0.5119801953125,-0.0729647509765625,1.14573052734375
-0.370470078125,-0.13840386962890625,1.0039231982421875
-0.21972046875,-0.19232374267578126,0.8240220458984375
-0.2017277734375,-0.17124597412109374,0.788385888671875
-0.218747890625,-0.16683434814453124,0.859166669921875
-0.28658521484375,-0.01144707763671875,1.023338759765625
-0.391866796875,0.04198261474609375,1.0579918505859376
-0.333512109375,-0.059729873046875,1.133442197265625
-0.15188314453125001,-0.057769150390625,1.3017923193359375
-0.4939875,-0.0268877685546875,1.3755222998046874
-0.56814658203125,-0.01781942626953125,0.93338818359375
-0.28974609375,-0.1626678125,0.4784742041015625
-0.11468203125,-0.17124597412109374,0.3531332373046875
-0.07991236328125,-0.15310928955078124,0.39466779296875
-0.111764296875,-0.10164031982421876,0.7035964111328125
-0.29485212890625,-0.0239466845703125,1.114763935546875
-0.5336200585937501,0.0123266845703125,1.33054701171875
-0.50492900390625,-0.07222947998046875,1.389039462890625
-0.294608984375,-0.0710040283203125,1.2904870556640624
-0.30457791015625,0.0201695751953125,1.070525947265625
-0.30749564453125,-0.05017135009765625,0.868014267578125
-0.339347578125,-0.12173772705078124,0.814928681640625
-0.32354318359375,-0.18595139404296876,0.7925639208984375
-0.31746457031249997,-0.247959248046875,0.82328474609375
-0.32889236328125,-0.27467409423828126,0.84786140625
-0.253760703125,-0.20384298828125,0.9434646142578125
-0.27272597656249997,-0.09477779052734375,1.0742124462890625
-0.2338228515625,-0.06242586669921875,1.1356540966796875
-0.27929087890625,-0.0494360791015625,1.1204165673828126
-0.294608984375,0.048109873046875,1.139340595703125
-0.32937865234375,-0.02076051025390625,1.1833328173828126
-0.38676076171875,-0.04036773681640625,1.1749767529296875
-0.3748466796875,-0.0646316796875,1.0609410498046874
-0.32111173828125,-0.1435507666015625,0.966320908203125
-0.356853984375,-0.16732452880859375,0.9262609521484375
-0.40232201171875,-0.12761989501953125,0.9872110693359375
-0.31138595703125,-0.2474690673828125,0.9795923046875
-0.24233291015625,-0.1366882373046875,0.9287186181640625
-0.210967265625,-0.05654369873046875,0.9604225097656249
-0.31089966796875,-0.16144236083984376,0.9503460791015625
-0.27831830078124997,-0.035711020507812496,1.0078554638671875
-0.2766162890625,-0.08105273193359375,1.0260421923828125
-0.31187224609374997,-0.14673694091796874,1.0678225146484375
-0.26664736328125,-0.059729873046875,1.119187734375
-0.3563676953125,-0.057278969726562504,1.02383029296875
-0.3223274609375,-0.03840701416015625,1.0029401318359374
-0.374360390625,-0.00654527099609375,1.0751955126953125
-0.30992708984375,-0.12541408203125,1.1014925390624999
-0.2931501171875,-0.14624676025390626,1.090187275390625
-0.323786328125,-0.0915916162109375,1.1272980322265624
-0.3378887109375,-0.1366882373046875,1.0186691943359376
-0.3038484765625,-0.20604880126953126,0.8466325732421875
-0.1482359765625,-0.13007079833984375,0.770690693359375
-0.26907880859375,-0.2562923193359375,0.883743330078125
-0.308225078125,-0.2621744873046875,1.1445016943359374
-0.30895451171875,-0.22345021484375,1.1607222900390626
-0.2980130078125,-0.1474722119140625,0.994829833984375
-0.31308796875,-0.13448242431640625,0.87047193359375
-0.183735078125,-0.14379585693359376,0.8205813134765625
-0.3271903515625,-0.12173772705078124,0.9459222802734375
-0.3680386328125,-0.0935523388671875,1.046932353515625
-0.228473671875,-0.0661022216796875,1.11230626953125
-0.32159802734375,-0.04134809814453125,1.150645859375
-0.30530734375,-0.04379900146484375,1.1194335009765626
-0.23819945312500002,-0.010221625976562499,1.004660498046875
-0.24087404296875,-0.028358310546875,0.9501003125
-0.31430369140625003,-0.03105430419921875,0.8943112939453125
-0.1997826171875,-0.11781628173828125,0.8775991650390624
-0.33570041015625,-0.14698203125,0.869980400390625
-0.29509527343749997,-0.10115013916015625,0.9773804052734375
-0.28366748046875,-0.08619962890625,0.955507177734375
-0.3777644140625,-0.12467881103515625,0.8805483642578125
-0.24962724609375,0.04149243408203125,0.90586232421875
-0.308225078125,-0.02713285888671875,0.8572005371093749
-0.335457265625,-0.02909358154296875,0.8616243359375
-0.19467658203125,-0.08252327392578125,0.810996416015625
-0.15674603515625,-0.079337099609375,0.845403740234375
-0.2989855859375,-0.0719843896484375,0.914218388671875
-0.3544225390625,-0.1298257080078125,0.9690243408203125
-0.33642984375,-0.01291761962890625,1.0506188525390625
-0.41496552734375003,-0.08227818359375,0.84097994140625
-0.24184662109375,-0.042083369140625,0.776589091796875
-0.154557734375,-0.1817848583984375,0.7507835986328125
-0.30360533203125,-0.08227818359375,0.84884447265625
-0.4458448828125,-0.1337471533203125,0.9582106103515625
-0.3067662109375,-0.14428603759765624,0.953541044921875
-0.2843969140625,-0.19967645263671874,0.943710380859375
-0.240144609375,-0.0229663232421875,0.977626171875
-0.22579908203125,-0.06928839599609375,1.0476696533203125
-0.26810623046875,-0.05311243408203125,1.068559814453125
-0.330594375,0.09418685546875,1.1368829296875
-0.44049570312499997,0.0054641552734375,1.1445016943359374
-0.29436583984375,-0.08595453857421875,1.12410306640625
-0.3344846875,-0.12320826904296875,0.984016103515625
-0.25011353515625,-0.21928367919921876,0.820335546875
-0.068970859375,-0.15678564453125,0.7987080859375
-0.28123603515625,-0.12860025634765626,0.8751414990234375
-0.45143720703125,-0.128355166015625,1.0039231982421875
-0.36730919921875,0.012816865234374999,0.989914501953125
-0.3301080859375,-0.00605509033203125,0.8874298291015625
-0.213885,-0.05703387939453125,0.8638362353515625
-0.1355924609375,-0.06928839599609375,0.9665666748046875
-0.2318776953125,-0.085219267578125,1.0830600439453124
-0.30117388671875,-0.0788469189453125,1.2241300732421876
-0.41423609375,-0.02370159423828125,1.3175213818359375
-0.5032269921875,0.057668395996093746,1.252884765625
-0.36876806640625,0.022620478515625,1.1199250341796876
-0.421044140625,0.0299731884765625,0.883743330078125
-0.18981369140625,-0.07320984130859375,0.777572158203125
-0.14458880859375,-0.06659240234375,0.8746499658203125
-0.26081189453125,-0.10654212646484375,1.024321826171875
-0.3213548828125,-0.24526325439453125,1.0739666796875
-0.3889490625,-0.20776443359375,0.9970417333984375
-0.20537494140625,-0.12860025634765626,0.85474287109375
-0.3213548828125,-0.21389169189453125,0.7198170068359375
-0.27613,-0.12173772705078124,0.7527497314453125
-0.1978374609375,-0.0974737841796875,0.9134810888671875
-0.2503566796875,0.030708459472656248,1.159001923828125
-0.3553951171875,-0.028358310546875,1.3573355712890625
-0.30992708984375,0.014777587890624999,1.2437914013671876
-0.30141703125,-0.0567887890625,1.0029401318359374
-0.38505875,0.06600146728515625,0.9773804052734375
-0.26567478515625,0.014777587890624999,1.0024485986328124
-0.240144609375,-0.132276611328125,0.9739396728515625
-0.25157240234375,-0.059729873046875,0.93732044921875
-0.20245720703125,-0.1229631787109375,0.870963466796875
-0.22434021484375,-0.17222633544921875,0.8456495068359375
-0.17376615234375,-0.1710008837890625,0.9021758251953125
-0.393811953125,-0.1062970361328125,1.17522251953125
-0.28755779296875,-0.08644471923828125,1.367412001953125
-0.32475890625,0.03413972412109375,1.310394150390625
-0.51173705078125,0.0456589697265625,1.1626884228515626
-0.39940427734375,-0.0006631030273437505,1.01399962890625
-0.21583015625000002,-0.08497417724609375,0.782487490234375
-0.070916015625,0.0530116796875,0.7989538525390625
-0.013533906250000002,-0.0945327001953125,0.9744312060546875
-0.0986344921875,-0.0259074072265625,1.131476064453125
-0.2357680078125,-0.01561361328125,1.1513831591796875
-0.455084375,-0.04428918212890625,1.3076907177734376
-0.47332021484375,-0.07517056396484376,1.42295525390625
-0.4857205859375,-0.057278969726562504,1.3032669189453125
-0.40621232421875,-0.0317895751953125,0.948625712890625
-0.1920019921875,-0.13742350830078126,0.735300302734375
-0.206104375,-0.2562923193359375,0.623722265625
-0.20537494140625,-0.2141367822265625,0.530822490234375
-0.2552195703125,-0.20310771728515625,0.498381298828125
-0.1968648828125,-0.20604880126953126,0.499364365234375
-0.080641796875,-0.10727739746093751,0.5895607080078125
-0.12221951171875,-0.03252484619140625,0.889641728515625
