ax,ay,az
-0.1555303125,0.09786321044921875,0.89406552734375
-0.16720125,0.04198261474609375,1.02088109375
-0.117599765625,0.16158669677734375,1.2934362548828124
-0.09839134765625,0.1809488330078125,1.25386783203125
-0.09134015625,0.1623219677734375,1.2644357958984376
-0.24719580078125,0.20815385986328125,1.328089345703125
-0.44025255859375,0.157910341796875,1.3767511328125
-0.47769681640625,0.077520712890625,1.27549529296875
-0.3242726171875,0.15423398681640624,1.031203291015625
-0.3203823046875,0.06011929931640625,0.808047216796875
-0.27880458984375,-0.01046671630859375,0.74070716796875
-0.1866528125,0.01453249755859375,0.6795112841796875
-0.072861171875,0.04737460205078125,0.6131543017578125
-0.012075039062500001,-0.00458454833984375,0.823776279296875
0.14378060546875,-0.0999246875,0.9704989404296875
-0.26859251953125,-0.24305744140625,0.9970417333984375
-0.049762441406249996,-0.0464949951171875,0.798216552734375
-0.14969484375,0.00963069091796875,0.9080742236328125
-0.26324333984375,0.1564397998046875,1.0068723974609375
-0.39210994140625,0.1471263671875,1.1646545556640624
-0.37557611328125,0.2659951782226562,1.1759598193359375
-0.3184371484375,0.27334788818359373,0.9820499707031249
-0.1910294140625,0.23119235107421876,0.782487490234375
-0.1326747265625,0.24540759033203124,0.860149736328125
-0.0237459765625,0.25815228759765624,1.0157199951171876
0.03314984375,0.1780077490234375,1.1130435693359375
-0.1005796484375,0.21060476318359375,1.235681103515625
-0.04830357421875,0.25668174560546875,1.162934189453125
-0.28464005859375,0.31109179931640624,1.174730986328125
-0.21704587890625,0.359864775390625,1.2531305322265625
-0.36001486328125,0.3848639892578125,1.3706069677734374
-0.43004048828125,0.38118763427734376,1.3524202392578124
-0.423961875,0.295160927734375,1.0393135888671874
-0.190543125,0.2760438818359375,0.817877880859375
-0.0752926171875,0.08658905517578125,0.8087845166015625
-0.22871681640625,0.12555841796875,0.8972604931640625
-0.12343523437500001,0.18658591064453126,0.8382765087890625
-0.10957599609375,0.146146005859375,0.8943112939453125
-0.26178447265625,0.062080021972656246,0.8633447021484375
-0.127325546875,0.04712951171875,0.7596311962890625
0.01540029296875,0.165753232421875,0.8387680419921875
-0.23455228515625,0.05913893798828125,0.87440419921875
-0.190543125,0.1471263671875,0.856217470703125
-0.24719580078125,0.22187891845703125,0.8623616357421875
-0.35417939453125,0.13413657958984376,0.9424815478515625
-0.190543125,0.1652630517578125,1.02579642578125
-0.30530734375,0.177517568359375,1.0184234277343749
-0.22385392578125,-0.0494360791015625,0.886692529296875
-0.08185751953125,0.064776015625,0.764792294921875
-0.2338228515625,0.1201664306640625,0.6583753564453125
-0.12659611328125,0.0025230712890624996,0.6421547607421875
-0.14264365234375,0.07972652587890625,0.6785282177734375
-0.1555303125,0.24687813232421876,0.8087845166015625
-0.15358515625,0.2900140307617187,0.9744312060546875
-0.2377131640625,0.316728876953125,1.1331964306640625
-0.1783858984375,0.33560083251953127,1.1420440283203126
-0.125380390625,0.30717035400390624,0.9955671337890625
-0.22725794921875,0.29491583740234373,0.913235322265625
-0.22823052734375,0.22383964111328125,0.92650671875
-0.31624884765625,0.0530116796875,0.8569547705078124
-0.2800203125,0.1946738916015625,0.8235305126953125
-0.22944625,0.18854663330078125,0.7940385205078125
-0.16647181640625,0.11060790771484375,0.8377849755859375
-0.10568568359375,0.24932903564453124,0.9247863525390625
-0.01815365234375,0.16697868408203126,1.1012467724609376
-0.3057936328125,0.2564366552734375,1.1597392236328126
-0.30895451171875,0.15864561279296874,1.072000546875
-0.28609892578125,0.2211436474609375,1.089204208984375
-0.22288134765625,0.0515411376953125,0.9609140429687499
-0.04465640625,0.0878145068359375,0.8616243359375
-0.296554140625,0.203006962890625,0.80755568359375
-0.13729447265625,0.195164072265625,0.6873758154296875
-0.16695810546875,0.23952542236328125,0.7989538525390625
-0.222638203125,0.3118270703125,1.1661291552734374
-0.30992708984375,0.31501324462890623,1.529617958984375
-0.41034578125,0.379472001953125,1.6768321533203125
-0.42323244140625,0.259867919921875,1.3558609716796874
-0.23406599609375,0.17972338134765625,0.9407611816406249
-0.06289224609374999,0.05129604736328125,0.758893896484375
-0.08720669921875,-0.025662316894531252,0.7851909228515626
-0.1385101953125,0.167713955078125,0.962388642578125
-0.30555048828125,0.246142861328125,1.03562708984375
-0.31722142578125,0.1314405859375,0.9931094677734374
-0.1813036328125,0.1966346142578125,0.924049052734375
-0.1793584765625,0.2387901513671875,0.86359046875
-0.21801845703125,0.2333981640625,0.94715111328125
0.0355812890625,0.14246965087890626,1.0520934521484375
-0.28804408203125,0.334375380859375,1.3170298486328125
-0.36755234375,0.44147985595703126,1.58811041015625
-0.3835998828125,0.33216956787109375,1.6630692236328124
-0.30141703125,0.3606000463867188,1.4010820263671875
-0.345183046875,0.1917328076171875,1.0987891064453126
-0.17692703125,0.177517568359375,1.009084296875
-0.1589343359375,0.19491898193359375,0.897506259765625
-0.07869664062500001,0.0633054736328125,0.809030283203125
-0.13024328125,0.07482471923828125,0.8254966455078125
-0.103983671875,0.16305723876953124,0.7920723876953125
0.042389335937499995,0.00668960693359375,0.975168505859375
-0.2328502734375,0.28217114013671873,1.2108586767578124
-0.3320532421875,0.293200205078125,1.228799638671875
-0.29533841796875,0.21011458251953125,1.1764513525390625
-0.18446451171875,0.32726776123046875,1.0791277783203126
-0.105928828125,0.2113400341796875,1.00023669921875
-0.10860341796875,0.13217585693359374,1.1705529541015625
-0.29728357421875,0.28217114013671873,1.113780869140625
-0.24136033203125,0.07531489990234375,0.9321593505859375
-0.12367837890625,0.08217742919921875,0.86653966796875
-0.2007551953125,0.2098694921875,0.930930517578125
0.08542591796875,0.1397736572265625,1.055779951171875
-0.15285572265625,0.02923791748046875,1.0068723974609375
-0.15139685546875,0.2787398754882813,0.985982236328125
-0.168173828125,0.0868341455078125,0.8771076318359375
-0.2007551953125,0.08217742919921875,1.0739666796875
-0.20780638671875,0.2005560595703125,1.3450472412109375
-0.25059982421875,0.2647697265625,1.5323213916015626
-0.36536404296875,0.3341302905273438,1.47702390625
-0.37460353515625,0.2544759326171875,1.22830810546875
-0.255705859375,0.27677915283203125,0.871455
-0.18738224609375,0.2451625,0.7694618603515625
-0.10544253906250001,0.24099596435546874,0.7950215869140624
-0.107873984375,0.2829064111328125,0.9405154150390624
-0.09839134765625,0.34246336181640624,1.1302472314453125
-0.242089765625,0.33560083251953127,1.097068740234375
-0.19637859375,0.2711420751953125,0.918150654296875
-0.05243703125,0.12947986328125,0.91765912109375
-0.213885,0.285357314453125,1.002694365234375
-0.3223274609375,0.2907493017578125,1.0385762890625
-0.28585578125,0.1721255810546875,1.0624156494140624
-0.36585033203125,0.26673044921875,1.0417712548828124
-0.28561263671875,0.2348687060546875,0.86359046875
-0.1511537109375,0.05374695068359375,0.8009199853515625
-0.191515703125,0.087324326171875,0.7119524755859374
-0.21023783203125002,0.118695888671875,0.647807392578125
-0.1637972265625,0.0819323388671875,0.6342902294921875
-0.1385101953125,0.101049384765625,0.59717947265625
-0.043683828125000004,0.0897752294921875,0.62273919921875
-0.127325546875,0.1250682373046875,0.782487490234375
-0.14167107421875,0.25079957763671873,0.9186421875
-0.203186640625,0.27972023681640623,1.043983154296875
-0.30166017578125,0.3076605346679688,1.1110774365234375
-0.20586123046875,0.32971866455078125,1.087729609375
-0.210967265625,0.350061162109375,1.141306728515625
-0.24670951171875,0.37530546630859374,1.1538408251953125
-0.2153438671875,0.3436888134765625,1.0368559228515626
-0.1968648828125,0.29810201171875,0.869980400390625
-0.13194529296875,0.2711420751953125,0.8633447021484375
-0.09304216796875,0.271632255859375,0.9469053466796875
-0.2075632421875,0.2995725537109375,1.0461950537109375
-0.24136033203125,0.25619156494140627,1.06708521484375
-0.23212083984375,0.2525152099609375,1.0031858984375
-0.13389044921874999,0.2034971435546875,0.840488408203125
-0.1555303125,0.26697553955078124,0.8313950439453125
-0.1735230078125,0.2838867724609375,0.9262609521484375
-0.212912421875,0.3025136376953125,0.9582106103515625
-0.138996484375,0.3074154443359375,0.920116787109375
-0.152612578125,0.29932746337890626,0.8849721630859375
-0.15480087890625,0.29834710205078124,1.0029401318359374
-0.1744955859375,0.13413657958984376,1.053813818359375
-0.15236943359375,0.201046240234375,1.1408151953125
-0.20197091796875,0.221633828125,1.1794005517578126
-0.189570546875,0.20521277587890624,1.1115689697265625
-0.199296328125,0.253005390625,0.955507177734375
-0.19613544921875,0.2917296630859375,0.8839890966796875
-0.15917748046875,0.18511536865234374,0.8422087744140625
-0.15674603515625,0.26550499755859375,0.9616513427734374
-0.27345541015625,0.19687970458984375,0.99630443359375
-0.20586123046875,0.259867919921875,1.024813359375
-0.12319208984375,0.2907493017578125,0.950591845703125
-0.2075632421875,0.3074154443359375,1.023338759765625
-0.1871391015625,0.3052096313476563,1.13000146484375
-0.152612578125,0.36599203369140626,1.2452660009765626
-0.31333111328125,0.37653091796875,1.278936025390625
-0.30457791015625,0.369668388671875,1.2378930029296875
-0.19808060546875,0.3652567626953125,1.164900322265625
-0.199296328125,0.32922848388671877,1.0503730859375
-0.2255559375,0.303003818359375,0.931913583984375
-0.1321884375,0.2770242431640625,0.8736668994140625
-0.16112263671875,0.25030939697265625,0.846386806640625
-0.22725794921875,0.2603581005859375,0.9238032861328125
-0.2853694921875,0.17678229736328124,0.9414984814453125
-0.16015005859375,0.1505576318359375,0.9559987109375
-0.22336763671875,0.183399736328125,0.8852179296875
-0.1083602734375,0.0956573974609375,0.9065996240234375
-0.1326747265625,0.059874208984374996,0.9206083203125
-0.27418484375,0.2123203955078125,0.8510563720703125
-0.187625390625,0.20619313720703125,0.8004284521484375
-0.14556138671875,0.15300853515625001,0.8535140380859375
-0.24695265625,0.29785692138671876,0.8736668994140625
-0.11103486328125,0.253985751953125,0.7792925244140625
-0.17911533203125,0.23413343505859374,0.7633176953125
-0.15091056640625,0.216732021484375,0.752012431640625
-0.17473873046875,0.20717349853515626,0.920116787109375
-0.18738224609375,0.2525152099609375,1.0329236572265625
-0.30360533203125,0.3015332763671875,1.0781447119140626
-0.0509781640625,0.24981921630859374,0.9567360107421875
-0.20197091796875,0.28070059814453124,0.8712092333984375
-0.1637972265625,0.29540601806640626,0.8982435595703124
-0.15625974609374998,0.3319244775390625,0.9953213671875
-0.2177753125,0.3919716088867187,1.179646318359375
-0.21558701171875,0.399079228515625,1.24108796875
-0.1501811328125,0.39295197021484374,1.226833505859375
-0.1686601171875,0.39613814453125,1.1499085595703125
-0.20342978515625,0.3593745947265625,0.9835245703125
-0.240144609375,0.3275128515625,0.9016842919921875
-0.15869119140625,0.32383649658203123,0.95108337890625
-0.170118984375,0.3037390893554687,0.946659580078125
-0.13729447265625,0.2780046044921875,1.004660498046875
-0.304334765625,0.22751599609375,1.0196522607421874
-0.1710915625,0.2451625,1.008592763671875
-0.1492085546875,0.3012881860351562,1.0373474560546876
-0.25740787109375,0.2456526806640625,1.068559814453125
-0.16063634765625,0.22678072509765626,1.155069658203125
-0.2104809765625,0.22040837646484374,1.1597392236328126
-0.1920019921875,0.26256391357421877,1.227816572265625
-0.1637972265625,0.2378097900390625,1.1784174853515625
-0.190543125,0.18609572998046875,1.12312
-0.1453182421875,0.15374380615234376,1.0978060400390626
-0.17230728515625,0.19222298828125,1.053813818359375
-0.1881116796875,0.18462518798828126,0.893573994140625
-0.177899609375,0.104970830078125,0.8112421826171875
-0.197351171875,0.208889130859375,0.832623876953125
-0.18397822265625,0.23119235107421876,0.8210728466796875
-0.22190876953125,0.28609258544921873,0.875878798828125
-0.168173828125,0.306925263671875,0.8970147265625
-0.18154677734375,0.312807431640625,0.9065996240234375
-0.15674603515625,0.308885986328125,0.946168046875
-0.1608794921875,0.3368262841796875,0.9365831494140625
-0.13000013671875,0.3623156787109375,1.040050888671875
-0.22142248046875002,0.3275128515625,1.0501273193359375
-0.1555303125,0.2721224365234375,0.9488714794921875
-0.168173828125,0.25570138427734374,0.8948028271484375
-0.17765646484375,0.28903366943359377,0.8871840625
-0.26154132812499997,0.206928408203125,0.9324051171875
-0.11322316406249999,0.16648850341796875,0.9444476806640625
-0.19832375,0.1789881103515625,0.7763433251953125
-0.0699434375,0.163792509765625,0.8009199853515625
-0.21607330078125,0.1084020947265625,0.8023945849609375
-0.17327986328125,0.26697553955078124,0.868014267578125
-0.15358515625,0.2182025634765625,0.9016842919921875
-0.112736875,0.18217428466796876,0.8721922998046875
-0.16185207031249998,0.275553701171875,1.0019570654296874
-0.31041337890625,0.21011458251953125,1.0869923095703125
-0.1744955859375,0.3044743603515625,1.042017021484375
-0.31722142578125,0.32089541259765625,0.9670582080078125
-0.13097271484375,0.2770242431640625,1.062661416015625
-0.14458880859375,0.295160927734375,0.9970417333984375
-0.35344996093750003,0.14786163818359374,0.9631259423828125
-0.15674603515625,0.31158197998046877,1.0343982568359376
-0.15723232421875,0.2083989501953125,0.90586232421875
-0.3194097265625,0.21697711181640625,0.988931435546875
-0.172064140625,0.2875631274414063,0.9759058056640625
-0.30895451171875,0.1868310009765625,0.765283828125
-0.1881116796875,0.2142811181640625,0.7397241015625
-0.19564916015625,0.20178151123046875,0.7328426367187499
-0.218747890625,0.20080114990234374,0.788385888671875
-0.22044990234375,0.11109808837890625,0.7930554541015625
-0.1647698046875,0.2093793115234375,0.8102591162109375
-0.32062544921875,0.23021198974609375,0.8783364648437499
-0.18689595703125,0.150067451171875,0.816894814453125
-0.1958923046875,0.1711452197265625,0.6627991552734375
-0.23844259765625,0.17335103271484376,0.7542243310546874
-0.18349193359375,0.182419375,0.849336005859375
-0.19516287109375,0.1941837109375,0.9065996240234375
-0.20634751953125,0.044188427734375,1.010558896484375
-0.2989855859375,0.17653720703125,1.1164843017578125
-0.1710915625,0.17384121337890626,1.0329236572265625
-0.15869119140625,0.203006962890625,0.97369390625
-0.21583015625000002,0.34123791015625,1.0884669091796875
-0.1788721875,0.3392771875,1.260749296875
-0.3262177734375,0.22432982177734376,1.3256316796875
-0.269321953125,0.3397673681640625,1.2496897998046874
-0.42663646484375,0.2721224365234375,1.033169423828125
-0.36439146484375,0.2534955712890625,0.977134638671875
-0.2523018359375,0.22359455078125,0.7827332568359375
-0.119544921875,0.24712322265625,0.6559176904296875
-0.09134015625,0.14516564453125,0.6913080810546874
-0.175954453125,0.15129290283203126,0.8987350927734374
-0.07018658203125,0.2123203955078125,1.0896957421875
-0.1317021484375,0.17972338134765625,1.2113502099609375
-0.25692158203125,0.20619313720703125,1.3199790478515625
-0.44317029296875,0.33364010986328124,1.4079634912109376
-0.49593265625,0.29050421142578126,1.2981058203125
-0.35515197265625,0.19393862060546874,1.1641630224609374
-0.2182616015625,0.2240847314453125,1.0582376171875
-0.1783858984375,0.04712951171875,0.83311541015625
0.011753125,0.0633054736328125,0.91569298828125
-0.21583015625000002,0.07727562255859374,0.911269189453125
-0.142886796875,0.15129290283203126,0.787402822265625
-0.142886796875,0.18560554931640624,0.74463943359375
-0.21023783203125002,0.0780108935546875,0.812962548828125
-0.2411171875,0.2603581005859375,0.94715111328125
-0.2503566796875,0.0451687890625,0.92159138671875
-0.1696326953125,0.1887917236328125,0.8825144970703125
-0.27929087890625,0.26011301025390626,0.839505341796875
-0.21947732421875,0.10766682373046875,0.93732044921875
-0.2999581640625,0.24246650634765626,1.0211268603515624
-0.24816837890625,0.28952385009765624,0.953541044921875
-0.14604767578125,0.25888755859375,0.905370791015625
-0.25497642578125,0.30913107666015627,1.0167030615234376
-0.08988128906250001,0.1976149755859375,0.969270107421875
0.0764295703125,0.23315307373046876,1.1228742333984374
0.0078628125,0.3338852001953125,1.3853529638671875
-0.09085386718749999,0.228496357421875,1.6144074365234375
-0.31089966796875,0.2956511083984375,1.6212889013671874
-0.42128728515625,0.27285770751953126,1.3627424365234375
-0.35272052734375,0.29221984375,1.15556119140625
-0.368524921875,0.1927131689453125,1.1010010058593749
-0.34639876953125,0.19099753662109376,1.0511103857421875
-0.18495080078125,0.20472259521484376,0.8643277685546875
-0.17473873046875,0.11256863037109376,0.7404614013671875
-0.15577345703125,0.116735166015625,0.708757509765625
-0.14264365234375,0.0789912548828125,0.7070371435546875
-0.22239505859375,0.01747358154296875,0.703842177734375
-0.16160892578125,0.1574201611328125,0.692045380859375
-0.119544921875,0.0789912548828125,0.6313410302734375
-0.10860341796875,0.14001874755859375,0.7375122021484375
-0.21023783203125002,0.06992291259765625,0.9026673583984375
-0.23309341796875,0.10423555908203125,1.06020375
-0.30068759765624997,0.1863408203125,1.071509013671875
-0.3505322265625,0.04639424072265625,0.9336339501953125
-0.19029998046875,0.17090012939453125,0.828691611328125
-0.16938955078125,0.13070531494140625,0.9139726220703125
-0.23503857421875,0.18952699462890624,1.08674654296875
-0.265431640625,0.2505544873046875,1.0801108447265624
-0.21364185546875,0.1162449853515625,1.006626630859375
-0.30652306640625,0.1868310009765625,0.882760263671875
-0.22239505859375,0.13511694091796875,0.777080625
-0.17668388671875,0.05619785400390625,0.702859111328125
-0.18495080078125,0.0848734228515625,0.7117067089843749
-0.13000013671875,0.0878145068359375,0.5745689453125
-0.100093359375,0.07335417724609375,0.5718655126953125
-0.24719580078125,0.15300853515625001,0.6033236376953125
-0.28464005859375,0.12433296630859375,0.633061396484375
-0.30652306640625,0.10815700439453126,0.70728291015625
-0.240144609375,0.20815385986328125,0.883743330078125
-0.247925234375,0.21501638916015625,0.95796484375
-0.39818855468750003,0.19442880126953124,1.001219765625
-0.25546271484375,0.24834867431640625,1.012525029296875
-0.253760703125,0.0231106591796875,0.984999169921875
-0.20342978515625,0.08756941650390625,1.0594664501953126
-0.15091056640625,0.15031254150390624,1.0629071826171874
-0.16015005859375,0.167713955078125,0.9835245703125
-0.28196546875,0.161831787109375,0.8053437841796875
-0.23795630859375,0.09051050048828126,0.8053437841796875
-0.2192341796875,0.16452778076171876,0.819844013671875
-0.23819945312500002,0.091245771484375,0.9183964208984375
-0.31624884765625,0.08953013916015624,1.030220224609375
-0.26616107421875,0.1956542529296875,1.1366371630859375
-0.29825615234375,0.18560554931640624,1.042017021484375
-0.384086171875,0.1642826904296875,0.9621428759765625
-0.2581373046875,0.20521277587890624,0.96681244140625
-0.3233000390625,0.16550814208984374,0.938795048828125
-0.30992708984375,0.2647697265625,1.0530765185546875
-0.2357680078125,0.101049384765625,0.9614055761718749
-0.2649453515625,0.06355056396484375,1.038084755859375
-0.2027003515625,0.20717349853515626,1.102967138671875
-0.22531279296875,0.02237538818359375,0.9434646142578125
-0.1832487890625,0.09149086181640625,0.9164302880859375
-0.28196546875,0.06624655761718751,0.9459222802734375
-0.3320532421875,0.02237538818359375,1.0388220556640624
-0.33424154296874997,0.049090234375,1.060695283203125
-0.38578818359375,0.03610044677734375,1.052830751953125
-0.25011353515625,0.05227640869140625,1.07691587890625
-0.28658521484375,0.04149243408203125,1.0343982568359376
-0.2644590625,0.08217742919921875,0.9803296044921875
-0.2250696484375,0.1878113623046875,0.9803296044921875
-0.28172232421875,0.18364482666015625,0.9537868115234375
-0.11103486328125,0.21991819580078126,0.9572275439453125
-0.11152115234375,0.17874302001953124,0.9670582080078125
-0.26421591796875,0.206928408203125,1.119187734375
-0.240144609375,0.2731027978515625,1.20274837890625
-0.29193439453125003,0.25570138427734374,1.2600119970703125
-0.444386015625,0.3191797802734375,1.281885224609375
-0.4166675390625,0.32089541259765625,1.30695341796875
-0.39113736328125,0.20619313720703125,1.333987744140625
-0.35758341796875,0.2659951782226562,1.31678408203125
-0.1939471484375,0.0780108935546875,1.177680185546875
-0.26470220703125,0.040266982421875,1.1852989501953124
-0.26227076171875,0.067717099609375,1.238630302734375
-0.191515703125,0.03757098876953125,1.1322133642578125
-0.17911533203125,0.04198261474609375,1.0078554638671875
-0.14361623046875,0.08707923583984375,1.003677431640625
-0.181789921875,0.00865032958984375,0.9346170166015625
-0.04392697265625,-0.08595453857421875,0.9051250244140625
-0.10763083984374999,-0.0724745703125,1.027271025390625
-0.2017277734375,-0.077376376953125,1.128526865234375
-0.2610550390625,-0.030319033203124998,1.2639442626953126
-0.39089421875,0.080461796875,1.245511767578125
-0.3680386328125,0.04002189208984375,1.12606919921875
-0.38335673828125,-0.026397587890625,1.0712632470703125
-0.22677166015625,0.057668395996093746,1.0343982568359376
-0.1599069140625,-0.08448399658203125,0.99040603515625
-0.13340416015625,-0.0249270458984375,1.048406953125
-0.09134015625,0.063795654296875,1.13098453125
-0.190543125,0.0843832421875,1.165883388671875
-0.265431640625,0.28217114013671873,1.1700614208984375
-0.2892598046875,0.24246650634765626,1.215036708984375
-0.38384302734375,0.222614189453125,1.1449932275390624
-0.26032560546875,0.22285927978515624,0.9680412744140625
-0.20683380859375,0.14908708984375,0.8446664404296875
-0.14312994140625,0.1289896826171875,0.8812856640625
-0.2970404296875,0.17727247802734375,1.0776531787109376
-0.3889490625,0.11403917236328125,1.299580419921875
-0.41496552734375003,0.18045865234375,1.3155552490234375
-0.40183572265625,0.0976181201171875,1.1386032958984376
-0.24427806640625,0.056933125,0.9773804052734375
-0.1667149609375,-0.034240478515625,0.8918536279296875
-0.1560166015625,-0.0974737841796875,0.80362341796875
-0.146777109375,-0.06046514404296875,0.6760705517578125
-0.12610982421875,-0.11242429443359375,0.623230732421875
-0.1064151171875,-0.1660990771484375,0.669434853515625
-0.24184662109375,-0.134237333984375,0.7994453857421875
-0.282938046875,0.0358553564453125,1.0098215966796875
-0.32743349609375,0.01747358154296875,1.1395863623046876
-0.3884627734375,0.138303115234375,1.01399962890625
-0.33813185546875,0.17653720703125,0.80558955078125
-0.26129818359375,0.12482314697265626,0.7153932080078125
-0.2970404296875,0.120656611328125,0.71711357421875
-0.2853694921875,0.16109651611328124,0.771673759765625
-0.1803310546875,0.06943273193359376,0.76233462890625
-0.1205175,0.0309535498046875,0.637976728515625
-0.018396796875,-0.00360418701171875,0.564246748046875
0.03314984375,-0.0308092138671875,0.6883588818359375
-0.117599765625,-0.026397587890625,0.9090572900390625
-0.28658521484375,0.07237381591796875,1.079373544921875
-0.34202216796875,0.20815385986328125,1.2462490673828124
-0.41618125,0.16746886474609374,1.3371827099609375
-0.39697283203125,0.12727405029296876,1.2201978076171875
-0.299471875,0.05962911865234375,0.9744312060546875
-0.17692703125,0.0476196923828125,0.7635634619140625
-0.13000013671875,0.015022678222656249,0.75840236328125
-0.05900193359375,-0.0180645166015625,0.710232109375
-0.07115916015625,0.04124734375,0.73677490234375
-0.09644619140624999,-0.05654369873046875,0.8567090039062499
-0.1900568359375,-0.0180645166015625,1.009084296875
-0.22701480468750002,0.11550971435546875,1.03366095703125
-0.15820490234375,0.0907555908203125,0.9464138134765625
-0.2299325390625,0.15570452880859376,0.971236240234375
-0.321841171875,0.1544790771484375,0.9773804052734375
-0.31916658203125,0.10276501708984374,0.99433830078125
-0.3592854296875,0.0721287255859375,0.9442019140625
-0.2464663671875,0.05570767333984375,0.796741953125
-0.218747890625,0.0838930615234375,0.6569007568359375
-0.16890326171875,0.05913893798828125,0.6406801611328125
-0.1540714453125,0.00276816162109375,0.749063232421875
-0.14799283203125,0.06060947998046875,0.978117705078125
-0.179844765625,0.11845079833984375,1.0865007763671874
-0.14604767578125,0.146146005859375,1.17817171875
-0.1890842578125,0.1348718505859375,1.2005364794921876
-0.31819400390625,0.16060633544921876,1.2152824755859375
-0.2707808203125,0.1235976953125,1.1051790380859374
-0.296554140625,0.09639266845703125,1.0226014599609374
-0.29290697265625,0.1628121484375,0.9218371533203125
-0.221665625,0.1133039013671875,0.797233486328125
-0.2542469921875,0.04786478271484375,0.7070371435546875
-0.25789416015625,0.03021827880859375,0.7198170068359375
-0.2299325390625,-0.03056412353515625,0.74463943359375
-0.237226875,0.01747358154296875,0.8380307421875
-0.20732009765625,0.09100068115234375,0.9424815478515625
-0.18786853515625002,0.07482471923828125,0.9778719384765625
-0.1637972265625,0.052031318359375,0.9921264013671875
-0.1472633984375,0.0770305322265625,0.9469053466796875
-0.220693046875,0.114774443359375,0.9926179345703126
-0.24525064453125,0.10276501708984374,1.1022298388671874
-0.31284482421875,0.1172253466796875,1.17129025390625
-0.29242068359375,0.18315464599609374,1.2192147412109375
-0.2659179296875,0.0765403515625,1.158510390625
-0.27880458984375,0.19491898193359375,1.0818312109375
-0.20342978515625,0.175556845703125,1.0609410498046874
-0.201241484375,0.09443194580078125,1.0778989453125
-0.25594900390624997,0.08634396484375,1.133442197265625
-0.22288134765625,0.07629526123046874,1.1572815576171875
-0.2338228515625,0.02041466552734375,1.1209081005859376
-0.27515742187500003,0.00276816162109375,1.0171945947265626
-0.24136033203125,-0.00409436767578125,0.9877026025390625
-0.30506419921875,0.017718671875,0.938795048828125
-0.380195859375,0.023845930175781252,0.9562444775390625
-0.31478998046875,0.1044806494140625,0.9778719384765625
-0.32743349609375,0.05178622802734375,0.8884128955078126
-0.288773515625,0.00178780029296875,0.8151744482421874
-0.1949197265625,-0.02909358154296875,0.834590009765625
-0.17279357421875,-0.016593974609375,0.8820229638671875
-0.18106048828125,0.036345537109375,1.0122792626953125
-0.15236943359375,0.0858537841796875,1.2115959765625
-0.2250696484375,0.049090234375,1.42983671875
-0.3466419140625,0.12139188232421876,1.5566522851562499
-0.42055785156250003,0.16305723876953124,1.4703882080078126
-0.3563676953125,0.0809519775390625,1.2646815625
-0.30214646484375,0.01698340087890625,1.118696201171875
-0.29193439453125003,0.0417375244140625,0.9980247998046875
-0.23503857421875,-0.01095689697265625,0.866048134765625
-0.26518849609375,-0.06830803466796875,0.75447009765625
-0.26154132812499997,-0.06046514404296875,0.703842177734375
-0.20342978515625,0.0010525292968750002,0.6846723828125
-0.2007551953125,-0.06585713134765625,0.7733941259765625
-0.2620276171875,-0.03546593017578125,1.0083469970703125
-0.23892888671875,0.0250713818359375,1.155069658203125
-0.1813036328125,0.089285048828125,1.189476982421875
-0.12829812499999999,0.06257020263671875,1.119187734375
-0.2231244921875,0.14786163818359374,1.0737209130859375
-0.22190876953125,0.1456558251953125,1.095102607421875
-0.26275705078125,0.10815700439453126,1.159001923828125
-0.27491427734375,0.10472573974609375,1.16244265625
-0.25157240234375,0.096147578125,1.1054248046875
-0.24281919921875,0.01747358154296875,1.1145181689453125
-0.29193439453125003,-0.0151234326171875,1.2315030712890624
-0.29752671875000003,-0.09330724853515625,1.19881611328125
-0.16695810546875,-0.03644629150390625,1.1096028369140625
-0.21072412109375,-0.06830803466796875,1.0009739990234374
-0.12076064453125,-0.05262225341796875,1.0368559228515626
-0.2464663671875,-0.0906112548828125,1.01203349609375
-0.19637859375,-0.10065995849609374,0.9763973388671875
-0.16647181640625,-0.1317864306640625,0.906353857421875
-0.23698373046875,-0.06683749267578125,0.860149736328125
-0.13778076171875,-0.03497574951171875,0.814928681640625
-0.209022109375,-0.0425735498046875,0.9169218212890625
-0.19224513671875,0.026296833496093748,1.1528577587890625
-0.32013916015625,0.042227705078125,1.17325638671875
-0.288773515625,0.11207844970703125,1.0334151904296875
-0.25643529296875,0.10521592041015625,0.875878798828125
-0.15723232421875,0.0231106591796875,0.8144371484375
-0.197351171875,-0.00703545166015625,0.76921609375
-0.09158330078125,0.00619942626953125,0.739232568359375
-0.1511537109375,0.00178780029296875,0.73480876953125
-0.14264365234375,0.05276658935546875,0.80558955078125
-0.18859796875,0.07188363525390624,0.9650920751953125
-0.25157240234375,0.03413972412109375,1.1828412841796876
-0.34445361328125,0.1182057080078125,1.327106279296875
-0.37314466796875,0.17090012939453125,1.2231470068359376
-0.32986494140625,0.10668646240234375,0.9759058056640625
-0.27199654296875,0.1182057080078125,0.8223016796875
-0.12829812499999999,0.08168724853515624,0.8023945849609375
-0.207076953125,0.03561026611328125,0.968287041015625
-0.29485212890625,0.07923634521484375,1.056763017578125
-0.224583359375,0.07237381591796875,0.9370746826171875
-0.17303671874999998,-0.01978014892578125,0.8073099169921875
-0.13048642578125,0.04100225341796875,0.75643623046875
-0.12610982421875,-0.0018885546875000003,0.754961630859375
-0.24719580078125,-0.042083369140625,0.868014267578125
-0.28269490234375,-0.050661530761718754,0.94125271484375
-0.2425760546875,0.010611052246093749,0.88226873046875
-0.28415376953125,-0.0327699365234375,0.7751144921875
-0.27929087890625,0.00619942626953125,0.7158847412109375
-0.195406015625,0.052031318359375,0.7832247900390625
-0.2843969140625,0.0608545703125,0.9611598095703124
-0.2649453515625,0.14246965087890626,1.0727378466796875
-0.2474389453125,0.111833359375,1.0815854443359374
-0.177899609375,0.015022678222656249,1.054796884765625
-0.15164,0.12237224365234375,0.9252778857421875
-0.13802390625,0.08634396484375,0.843437607421875
-0.15820490234375,0.03021827880859375,0.87047193359375
-0.24087404296875,0.071638544921875,1.0031858984375
-0.27199654296875,-0.02076051025390625,1.14179826171875
-0.38773333984375,0.0486000537109375,1.229782705078125
-0.27977716796875,0.010611052246093749,1.07691587890625
-0.1842213671875,-0.047965537109375,0.897506259765625
-0.26081189453125,0.0682072802734375,0.839505341796875
-0.21412814453125,-0.0016434643554687498,0.7905977880859375
-0.14312994140625,-0.0347306591796875,0.820335546875
-0.15091056640625,0.0922261328125,0.9385492822265625
-0.183735078125,-0.00409436767578125,0.9547698779296875
-0.1511537109375,-0.076396015625,1.02088109375
-0.21607330078125,-0.0092412646484375,1.0127707958984375
-0.20245720703125,0.0456589697265625,0.9127437890625
-0.15820490234375,0.02482629150390625,0.8269712451171874
-0.25303126953125,-0.01978014892578125,0.8653108349609375
-0.18640966796875,-0.01095689697265625,0.922574453125
-0.23795630859375,-0.0141430712890625,1.024321826171875
-0.29485212890625,0.00668960693359375,1.099034873046875
-0.1788721875,-0.0268877685546875,1.007609697265625
-0.24087404296875,0.016738310546875,0.9808211376953125
-0.26470220703125,-0.00703545166015625,0.950591845703125
-0.172064140625,0.0731090869140625,0.9056165576171875
-0.14167107421875,0.026541923828125,0.9537868115234375
-0.21121041015625,0.06698182861328125,1.1054248046875
-0.11930177734375,0.02531647216796875,1.1838243505859376
-0.24281919921875,0.0211499365234375,1.190460048828125
-0.32597462890625,0.08707923583984375,1.1169758349609376
-0.33861814453125,0.07776580322265625,0.955507177734375
-0.286828359375,-0.00581,0.8112421826171875
-0.273212265625,-0.02370159423828125,0.7699533935546875
-0.18592337890625,-0.0533575244140625,0.7925639208984375
-0.16015005859375,-0.07026875732421875,0.84786140625
-0.237226875,-0.038161923828125,0.931913583984375
-0.23309341796875,-0.06340622802734375,0.9756600390625
-0.23260712890625002,0.06747200927734374,0.9596852099609375
-0.189570546875,-0.02860340087890625,0.85277673828125
-0.19662173828125,-0.023456503906250002,0.8466325732421875
-0.2805066015625,-0.026397587890625,0.830657744140625
-0.21972046875,-0.09967959716796874,0.6962234130859375
-0.05559791015625,-0.10311086181640625,0.62273919921875
-0.1472633984375,-0.1249239013671875,0.679265517578125
-0.16452666015625,-0.10580685546875,0.7109694091796875
-0.14458880859375,-0.03203466552734375,0.855234404296875
-0.32597462890625,-0.01193725830078125,0.9822957373046874
-0.3485870703125,-0.03840701416015625,1.02088109375
-0.16160892578125,0.065756376953125,0.9360916162109375
-0.12513724609375,0.09639266845703125,0.786419755859375
-0.04733099609375,0.030463369140625002,0.7055625439453125
-0.0305540234375,0.0809519775390625,0.86359046875
-0.220693046875,0.17531175537109375,1.189968515625
-0.33132380859375,0.16746886474609374,1.4227094873046875
-0.2970404296875,0.221633828125,1.4305740185546876
-0.27102396484375,0.20619313720703125,1.2536220654296875
-0.181789921875,0.048109873046875,1.0014655322265624
-0.17327986328125,0.0868341455078125,0.9469053466796875
-0.22628537109375,0.0505607763671875,0.8908705615234375
-0.203186640625,0.07629526123046874,0.8254966455078125
-0.31284482421875,0.0535018603515625,0.8780906982421874
-0.177899609375,0.057913486328125,1.0543053515625
-0.11468203125,-0.08154291259765625,1.1331964306640625
-0.20415921875,-0.09428760986328125,1.107882470703125
-0.20877896484375,-0.06928839599609375,1.022355693359375
-0.26640421875,-0.07468038330078125,1.00515203125
-0.40937320312500003,-0.02027032958984375,1.114763935546875
-0.36439146484375,-0.1013952294921875,1.087238076171875
-0.25546271484375,-0.04919098876953125,0.9638632421875
-0.21193984375,0.05815857666015625,0.7984623193359375
0.01369828125,-0.0504164404296875,0.7999369189453125
0.01588658203125,0.02482629150390625,0.9960586669921875
-0.28585578125,-0.040122646484374996,1.24993556640625
-0.3203823046875,-0.013652890625,1.3696239013671876
-0.18227621093750002,0.01110123291015625,1.1735021533203125
-0.255705859375,0.07923634521484375,1.044966220703125
-0.30311904296875003,-0.075415654296875,0.8898874951171875
-0.16306779296875,-0.04919098876953125,0.839505341796875
-0.28634207031250003,0.0250713818359375,0.8304119775390625
-0.2255559375,-0.05409279541015625,0.773148359375
-0.131215859375,-0.02027032958984375,0.6905707812499999
-0.13243158203125,-0.01732924560546875,0.7065456103515625
-0.18203306640625,0.1035002880859375,0.7561904638671875
-0.12902755859375,0.026541923828125,0.78002982421875
-0.034930625,0.14516564453125,0.9990078662109375
-0.12708240234375,0.0603643896484375,1.2595204638671875
-0.224583359375,0.02727719482421875,1.4232010205078125
-0.3553951171875,0.0843832421875,1.5151177294921876
-0.36001486328125,-0.07835673828125,1.3440641748046875
-0.29874244140625,0.00423870361328125,1.1980788134765625
-0.25084296875,-0.060710234375,1.056763017578125
-0.08234380859375,-0.0621807763671875,0.9041419580078125
-0.1628246484375,0.05178622802734375,0.86260740234375
-0.21266927734375,-0.14918784423828124,0.9041419580078125
0.023910351562499998,-0.07835673828125,1.048406953125
-0.15091056640625,-0.0006631030273437505,1.2251131396484376
-0.15042427734375,-0.0651218603515625,1.3413607421875
-0.20488865234375,-0.0915916162109375,1.24600330078125
-0.1988100390625,-0.053847705078125,1.1228742333984374
-0.2328502734375,-0.14673694091796874,0.948625712890625
-0.228473671875,-0.05899460205078125,0.86653966796875
-0.1589343359375,-0.098944326171875,0.8127167822265625
-0.1073876953125,-0.0494360791015625,0.8970147265625
-0.156502890625,0.06698182861328125,0.987948369140625
-0.175954453125,0.1221271533203125,1.0555341845703126
-0.13510617187500001,0.05497240234375,1.1076367041015625
-0.11832919921875,0.0642858349609375,1.076424345703125
-0.05073501953125,-0.077376376953125,1.158018857421875
-0.1399690625,-0.077376376953125,1.27549529296875
-0.07845349609375,-0.0739451123046875,1.266156162109375
-0.22531279296875,-0.0298288525390625,1.1277895654296874
-0.25983931640625,-0.0680629443359375,0.92945591796875
-0.13583560546875,-0.09379742919921875,0.78592822265625
-0.061190234375,0.0133070458984375,0.8559717041015625
-0.26154132812499997,-0.0013983740234375002,0.9670582080078125
-0.16890326171875,-0.026397587890625,1.00613509765625
-0.09985021484375001,0.03536517578125,0.9400238818359374
-0.0422249609375,0.01698340087890625,0.977626171875
-0.00502384765625,-0.05605351806640625,1.1051790380859374
-0.107873984375,-0.04723026611328125,1.2624696630859376
-0.18397822265625,-0.05556333740234375,1.266156162109375
-0.210967265625,-0.11340465576171875,0.9424815478515625
-0.140941640625,-0.11585555908203125,0.766758427734375
-0.1171134765625,-0.189137568359375,0.6711552197265624
-0.14021220703125,-0.13350206298828124,0.6632906884765625
-0.11468203125,-0.0631611376953125,0.73775796875
-0.1064151171875,-0.059484782714843754,0.8254966455078125
-0.12319208984375,-0.045024453125,0.92355751953125
-0.10228166015625,-0.014633251953124999,1.05332228515625
-0.11687033203125,0.1162449853515625,1.191443115234375
-0.24038775390625,0.14688127685546876,1.2285538720703124
-0.22190876953125,0.05889384765625,1.0919076416015625
-0.17303671874999998,0.1584005224609375,0.8795652978515625
-0.181789921875,0.038306259765625,0.8633447021484375
-0.13607875,-0.10997339111328125,0.7856824560546875
-0.1025248046875,-0.09330724853515625,0.6731213525390625
-0.09936392578125,-0.0411030078125,0.6234764990234375
-0.067025703125,-0.12467881103515625,0.6632906884765625
-0.14993798828125,-0.05605351806640625,0.8616243359375
-0.15334201171875,-0.00409436767578125,1.1523662255859375
-0.22142248046875002,0.0172284912109375,1.1469593603515624
-0.15358515625,0.15913579345703124,1.006626630859375
-0.20464550781250002,0.10521592041015625,0.9685328076171875
-0.23795630859375,-0.06095532470703125,0.8930824609375
-0.27005138671875,-0.069533486328125,0.8771076318359375
-0.1842213671875,-0.06928839599609375,0.8584293701171875
-0.12367837890625,-0.046004814453125,0.7149016748046875
-0.08963814453125,-0.07713128662109375,0.6883588818359375
-0.1200312109375,-0.05115171142578125,0.7851909228515626
-0.2153438671875,-0.046740085449218746,1.0722463134765625
-0.26859251953125,0.01600303955078125,1.2526389990234374
-0.2824517578125,0.05276658935546875,1.246494833984375
-0.2299325390625,-0.01978014892578125,1.1046875048828124
-0.286828359375,0.038306259765625,1.0550426513671876
-0.292663828125,-0.14183513427734376,0.901438525390625
-0.16501294921875,-0.151883837890625,0.791335087890625
-0.11346630859375,-0.12271808837890624,0.7183424072265625
-0.0023492578125000017,-0.10188541015625,0.7861739892578125
-0.1034973828125,-0.068553125,1.12017080078125
-0.33253953125,-0.046249904785156254,1.3858444970703125
-0.1793584765625,0.06453092529296875,1.341852275390625
-0.22871681640625,0.0672269189453125,1.271071494140625
-0.3072525,0.0868341455078125,1.2233927734375
-0.22774423828125,0.1074217333984375,1.1921804150390625
-0.36050115234375,-0.10286577148437501,1.0191607275390624
-0.11006228515625,-0.03889719482421875,0.789368955078125
-0.019369375,-0.0053198193359375,0.7203085400390625
-0.04538583984375,-0.1170810107421875,0.78592822265625
-0.060947089843749996,-0.0254172265625,1.0174403613281249
-0.20732009765625,0.00472888427734375,1.2005364794921876
-0.162338359375,0.06673673828125,1.4475319140625
-0.28974609375,0.14590091552734374,1.709027578125
-0.27418484375,0.09051050048828126,1.6458655615234374
-0.26518849609375,0.10913736572265625,1.42885365234375
-0.16793068359375,0.00570924560546875,1.1250861328125
-0.152612578125,0.07776580322265625,1.05233921875
-0.1633109375,-0.1553151025390625,1.150154326171875
-0.13291787109375,-0.048945898437499996,1.2315030712890624
-0.1633109375,-0.128355166015625,1.123611533203125
-0.09450103515625,-0.20727425292968749,0.979100771484375
-0.0247185546875,-0.161687451171875,0.9783634716796875
0.005674511718750001,-0.1562954638671875,1.0943653076171875
-0.16112263671875,-0.1710008837890625,1.3298097119140624
-0.170118984375,-0.02468195556640625,1.453921845703125
-0.187625390625,0.07139345458984375,1.4030481591796875
-0.2114535546875,0.12237224365234375,1.275986826171875
-0.1958923046875,0.03168882080078125,1.1290183984375
-0.16185207031249998,0.034384814453125,1.130492998046875
-0.1326747265625,-0.0533575244140625,1.18308705078125
-0.03079716796875,-0.171491064453125,1.24207103515625
0.09320654296875,-0.02419177490234375,1.3706069677734374
-0.0869635546875,-0.07517056396484376,1.44654884765625
-0.33375525390625,-0.01144707763671875,1.2442829345703126
0.05965259765625,0.0319339111328125,1.179646318359375
-0.05900193359375,-0.06683749267578125,1.2496897998046874
-0.12902755859375,-0.03203466552734375,1.465227109375
-0.14167107421875,-0.1033559521484375,1.521753427734375
-0.27929087890625,0.0387964404296875,1.2757410595703125
-0.16404037109375,0.0878145068359375,0.9331424169921875
-0.14458880859375,-0.02076051025390625,0.7635634619140625
-0.01912623046875,-0.023456503906250002,0.8154202148437499
-0.07796720703125,0.034384814453125,1.016948828125
-0.20099833984375,-0.0670825830078125,1.04939001953125
-0.07504947265625,-0.08448399658203125,1.0284998583984375
8.218750000000066e-05,-0.0999246875,0.9532952783203125
-0.0811280859375,-0.0523771630859375,0.9110234228515625
-0.05511162109375,-0.1161006494140625,0.8589209033203125
-0.19248828125,0.0008074389648437498,0.943710380859375
-0.07407689453124999,-0.03742665283203125,1.03562708984375
-0.2279873828125,0.00325834228515625,1.0732293798828125
-0.30020130859375,0.0731090869140625,1.0619241162109374
-0.09061072265625,-0.00581,0.92552365234375
-0.09887763671875,0.01306195556640625,0.821810146484375
-0.09158330078125,0.03413972412109375,0.82525087890625
-0.07383375,-0.08448399658203125,0.916184521484375
-0.2056180859375,-0.02860340087890625,0.937811982421875
-0.1788721875,-0.047965537109375,0.82721701171875
-0.08088494140625,-0.05115171142578125,0.728418837890625
-0.043683828125000004,-0.046004814453125,0.6922911474609375
-0.0363894921875,-0.0249270458984375,0.6686975537109375
-0.05219388671875,-0.0631611376953125,0.6878673486328125
-0.212912421875,0.02776737548828125,0.8360646093749999
-0.1569891796875,0.06943273193359376,0.8903790283203125
-0.13389044921874999,-0.0494360791015625,0.9070911572265625
-0.2099946875,0.064776015625,0.9245405859375
-0.015479062500000002,0.083402880859375,0.8795652978515625
-0.18689595703125,-0.0974737841796875,0.798216552734375
-0.10082279296875,0.07384435791015626,0.951574912109375
-0.131215859375,0.08609887451171874,0.917167587890625
-0.21801845703125,0.0574233056640625,0.868997333984375
-0.063135390625,-0.07811164794921875,0.8653108349609375
-0.0699434375,-0.0327699365234375,0.7458682666015625
-0.033714902343750006,-0.0347306591796875,0.7262069384765625
-0.03955037109375,-0.12320826904296875,0.7876485888671875
-0.15139685546875,-0.0254172265625,0.9700074072265625
-0.27637314453125,-0.015368522949218751,1.1071451708984374
-0.11103486328125,-0.0001729223632812504,1.182103984375
-0.2377131640625,0.05913893798828125,1.087729609375
-0.20415921875,0.04051207275390625,1.0137538623046876
-0.09206958984375,0.03512008544921875,0.998762099609375
-0.15577345703125,-0.0337502978515625,1.0228472265625
-0.22142248046875002,-0.05556333740234375,0.9837703369140625
-0.03420119140625,0.030463369140625002,1.0363643896484376
-0.16136578125,-0.05801424072265625,0.917167587890625
-0.115654609375,0.0059543359375,0.8731753662109375
-0.037848359375,0.00276816162109375,0.9503460791015625
-0.14993798828125,-0.030073942871093752,1.0688055810546875
-0.14556138671875,0.0642858349609375,1.1725190869140625
-0.15066742187499998,0.00227798095703125,1.11230626953125
-0.2532744140625,0.04124734375,1.17718865234375
-0.22920310546875,0.0358553564453125,1.111323203125
-0.29971501953125,-0.10654212646484375,0.8913620947265625
-0.07991236328125,-0.0055649096679687505,0.8633447021484375
-0.09790505859375,-0.0876701708984375,0.7193254736328125
-0.024475410156250002,-0.067572763671875,0.7955131201171874
-0.11298001953125,0.0711483642578125,0.9744312060546875
-0.07213173828125,0.05105095703125,1.0806023779296874
-0.06775513671875,-0.03595611083984375,1.10837400390625
-0.1676875390625,0.050070595703125,1.2359268701171875
-0.03663263671875,0.07041309326171875,1.1248403662109374
-0.2250696484375,-0.0808076416015625,1.111814736328125
-0.1929745703125,0.10423555908203125,1.2391218359375
-0.1842213671875,0.042227705078125,1.125577666015625
-0.3203823046875,-0.046249904785156254,1.0683140478515625
-0.15139685546875,0.077520712890625,1.056763017578125
-0.10422681640625,0.00227798095703125,0.8360646093749999
0.00421564453125,0.02237538818359375,0.83901380859375
-0.05219388671875,0.023845930175781252,1.032677890625
-0.11638404296875,-0.01634888427734375,1.1784174853515625
-0.1978374609375,0.110852998046875,1.323174013671875
-0.1978374609375,0.016738310546875,1.1454847607421874
-0.08185751953125,0.1456558251953125,1.0683140478515625
-0.08866556640625001,0.036345537109375,1.0425085546875
-0.07845349609375,-0.087179990234375,1.0997721728515626
-0.26761994140625,0.0838930615234375,1.2934362548828124
-0.24379177734375002,0.022620478515625,1.3819122314453125
-0.1219763671875,0.0633054736328125,1.2521474658203124
-0.222638203125,0.0037485229492187503,1.13098453125
-0.19321771484375,0.064776015625,1.110831669921875
-0.047087851562500005,0.0012976196289062499,0.984016103515625
-0.0451426953125,0.0387964404296875,0.9048792578125
-0.046358417968749996,0.06158984130859375,1.063644482421875
-0.13145900390625,0.063795654296875,1.1513831591796875
-0.05024873046875,0.06747200927734374,1.19291771484375
-0.1385101953125,0.08315779052734375,1.0181776611328126
-0.1258666796875,-0.0406128271484375,0.9198710205078124
-0.0762651953125,-0.09722869384765626,0.9380577490234375
-0.1900568359375,-0.04821062744140625,1.0648733154296874
-0.11735662109375,0.023845930175781252,1.1607222900390626
-0.2571647265625,-0.01144707763671875,1.1356540966796875
-0.18154677734375,-0.022476142578125,0.9896687353515625
-0.09912078125,0.06624655761718751,0.969270107421875
-0.01766736328125,0.0740894482421875,0.9599309765625
-0.040766093749999996,0.10178465576171875,1.013508095703125
-0.0932853125,0.11109808837890625,1.1966042138671875
-0.05024873046875,0.0059543359375,1.32071634765625
-0.1968648828125,0.03021827880859375,1.2821309912109375
0.004701933593749999,0.02531647216796875,1.072492080078125
-0.11006228515625,-0.09036616455078125,0.863098935546875
-0.19078626953125,0.09198104248046875,0.9196252539062499
-0.05024873046875,0.019679394531249998,0.9626344091796875
-0.16063634765625,-0.0592396923828125,1.135408330078125
-0.2736985546875,0.008405239257812499,1.1617053564453126
-0.1375376171875,-0.04281864013671875,0.92552365234375
-0.0500055859375,0.077520712890625,0.717605107421875
0.0316909765625,0.069677822265625,0.70335064453125
-0.019369375,0.12947986328125,0.769707626953125
0.0032430664062499982,0.15423398681640624,0.8844806298828125
0.05722115234375,0.07727562255859374,1.1695698876953124
-0.1171134765625,0.18021356201171876,1.2904870556640624
-0.17376615234375,0.1721255810546875,1.2560797314453125
-0.17327986328125,0.06011929931640625,1.18701931640625
-0.26956509765625,0.21109494384765626,1.0801108447265624
-0.1511537109375,0.17040994873046875,1.013508095703125
-0.2474389453125,0.03757098876953125,1.0339067236328126
-0.22725794921875,-0.04183827880859375,0.98057537109375
0.04846794921875,-0.04036773681640625,0.8254966455078125
-0.0006472460937500014,-0.05556333740234375,0.8141913818359375
-0.12124693359375,-0.0915916162109375,0.8402426416015625
-0.12829812499999999,-0.044044091796875,0.994829833984375
-0.19953947265625,0.05619785400390625,1.082322744140625
-0.15771861328125,0.061834931640625,0.9813126708984374
-0.09693248046875,0.0387964404296875,0.8677685009765626
-0.1210037890625,-0.02958376220703125,0.9913891015625
-0.12951384765625001,0.0476196923828125,1.1415524951171876
-0.1414279296875,-0.0406128271484375,1.1277895654296874
-0.2299325390625,0.1079119140625,1.102967138671875
-0.131215859375,0.10325519775390625,1.0228472265625
-0.1657423828125,-0.00654527099609375,0.956490244140625
-0.177899609375,0.10276501708984374,1.0196522607421874
-0.08720669921875,-0.0082609033203125,0.9532952783203125
0.035824433593749996,-0.051886982421875,0.8564632373046875
-0.041738671875,-0.01046671630859375,0.8456495068359375
-0.03225603515625,0.03659062744140625,0.948625712890625
-0.07115916015625,-0.013162709960937501,1.0543053515625
-0.20148462890625,-0.00850599365234375,1.166866455078125
-0.14604767578125,0.112813720703125,1.1368829296875
-0.1248941015625,0.05472731201171875,0.945676513671875
-0.284883203125,0.0211499365234375,0.854251337890625
-0.1958923046875,-0.0543378857421875,0.6760705517578125
0.061354609375,0.018699033203125,0.5836623095703125
0.035338144531250004,0.085363603515625,0.6721382861328125
-0.1112780078125,0.161831787109375,0.8662939013671875
-0.006482714843750001,0.20227169189453126,1.1631799560546874
-0.080641796875,0.19442880126953124,1.4160737890625
-0.325731484375,0.24393704833984375,1.3767511328125
-0.040279804687500004,0.05717821533203125,1.2437914013671876
-0.05997451171875,0.05570767333984375,1.377242666015625
-0.31235853515625,-0.01683906494140625,1.3229282470703125
-0.17911533203125,-0.16585398681640626,1.208155244140625
-0.15431458984375,-0.20751934326171875,1.0614325830078124
-0.195406015625,-0.0827683642578125,0.9090572900390625
-0.013047617187499999,-0.1308060693359375,0.8127167822265625
-0.12246265625,-0.13007079833984375,0.924049052734375
-0.006239570312500001,-0.05213207275390625,0.92945591796875
-0.013047617187499999,-0.04036773681640625,0.9631259423828125
-0.09061072265625,0.04737460205078125,1.1189419677734376
-0.142886796875,0.05178622802734375,1.3076907177734376
-0.2240970703125,0.05668803466796875,1.389039462890625
-0.2834243359375,0.018699033203125,1.1489254931640625
-0.05657048828125,-0.03546593017578125,1.0555341845703126
-0.0295814453125,-0.11242429443359375,0.9818042041015624
-0.16987583984375,-0.08840544189453126,0.88620099609375
-0.0621628125,0.02090484619140625,0.8908705615234375
0.01369828125,0.008895419921875,0.99630443359375
-0.159420625,-0.1651187158203125,1.1041959716796874
-0.24476435546875,-0.15065838623046876,1.199307646484375
-0.03298546875,-0.16046199951171874,1.077407412109375
-0.14629082031250001,-0.17418705810546875,0.8461410400390625
-0.24938410156250002,-0.1543347412109375,0.7554531640625
-0.12465095703125,-0.04183827880859375,0.7539785644531249
-0.19662173828125,0.06355056396484375,0.8623616357421875
-0.14896541015625,0.21305566650390625,0.957473310546875
-0.10860341796875,0.1280093212890625,1.0565172509765626
-0.137051328125,-0.049926259765625,1.0422627880859374
-0.10495625,0.09492212646484376,1.0304659912109375
-0.19759431640625,0.0069346972656249995,0.946168046875
-0.17376615234375,-0.09085634521484375,0.7935469873046875
-0.11346630859375,-0.14379585693359376,0.6682060205078125
-0.061676523437500005,-0.10654212646484375,0.7360376025390625
-0.10276794921875,-0.02321141357421875,0.884726396484375
-0.12562353515625,-0.13889405029296875,0.9611598095703124
-0.12270580078125,-0.067572763671875,1.062661416015625
-0.11735662109375,0.020659755859375,1.1794005517578126
-0.17133470703125,-0.0016434643554687498,1.25386783203125
-0.07650833984375,0.0907555908203125,1.2575543310546875
-0.08672041015625,0.05129604736328125,1.2197062744140625
-0.341292734375,-0.0072805419921875,1.1297556982421875
-0.11687033203125,0.018699033203125,1.0712632470703125
-0.14021220703125,0.013552136230468751,0.9434646142578125
-0.2133987109375,-0.05997496337890625,0.9193794873046874
-0.13534931640625,-0.05458297607421875,0.8360646093749999
-0.1151683203125,-0.09330724853515625,0.7711822265625
-0.1803310546875,-0.15801109619140624,0.78002982421875
-0.13510617187500001,-0.1092381201171875,0.85081060546875
-0.19370400390625,0.01992448486328125,0.91077765625
-0.2785614453125,-0.04085791748046875,0.9439561474609375
-0.00502384765625,-0.00262382568359375,0.906845390625
-0.12367837890625,0.0255615625,0.86850580078125
-0.005510136718749999,-0.107767578125,1.04939001953125
-0.044899550781250006,-0.06634731201171876,1.3145721826171874
-0.3111428125,-0.0808076416015625,1.392971728515625
-0.1978374609375,-0.13252170166015625,1.209138310546875
-0.05243703125,0.0191892138671875,1.0501273193359375
-0.049762441406249996,-0.1298257080078125,1.0058893310546875
-0.2698082421875,-0.02272123291015625,1.157035791015625
-0.1803310546875,-0.01144707763671875,1.2258504394531249
-0.061676523437500005,-0.19232374267578126,1.073475146484375
-0.1788721875,0.056933125,1.036118623046875
-0.084532109375,-0.067572763671875,0.9911433349609375
-0.06289224609374999,-0.09085634521484375,0.96484630859375
-0.12610982421875,0.140263837890625,1.031203291015625
-0.0237459765625,0.1084020947265625,0.9380577490234375
0.014670859375000001,0.08609887451171874,0.9518206787109375
-0.19808060546875,0.01649322021484375,1.0464408203125
-0.0412523828125,0.02482629150390625,1.1253318994140624
-0.26081189453125,-0.13987441162109376,1.07691587890625
-0.15382830078125,-0.0504164404296875,1.1845616503906249
-0.05219388671875,0.0221302978515625,1.119679267578125
-0.1375376171875,-0.15359947021484374,1.0683140478515625
-0.21655958984375,-0.0219859619140625,1.2924531884765624
-0.26251390625,0.06673673828125,1.300563486328125
-0.1735230078125,0.06453092529296875,0.991880634765625
-0.035903203125000005,0.03610044677734375,0.9582106103515625
-0.0025924023437500013,0.0221302978515625,0.9105318896484375
-0.059245078125,-0.0602200537109375,1.0108046630859375
-0.0490330078125,0.0025230712890624996,1.0294829248046875
0.06305662109375,0.065756376953125,0.9405154150390624
0.0248829296875,-0.006790361328125,1.0511103857421875
-0.221665625,-0.00948635498046875,1.3089195507812499
-0.23601115234375,-0.114630107421875,1.449498046875
-0.19710802734375,0.0231106591796875,1.2315030712890624
-0.1166271875,-0.083258544921875,0.9646005419921875
-0.07213173828125,-0.11928682373046876,0.8844806298828125
-0.076751484375,-0.02737794921875,0.865065068359375
-0.045872128906250004,-0.01438816162109375,0.9186421875
-0.1637972265625,0.01012087158203125,0.99630443359375
-0.06751199218750001,0.14516564453125,0.9129895556640625
0.057707441406250004,0.0476196923828125,0.7547158642578125
-0.06410796875,0.05105095703125,0.6699263867187499
0.03290669921875,0.0270321044921875,0.7239950390625
-0.02885201171875,7.216796875000007e-05,0.804114951171875
-0.074806328125,0.11452935302734375,0.9717277734375
-0.14556138671875,0.06796218994140625,1.071509013671875
-0.10763083984374999,0.11747043701171875,1.113780869140625
-0.26251390625,0.055462583007812497,1.1331964306640625
-0.25351755859375,0.177517568359375,1.206189111328125
-0.14604767578125,0.0270321044921875,1.1607222900390626
-0.174981875,0.0936966748046875,1.0388220556640624
-0.11346630859375,0.10227483642578125,0.9552614111328125
-0.0388209375,0.05913893798828125,0.8419630078125
-0.047087851562500005,0.03953171142578125,0.8156659814453124
-0.07650833984375,0.008895419921875,0.904387724609375
-0.03906408203125,0.0030132519531249997,0.96484630859375
-0.13486302734375,-0.11193411376953125,0.9127437890625
-0.10471310546875,-0.0097314453125,0.9783634716796875
-0.12465095703125,-0.153844560546875,0.949608779296875
-0.15285572265625,-0.13350206298828124,1.0152284619140626
-0.20586123046875,-0.0661022216796875,1.0747039794921875
-0.20245720703125,-0.00409436767578125,1.1076367041015625
-0.2056180859375,0.019434304199218752,1.126560732421875
-0.13729447265625,-0.05213207275390625,1.0766701123046876
-0.12513724609375,0.0037485229492187503,1.0943653076171875
-0.09401474609375,-0.037916833496093746,1.0570087841796876
-0.0607039453125,-0.0063001806640625,0.90193005859375
-0.07893978515625,0.01404231689453125,0.7753602587890625
-0.037848359375,-0.00360418701171875,0.8065726171875
-0.1958923046875,-0.07664110595703125,0.8844806298828125
-0.13340416015625,0.0329142724609375,0.94223578125
-0.12610982421875,0.03659062744140625,0.8485987060546875
-0.16306779296875,-0.01487834228515625,0.7881401220703125
-0.117599765625,0.01404231689453125,0.82918314453125
-0.14361623046875,-0.01095689697265625,0.95796484375
-0.187625390625,-0.0366913818359375,1.07494974609375
-0.1399690625,0.008405239257812499,1.1150097021484375
-0.15747546875,0.04590406005859375,1.125577666015625
-0.172064140625,0.112813720703125,1.02383029296875
-0.16987583984375,0.05276658935546875,0.890624794921875
-0.103983671875,0.11379408203125,0.9596852099609375
-0.1268392578125,-0.0038492773437499997,1.019406494140625
-0.08769298828125,0.0672269189453125,1.2037314453125
-0.12221951171875,0.04443351806640625,1.1484339599609374
-0.22093619140625,0.042227705078125,0.975168505859375
-0.14847912109375,0.02286556884765625,0.8264797119140626
-0.20197091796875,-0.06928839599609375,0.8363103759765624
-0.17692703125,0.0387964404296875,0.9835245703125
-0.19808060546875,0.04737460205078125,1.01203349609375
-0.10179537109375,-0.14428603759765624,0.9783634716796875
-0.0859909765625,-0.05115171142578125,0.9641090087890625
-0.013777050781250001,-0.04772044677734375,0.98254150390625
-0.13024328125,-0.18742193603515625,0.9650920751953125
-0.1929745703125,-0.037916833496093746,1.0835515771484374
-0.20683380859375,-0.14698203125,0.984016103515625
-0.11103486328125,-0.02272123291015625,0.9953213671875
-0.11200744140625,-0.08105273193359375,1.03661015625
-0.07504947265625,-0.051886982421875,1.045949287109375
-0.07067287109375,-0.08963089355468751,0.95108337890625
-0.14653396484375,-0.0001729223632812504,1.015474228515625
-0.06824142578125,-0.10948321044921874,1.0108046630859375
-0.04295439453125,-0.0415931884765625,1.00613509765625
-0.0859909765625,-0.06046514404296875,0.988931435546875
-0.0859909765625,-0.0847290869140625,1.0110504296875
-0.16015005859375,-0.04772044677734375,1.01203349609375
-0.08355953125,0.03536517578125,1.106899404296875
-0.16914640625,0.019679394531249998,1.1997991796875
-0.17376615234375,0.14124419921875,1.263206962890625
-0.0879361328125,0.10080429443359375,1.13393373046875
-0.2260422265625,0.038306259765625,1.079865078125
-0.016451640625,0.062080021972656246,1.0614325830078124
-0.09425789062500001,-0.07173929931640625,0.9601767431640625
-0.02131453125,-0.01732924560546875,1.07101748046875
-0.142886796875,-0.10458140380859375,1.0363643896484376
-0.08355953125,-0.044044091796875,1.08281427734375
-0.1910294140625,-0.02860340087890625,1.1390948291015626
-0.15966376953125,0.0142874072265625,1.180629384765625
-0.18057419921875,-0.0011532836914062497,1.087729609375
-0.1540714453125,-0.07566074462890625,1.0228472265625
-0.1608794921875,-0.022476142578125,1.178663251953125
-0.07188859375000001,0.0686974609375,1.2526389990234374
-0.2099946875,-0.083258544921875,1.0987891064453126
-0.09498732421875,-0.01193725830078125,1.0727378466796875
-0.11443888671875,-0.0038492773437499997,0.9680412744140625
-0.045872128906250004,-0.0906112548828125,1.0319405908203125
-0.1112780078125,-0.13987441162109376,1.131476064453125
-0.2065906640625,-0.16046199951171874,1.087238076171875
-0.20829267578125,-0.00507472900390625,0.887675595703125
-0.02520484375,-0.107767578125,0.7384952685546875
0.029502675781249998,-0.10115013916015625,0.715638974609375
-0.081614375,-0.02125069091796875,0.8854636962890625
-0.09644619140624999,-0.07271966064453125,1.0739666796875
-0.1555303125,0.087324326171875,1.0978060400390626
-0.21607330078125,0.05129604736328125,0.9459222802734375
-0.0840458203125,0.11894097900390625,0.9609140429687499
0.057464296875,0.019679394531249998,1.0683140478515625
-0.240144609375,-0.0063001806640625,1.0643817822265624
-0.058272500000000005,-0.06634731201171876,1.082322744140625
-0.1015522265625,-0.00262382568359375,0.9596852099609375
-0.18932740234375,-0.067572763671875,0.9717277734375
-0.12635296875,0.012816865234374999,0.9159387548828125
-0.17522501953125,0.09100068115234375,0.993355234375
-0.12659611328125,0.0613447509765625,0.8741584326171875
-0.15431458984375,-0.04306373046875,0.7613515625
0.01369828125,0.05178622802734375,0.8658023681640625
-0.1317021484375,-0.03522083984375,0.9311762841796875
-0.0840458203125,-0.09012107421875,0.97860923828125
-0.19467658203125,0.11943115966796874,1.0678225146484375
-0.2523018359375,-0.0259074072265625,0.91372685546875
-0.1210037890625,0.0010525292968750002,0.87440419921875
-0.07383375,-0.06732767333984375,0.7935469873046875
0.0209926171875,-0.1626678125,0.7606142626953125
-0.005996425781250002,-0.104826494140625,0.798216552734375
-0.0480604296875,-0.11095375244140625,0.82525087890625
-0.0543821875,-0.11242429443359375,0.8186151806640625
-0.06775513671875,0.017718671875,0.7709364599609375
-0.1851939453125,-0.05409279541015625,0.8161575146484374
-0.032499179687500004,0.05105095703125,1.001219765625
-0.15480087890625,-0.06977857666015624,1.18505318359375
-0.13632189453125,0.085363603515625,1.3003177197265625
-0.18300564453125,0.016738310546875,1.18505318359375
-0.1477496875,0.0515411376953125,0.9808211376953125
-0.152612578125,0.04002189208984375,0.8343442431640625
-0.0451426953125,0.04712951171875,0.8269712451171874
-0.04538583984375,-0.01193725830078125,0.8358188427734374
-0.010129882812500001,-0.0700236669921875,0.955507177734375
0.0093216796875,0.01575794921875,1.0078554638671875
-0.072861171875,-0.1273748046875,0.9793465380859375
-0.06751199218750001,-0.01585870361328125,1.0034316650390624
-0.18446451171875,-0.03252484619140625,0.883743330078125
-0.13729447265625,0.02090484619140625,0.781504423828125
-0.13583560546875,-0.06193568603515625,0.63453599609375
-0.065080546875,-0.011201987304687501,0.56178908203125
-0.09352845703125,0.07580508056640625,0.5925099072265625
0.0180748828125,0.05472731201171875,0.7399698681640625
-0.06580998046875,0.0819323388671875,0.7896147216796875
0.02026318359375,-0.0082609033203125,0.7856824560546875
0.1357568359375,0.00766996826171875,0.7856824560546875
0.13332539062499998,-0.015368522949218751,1.001711298828125
0.21137478515625,-0.07370002197265625,1.3042499853515626
0.265596015625,-0.16095218017578125,1.43081978515625
0.198488125,-0.2651155712890625,1.4816934716796875
-0.089395,-0.1553151025390625,1.572872880859375
-0.3495596484375,0.05815857666015625,1.52912642578125
-0.49423064453125,-0.00850599365234375,1.2374014697265625
-0.49909353515625,0.15276344482421875,1.199307646484375
-0.40134943359374997,0.2799653271484375,1.477515439453125
-0.53605150390625,-0.3469757421875,1.4639982763671875
-0.292663828125,-0.3626615234375,1.447040380859375
0.0696215234375,-0.22908729248046875,1.0869923095703125
0.06597435546875,-0.31682963134765624,1.2565712646484375
0.01783173828125,-0.455795849609375,2.0636687841796877
-0.78308634765625,-0.22271494384765625,2.129718558349609
-1.1281084375,-0.13742350830078126,2.129718558349609
-0.6646749609375,-0.11291447509765624,1.7771049267578125
-0.37581925781250003,0.026051743164062502,0.490516767578125
-0.2668905078125,0.120656611328125,0.3059460498046875
-0.22725794921875,0.11256863037109376,0.5202545263671875
-0.3194097265625,-0.1116890234375,1.0245675927734375
-0.33910443359375,0.13658748291015624,1.41410765625
-0.58540984375,0.1456558251953125,1.355123671875
-0.33667298828125003,0.1436951025390625,1.0953483740234375
-0.29096181640625,0.09345158447265625,0.8572005371093749
-0.03274232421875,-0.02272123291015625,0.6868842822265625
0.06743322265625,-0.245998525390625,0.8038691845703125
-0.049519296875,-0.304820205078125,0.82721701171875
-0.18981369140625,-0.11561046875,0.62077306640625
-0.08477525390625,-0.2102153369140625,0.47601653808593747
0.03485185546875,-0.2136466015625,0.5595771826171875
-0.1044699609375,-0.27222319091796876,0.69941837890625
-0.25473328125,-0.29624204345703126,0.7380037353515625
-0.3378887109375,-0.22663638916015624,0.5910353076171875
-0.03955037109375,-0.1778634130859375,0.4745419384765625
0.0623271875,-0.11928682373046876,0.3236412451171875
0.094422265625,-0.1116890234375,0.296852685546875
0.0778884375,-0.05115171142578125,0.33764994140625
0.0530876953125,0.026541923828125,0.3270819775390625
0.03485185546875,0.02580665283203125,0.281123623046875
0.03704015625,-0.0974737841796875,0.2105886083984375
-0.04854671875,-0.05605351806640625,0.027492490234375
-0.022530253906250002,-0.057278969726562504,0.08500187499999999
-0.0198556640625,-0.04870080810546875,0.3344549755859375
0.11484640625,0.13340130859375,2.129718558349609
0.76841890625,0.0809519775390625,2.129718558349609
-0.31965287109375,0.2868278564453125,2.129718558349609
-0.889826796875,0.5032426196289063,2.129718558349609
-0.36147373046875,0.4456463916015625,2.0351598583984374
-0.17376615234375,0.28952385009765624,1.543872421875
0.14985921875,0.18511536865234374,0.8485987060546875
0.17295794921875,-0.33398595458984376,1.0024485986328124
0.32127611328125,-0.34084848388671873,1.916946123046875
-0.20732009765625,-0.2141367822265625,2.129718558349609
-0.41423609375,0.0731090869140625,2.129718558349609
-0.6345250390625,-0.21879349853515626,2.129718558349609
-0.3967296875,0.1495772705078125,2.007388232421875
-0.2532744140625,-0.00360418701171875,1.4487607470703125
-0.31527626953125,-0.23594982177734375,1.1798920849609376
-0.290718671875,-0.44378642333984375,1.0884669091796875
-0.23114826171875,-0.19207865234375,1.0592206835937499
-0.33642984375,-0.25604722900390625,0.832623876953125
-0.33375525390625,-0.24575343505859376,0.6657483544921875
-0.29193439453125003,-0.18399067138671876,0.5394243212890625
-0.24816837890625,-0.16634416748046876,0.41359182128906247
-0.16015005859375,-0.16462853515625,0.2617080615234375
-0.14702025390625,-0.196980458984375,0.297835751953125
-0.18349193359375,-0.1396293212890625,0.33076847656249997
-0.17862904296875,-0.08938580322265625,0.2499112646484375
-0.1861665234375,-0.093062158203125,0.21206320800781248
-0.17303671874999998,-0.10948321044921874,0.250648564453125
-0.12951384765625001,-0.093062158203125,0.16536755371093748
-0.1900568359375,-0.1200220947265625,0.21771583984374998
-0.18884111328125,-0.10188541015625,0.18650348144531248
-0.23649744140625,-0.1430605859375,0.3393703076171875
-0.29752671875000003,-0.17369687744140624,0.368125
-0.34007701171875,-0.20016663330078124,0.41334605468749996
-0.4127772265625,-0.226391298828125,0.435465048828125
-0.51611365234375,-0.22467566650390625,0.49616939941406246
-0.5314317578125,-0.14379585693359376,0.5531872509765625
-0.50492900390625,0.08953013916015624,0.749063232421875
-0.47964197265624997,0.2182025634765625,0.9862280029296875
-0.48936775390625,0.36403131103515624,1.23027423828125
-0.4905834765625,0.41501010009765626,1.3750307666015624
-0.44754689453125,0.4162355517578125,1.2177401416015625
-0.35855599609375,0.37530546630859374,0.8825144970703125
-0.299471875,0.331434296875,0.8144371484375
-0.19856689453125,0.2887885791015625,0.8859552294921875
-0.138996484375,0.31550342529296876,0.9488714794921875
-0.2416034765625,0.37040365966796873,1.0592206835937499
-0.40694175781249997,0.29736674072265623,1.1361456298828125
-0.26154132812499997,0.13732275390625,1.008592763671875
-0.27880458984375,0.06306038330078124,0.8599039697265625
-0.2853694921875,0.10374537841796876,0.8608870361328125
-0.29144810546875,0.080461796875,0.9036504248046875
-0.40329458984375,-0.0033590966796874996,0.9208540869140625
-0.392839375,-0.015368522949218751,0.92355751953125
-0.1657423828125,-0.011201987304687501,0.9134810888671875
-0.2970404296875,-0.07051384765625,0.868997333984375
-0.33278267578125,-0.0999246875,0.89209939453125
-0.1813036328125,-0.108747939453125,0.9284728515625
-0.2289599609375,-0.1876670263671875,0.94715111328125
-0.0840458203125,-0.11879664306640625,0.9965502001953125
-0.26664736328125,-0.18055940673828125,1.0398051220703124
-0.34834392578125,-0.11364974609375,1.01203349609375
-0.17862904296875,-0.22418548583984374,0.8200897802734375
-0.31041337890625,-0.12124754638671875,0.84294607421875
-0.36439146484375,-0.09526797119140624,0.9483799462890625
-0.35223423828125,-0.19526482666015624,0.9277355517578125
-0.280992890625,-0.02615249755859375,0.9906518017578125
-0.3369161328125,-0.09085634521484375,1.04742388671875
-0.11054857421875,-0.0955130615234375,1.07298361328125
-0.15164,-0.0543378857421875,1.11034013671875
-0.2892598046875,-0.06830803466796875,1.197833046875
-0.28634207031250003,-0.057769150390625,1.2093840771484374
-0.1569891796875,-0.073454931640625,1.1051790380859374
-0.13145900390625,-0.037916833496093746,1.091661875
-0.30020130859375,-0.11438501708984375,1.1329506640625
-0.11395259765625,-0.0562986083984375,1.2000449462890626
-0.2435486328125,-0.012672529296875,1.2334692041015625
-0.38384302734375,-0.11291447509765624,1.14376439453125
-0.24670951171875,-0.02664267822265625,1.03562708984375
-0.24865466796875,-0.13889405029296875,0.9134810888671875
-0.15771861328125,-0.0670825830078125,0.94321884765625
-0.25473328125,-0.11634573974609375,0.9631259423828125
-0.16136578125,-0.08791526123046875,1.024813359375
-0.1200312109375,-0.06830803466796875,1.073475146484375
-0.24816837890625,-0.179333955078125,1.1346710302734375
-0.27515742187500003,-0.100905048828125,1.2359268701171875
-0.252788125,-0.1430605859375,1.139340595703125
-0.209022109375,-0.15163874755859374,1.014491162109375
-0.21972046875,-0.14183513427734376,1.058729150390625
-0.29679728515625,-0.15212892822265625,1.0751955126953125
-0.2824517578125,-0.05752406005859375,1.002694365234375
-0.268349375,-0.13252170166015625,0.965337841796875
-0.29485212890625,-0.12075736572265625,0.9857364697265625
-0.31624884765625,-0.095022880859375,1.01203349609375
-0.24306234375,-0.05899460205078125,0.972219306640625
-0.2668905078125,-0.03399538818359375,1.000728232421875
-0.38335673828125,-0.11095375244140625,1.0058893310546875
-0.20148462890625,-0.00262382568359375,1.00810123046875
-0.315033125,-0.10409122314453124,1.02776255859375
-0.271267109375,-0.06144550537109375,1.05528841796875
-0.1842213671875,0.019434304199218752,1.058729150390625
-0.32743349609375,-0.08227818359375,0.9886856689453125
-0.28974609375,-0.112669384765625,0.917167587890625
-0.22823052734375,-0.159726728515625,0.8220559130859375
-0.2882872265625,-0.147962392578125,0.8879213623046875
-0.33667298828125003,-0.046004814453125,0.9356000830078125
-0.39308251953125,-0.1200220947265625,0.9272440185546875
-0.33229638671875,-0.053847705078125,0.997779033203125
-0.25643529296875,-0.057278969726562504,1.0181776611328126
-0.330594375,-0.18423576171875,0.9970417333984375
-0.216802734375,-0.09232688720703125,1.023338759765625
-0.17279357421875,-0.0945327001953125,1.008592763671875
-0.2630001953125,-0.18104958740234375,1.006626630859375
-0.3189234375,-0.09918941650390625,1.031203291015625
-0.27734572265625,-0.01169216796875,1.056763017578125
-0.35077537109375,-0.122472998046875,0.9523122119140625
-0.33764556640625,-0.0925719775390625,0.9994993994140625
-0.28755779296875,-0.0151234326171875,0.9734481396484375
-0.38432931640625,-0.10115013916015625,0.948625712890625
-0.24087404296875,-0.05360261474609375,0.9513291455078126
-0.25157240234375,-0.14428603759765624,0.8712092333984375
-0.27977716796875,-0.08693489990234375,0.9459222802734375
-0.27977716796875,-0.11193411376953125,0.95304951171875
-0.279047734375,-0.08227818359375,0.9636174755859375
-0.3515048046875,-0.11389483642578124,0.964354775390625
-0.24038775390625,-0.08595453857421875,0.9847534033203125
-0.299471875,-0.077376376953125,0.9405154150390624
-0.30263275390625,-0.1366882373046875,0.9056165576171875
-0.26518849609375,-0.08938580322265625,0.9321593505859375
-0.2805066015625,-0.073454931640625,0.9665666748046875
-0.19710802734375,-0.068553125,0.9835245703125
-0.32694720703125,-0.05360261474609375,1.014491162109375
-0.36050115234375,-0.060710234375,1.04939001953125
-0.35126166015625,-0.06193568603515625,0.977626171875
-0.22239505859375,-0.104826494140625,0.993846767578125
-0.268349375,-0.0455146337890625,1.034152490234375
-0.37995271484375,-0.2131564208984375,0.9402696484374999
-0.2202067578125,-0.0847290869140625,0.914218388671875
-0.237226875,-0.08448399658203125,0.86653966796875
-0.32111173828125,-0.1641383544921875,0.9011927587890625
-0.24670951171875,-0.1004148681640625,1.01203349609375
-0.3320532421875,-0.0935523388671875,0.9913891015625
-0.22239505859375,-0.14526639892578125,0.9080742236328125
-0.31041337890625,-0.167569619140625,0.8726838330078125
-0.21072412109375,-0.0641414990234375,0.89603166015625
-0.30992708984375,-0.17712814208984376,0.8230389794921875
-0.22871681640625,-0.03693647216796875,0.922574453125
-0.27151025390625,-0.08644471923828125,0.8702261669921875
-0.28512634765625,-0.0180645166015625,0.97271083984375
-0.26324333984375,-0.04698517578125,1.0555341845703126
-0.2581373046875,-0.042083369140625,1.0235845263671874
-0.2503566796875,-0.06267095703125,0.9631259423828125
-0.14361623046875,-0.010711806640625,0.994829833984375
-0.2571647265625,-0.06977857666015624,1.0071181640625
-0.2960678515625,-0.0254172265625,1.0697886474609375
-0.3344846875,-0.09820905517578125,1.0525849853515625
-0.268349375,-0.0553182470703125,1.053813818359375
-0.30020130859375,-0.10654212646484375,0.9793465380859375
-0.23139140625,-0.1798241357421875,0.87047193359375
-0.27102396484375,-0.20972515625,0.86260740234375
-0.26227076171875,-0.1004148681640625,0.9808211376953125
-0.19370400390625,-0.1170810107421875,1.013508095703125
-0.259596171875,-0.14722712158203125,1.0363643896484376
-0.30263275390625,-0.010221625976562499,1.09264494140625
-0.25692158203125,-0.14134495361328125,0.977134638671875
-0.26810623046875,-0.130315888671875,0.959439443359375
-0.237226875,-0.01438816162109375,1.034152490234375
-0.23892888671875,-0.1626678125,0.985982236328125
-0.21801845703125,-0.0798272802734375,1.0471781201171875
-0.31746457031249997,-0.12467881103515625,1.0294829248046875
-0.35661083984374997,-0.15850127685546875,0.9609140429687499
-0.25497642578125,-0.14036459228515624,0.8780906982421874
-0.2309051171875,-0.1004148681640625,0.8677685009765626
-0.28269490234375,-0.0219859619140625,0.91372685546875
-0.23114826171875,-0.18521612304687501,1.0280083251953125
-0.21364185546875,-0.02419177490234375,1.1120605029296875
-0.3164919921875,-0.0847290869140625,0.9990078662109375
-0.19564916015625,-0.07370002197265625,0.9685328076171875
-0.30141703125,-0.051886982421875,0.910286123046875
-0.17036212890625,-0.06438658935546875,0.8859552294921875
-0.28634207031250003,-0.0749254736328125,0.90782845703125
-0.29874244140625,-0.03252484619140625,1.01006736328125
-0.11468203125,-0.10556176513671875,0.9874568359375
-0.2591098828125,-0.08301345458984374,0.978117705078125
-0.28804408203125,0.06698182861328125,1.0471781201171875
-0.26761994140625,-0.1543347412109375,0.9390408154296875
-0.28707150390625,0.03315936279296875,1.0425085546875
-0.2644590625,-0.0190448779296875,1.041033955078125
-0.21218298828125,-0.13448242431640625,0.965829375
-0.27491427734375,-0.03693647216796875,0.9537868115234375
-0.232363984375,-0.03914228515625,0.9606682763671874
-0.3033621875,-0.04428918212890625,0.945676513671875
-0.23455228515625,-0.01953505859375,0.9601767431640625
-0.347128203125,-0.059484782714843754,0.9341254833984375
-0.17182099609375,-0.05115171142578125,0.9129895556640625
-0.25886673828125,-0.0504164404296875,0.913235322265625
-0.273212265625,-0.081297822265625,0.954524111328125
-0.2022140625,-0.05801424072265625,0.980083837890625
-0.3072525,0.02678701416015625,0.98057537109375
-0.30166017578125,-0.0239466845703125,0.9813126708984374
-0.2552195703125,0.02580665283203125,1.0152284619140626
-0.24670951171875,-0.10409122314453124,0.9026673583984375
-0.27345541015625,-0.0768861962890625,0.9100403564453124
-0.25108611328125,-0.05874951171875,0.9120064892578125
-0.2333365625,-0.11389483642578124,0.88620099609375
-0.2211793359375,-0.0798272802734375,0.992863701171875
-0.2736985546875,-0.08154291259765625,1.0245675927734375
-0.29971501953125,-0.05311243408203125,1.0464408203125
-0.18470765625,0.046149150390625,1.0535680517578125
-0.36147373046875,-0.1288453466796875,0.97664310546875
-0.26227076171875,-0.1327667919921875,0.9921264013671875
-0.19419029296875,-0.0562986083984375,0.951574912109375
-0.30311904296875003,-0.083258544921875,0.95501564453125
-0.23455228515625,-0.0803174609375,0.9857364697265625
-0.29047552734375,0.021640117187500002,1.05332228515625
-0.3446967578125,-0.122472998046875,0.969761640625
-0.27491427734375,-0.02860340087890625,0.9670582080078125
-0.257651015625,-0.04281864013671875,0.9088115234375
-0.2639727734375,-0.06242586669921875,0.9650920751953125
-0.2600824609375,-0.0567887890625,1.025304892578125
-0.29533841796875,-0.046740085449218746,1.0471781201171875
-0.26956509765625,-0.07370002197265625,1.020389560546875
-0.3233000390625,0.0074248779296875,0.932896650390625
-0.27199654296875,-0.06193568603515625,0.8795652978515625
-0.2357680078125,-0.0097314453125,0.956490244140625
-0.3164919921875,-0.096983603515625,1.0373474560546876
-0.2766162890625,-0.092081796875,1.032186357421875
-0.24184662109375,-0.0886505322265625,0.9714820068359376
-0.32281375,-0.044044091796875,0.9124980224609375
-0.23309341796875,-0.0406128271484375,0.8903790283203125
-0.26372962890625,-0.12369844970703125,0.995812900390625
-0.3408064453125,-0.060710234375,1.086255009765625
-0.206104375,-0.0425735498046875,1.0756870458984376
-0.22482650390625,-0.07443529296875,0.9717277734375
-0.2581373046875,-0.10188541015625,0.969270107421875
-0.3456693359375,0.01183650390625,0.9985163330078125
-0.3096839453125,-0.23129310546875,0.9820499707031249
-0.30506419921875,-0.01291761962890625,1.0314490576171875
-0.199296328125,-0.14502130859375,0.9257694189453125
-0.236254296875,-0.15286419921875,0.91077765625
-0.18738224609375,-0.013162709960937501,0.975168505859375
-0.30117388671875,-0.1641383544921875,0.98057537109375
-0.25449013671875,-0.0327699365234375,1.0444746875
-0.2678630859375,-0.10409122314453124,0.9788550048828125
-0.23139140625,-0.0455146337890625,1.0280083251953125
-0.19029998046875,-0.12124754638671875,0.93535431640625
-0.27005138671875,-0.059729873046875,0.89504859375
-0.1890842578125,-0.065612041015625,0.915201455078125
-0.27540056640625,-0.0592396923828125,0.98942296875
-0.3048210546875,-0.05997496337890625,1.0535680517578125
-0.21364185546875,-0.0055649096679687505,1.0860092431640624
-0.2688356640625,-0.0504164404296875,1.0781447119140626
-0.20537494140625,-0.04281864013671875,1.053813818359375
-0.3699837890625,-0.0670825830078125,1.0132623291015626
-0.206104375,-0.076396015625,0.9390408154296875
-0.214857578125,-0.0288484912109375,0.8599039697265625
-0.298499296875,-0.11757119140625,1.0019570654296874
-0.18106048828125,-0.12933552734375,1.0343982568359376
-0.30020130859375,-0.03301502685546875,0.9999909326171875
-0.20683380859375,-0.1484525732421875,0.945676513671875
-0.3038484765625,-0.12149263671875,0.8618701025390625
-0.25108611328125,-0.04428918212890625,0.9724650732421874
-0.23917203125,-0.1268846240234375,0.9835245703125
-0.252788125,-0.0788469189453125,0.9822957373046874
-0.24695265625,-0.1239435400390625,0.9872110693359375
-0.2099946875,-0.12271808837890624,0.947642646484375
-0.2698082421875,-0.00213364501953125,1.005643564453125
-0.28974609375,-0.06389640869140625,1.0476696533203125
-0.2036729296875,-0.03546593017578125,1.0535680517578125
-0.2240970703125,-0.0788469189453125,1.0395593554687501
-0.36925435546875,-0.02419177490234375,1.0810939111328124
-0.224583359375,-0.1239435400390625,0.9820499707031249
-0.24306234375,-0.08203309326171875,0.85867513671875
-0.20148462890625,-0.00507472900390625,0.895540126953125
-0.2805066015625,-0.18423576171875,0.89504859375
-0.20804953125,0.0025230712890624996,1.0226014599609374
-0.265431640625,-0.0396324658203125,1.0307117578125
-0.31308796875,-0.14330567626953125,0.969761640625
-0.18106048828125,-0.051886982421875,0.96288017578125
-0.20877896484375,-0.06144550537109375,0.8977520263671875
-0.2805066015625,-0.0567887890625,0.93928658203125
-0.24330548828125,-0.0523771630859375,1.039067822265625
-0.32208431640625,-0.0994345068359375,0.9407611816406249
-0.1774133203125,-0.05213207275390625,0.937811982421875
-0.28318119140625,-0.04281864013671875,0.9926179345703126
-0.26154132812499997,-0.01389798095703125,1.0722463134765625
-0.20342978515625,-0.06781785400390625,0.9965502001953125
-0.29387955078125,-0.013407800292968751,1.0122792626953125
