ax,ay,az
-0.16404037109375,0.018699033203125,0.828691611328125
-0.24038775390625,-0.04428918212890625,0.84786140625
-0.17084841796875,0.10570610107421875,1.005643564453125
-0.312115390625,-0.0011532836914062497,1.024813359375
-0.32986494140625,-0.05801424072265625,1.199307646484375
-0.323786328125,-0.0915916162109375,1.1683410546875
-0.33570041015625,-0.028358310546875,1.064136015625
-0.1997826171875,-0.18153976806640626,0.9773804052734375
-0.18081734375,0.0765403515625,0.944693447265625
-0.21972046875,-0.0749254736328125,0.809030283203125
-0.31527626953125,0.0956573974609375,0.922574453125
-0.2552195703125,0.17090012939453125,0.8658023681640625
-0.18835482421875,0.07139345458984375,0.8773533984374999
-0.1813036328125,0.08266760986328126,0.918150654296875
-0.236254296875,0.1162449853515625,0.90586232421875
-0.30530734375,0.222614189453125,1.05725455078125
-0.35466568359375,0.1799684716796875,1.1907058154296875
-0.41496552734375003,0.06894255126953125,1.155069658203125
-0.31868029296875,-0.0808076416015625,1.0053977978515625
-0.15625974609374998,-0.0494360791015625,0.9429730810546875
-0.25108611328125,0.0515411376953125,0.8567090039062499
-0.23528171875,0.07041309326171875,1.0034316650390624
-0.35223423828125,0.07825598388671876,1.089204208984375
-0.30506419921875,-0.0011532836914062497,1.070525947265625
-0.3252451953125,-0.05164189208984375,0.9537868115234375
-0.1764407421875,0.0037485229492187503,0.86850580078125
-0.25473328125,0.10668646240234375,0.8313950439453125
-0.259596171875,0.02678701416015625,0.865065068359375
-0.2445212109375,0.13315621826171875,0.9419900146484375
-0.29242068359375,-0.07468038330078125,0.9287186181640625
-0.21023783203125002,-0.04698517578125,0.9921264013671875
-0.23017568359375,-0.03889719482421875,0.9287186181640625
-0.236254296875,0.01306195556640625,0.92159138671875
-0.31308796875,0.008895419921875,0.944693447265625
-0.2450075,-0.038161923828125,0.8734211328125
-0.19710802734375,0.14541073486328124,0.9046334912109375
-0.3033621875,0.089285048828125,0.9985163330078125
-0.292663828125,0.0201695751953125,1.0992806396484376
-0.1190586328125,0.16011615478515626,1.141306728515625
-0.2338228515625,0.030463369140625002,1.1346710302734375
-0.23698373046875,0.0069346972656249995,1.1484339599609374
-0.24962724609375,0.02531647216796875,1.036118623046875
-0.2892598046875,-0.08056255126953125,0.9562444775390625
-0.267376796875,0.04786478271484375,1.0127707958984375
-0.255705859375,-0.06879821533203125,1.037101689453125
-0.448276328125,0.0221302978515625,1.084288876953125
-0.286828359375,0.0691876416015625,0.94321884765625
-0.2124261328125,0.1280093212890625,0.7370206689453125
-0.13802390625,0.08315779052734375,0.67189251953125
-0.13486302734375,0.06673673828125,0.7161305078125
-0.14458880859375,0.07923634521484375,0.8205813134765625
-0.21753216796875,0.07629526123046874,1.0149826953125
-0.37898013671874997,0.05962911865234375,1.1833328173828126
-0.29631099609375,0.06158984130859375,1.2855717236328126
-0.36876806640625,0.1436951025390625,1.2644357958984376
-0.25983931640625,0.05521749267578125,1.0857634765625
-0.26154132812499997,0.11796061767578125,1.0230929931640624
-0.315033125,0.07335417724609375,0.922574453125
-0.3476144921875,0.077520712890625,0.8576920703124999
-0.22579908203125,0.073599267578125,0.8761245654296875
-0.21193984375,0.02090484619140625,0.9174133544921875
-0.19662173828125,0.04002189208984375,0.9316678173828125
-0.255705859375,0.12335260498046875,0.8879213623046875
-0.3048210546875,0.004973974609375,0.85081060546875
-0.23260712890625002,0.04002189208984375,0.8176321142578125
-0.23139140625,0.063795654296875,0.7711822265625
-0.1978374609375,0.1064413720703125,0.8736668994140625
-0.25692158203125,0.059874208984374996,1.0796193115234376
-0.312115390625,0.0451687890625,1.20962984375
-0.333512109375,0.0012976196289062499,1.1710444873046875
-0.26956509765625,0.0451687890625,1.0071181640625
-0.2163164453125,0.10619628173828125,0.95304951171875
-0.3476144921875,0.07923634521484375,0.9233117529296875
-0.26810623046875,0.138303115234375,0.961897109375
-0.26251390625,0.0760501708984375,0.907336923828125
-0.15382830078125,0.1079119140625,0.9191337207031249
-0.2649453515625,-0.0028689160156250004,0.89406552734375
-0.265431640625,0.089285048828125,0.886692529296875
-0.15771861328125,0.14148928955078124,0.9002096923828125
-0.3651208984375,0.03928662109375,0.9749227392578125
-0.3942982421875,0.09982393310546875,1.1329506640625
-0.26372962890625,0.06649164794921875,1.0638902490234374
-0.3378887109375,0.08658905517578125,0.9999909326171875
-0.2036729296875,0.0868341455078125,1.0751955126953125
-0.31916658203125,-0.00458454833984375,0.9820499707031249
-0.24233291015625,0.04443351806640625,0.906845390625
-0.24622322265625,0.10619628173828125,0.9247863525390625
-0.27491427734375,0.1309504052734375,1.0049062646484375
-0.22968939453125,0.0436982470703125,1.1405694287109376
-0.31527626953125,0.0142874072265625,1.073475146484375
-0.288773515625,0.14737145751953126,1.04545775390625
-0.32500205078125,0.03315936279296875,0.9262609521484375
-0.185680234375,0.08217742919921875,0.9070911572265625
-0.230418828125,0.12237224365234375,0.975168505859375
-0.292663828125,0.04198261474609375,1.0122792626953125
-0.17619759765625,0.15766525146484375,1.043000087890625
-0.34202216796875,0.05497240234375,1.010558896484375
-0.1861665234375,0.0883046875,1.091170341796875
-0.31527626953125,0.0765403515625,1.0840431103515624
-0.2065906640625,0.09345158447265625,1.0692971142578125
-0.341292734375,0.06673673828125,1.0216183935546874
-0.28609892578125,0.0765403515625,0.9257694189453125
-0.1540714453125,0.0711483642578125,0.9913891015625
-0.30214646484375,-0.01291761962890625,1.080356611328125
-0.28196546875,-0.00360418701171875,1.039067822265625
-0.3194097265625,0.0142874072265625,0.9272440185546875
-0.259596171875,0.0005623486328125002,0.847369873046875
-0.29096181640625,-0.0670825830078125,0.7763433251953125
-0.15528716796875,0.01747358154296875,0.8365561425781249
-0.18495080078125,0.0780108935546875,0.7837163232421875
-0.23455228515625,0.12384278564453124,0.896523193359375
-0.20294349609375,0.050070595703125,0.9827872705078124
-0.3194097265625,0.1064413720703125,1.09854333984375
-0.28609892578125,0.1848702783203125,1.160968056640625
-0.23163455078125,0.1485969091796875,1.171781787109375
-0.19637859375,0.1941837109375,1.156052724609375
-0.31235853515625,0.17433139404296874,1.168832587890625
-0.28172232421875,0.0819323388671875,1.071509013671875
-0.27613,0.08217742919921875,1.0250591259765625
-0.38457246093749997,-0.0268877685546875,1.006626630859375
-0.35952857421875,0.05178622802734375,0.9316678173828125
-0.12246265625,0.06306038330078124,0.8525309716796875
-0.1424005078125,0.04786478271484375,0.76921609375
-0.30652306640625,0.04884514404296875,0.8485987060546875
-0.279047734375,0.14418528320312501,0.9110234228515625
-0.28561263671875,0.075559990234375,0.827708544921875
-0.23309341796875,0.0691876416015625,0.9365831494140625
-0.27151025390625,0.05570767333984375,0.93437125
-0.16987583984375,0.1329111279296875,0.8677685009765626
-0.26032560546875,0.03266918212890625,0.924049052734375
-0.33764556640625,0.197124794921875,1.1140266357421875
-0.25449013671875,0.15178308349609376,1.1400778955078126
-0.29193439453125003,0.136342392578125,1.1526119921875
-0.1735230078125,0.16207687744140625,1.08084814453125
-0.31770771484375,0.08805959716796875,0.9754142724609375
-0.2211793359375,0.1584005224609375,0.9660751416015625
-0.30700935546875,0.1123235400390625,0.9518206787109375
-0.33618669921875,0.04002189208984375,1.036118623046875
-0.28074974609375003,0.0740894482421875,0.993355234375
-0.1871391015625,0.12678386962890625,0.7896147216796875
-0.25108611328125,-0.022476142578125,0.695977646484375
-0.20683380859375,0.04149243408203125,0.6657483544921875
-0.08307324218750001,0.13119549560546875,0.7080202099609375
-0.2503566796875,0.0760501708984375,0.88030259765625
-0.28391062499999997,0.14737145751953126,1.11427240234375
-0.24670951171875,0.104970830078125,1.17129025390625
-0.35612455078125,0.11403917236328125,1.0702801806640625
-0.2328502734375,0.0809519775390625,0.981066904296875
-0.1788721875,0.106931552734375,0.91372685546875
-0.27734572265625,0.1691844970703125,1.01989802734375
-0.3213548828125,0.0054641552734375,0.89799779296875
-0.12659611328125,-0.008996174316406251,0.8783364648437499
-0.2075632421875,0.11403917236328125,0.8891501953125
-0.24233291015625,-0.03889719482421875,0.88620099609375
-0.32257060546875,0.0603643896484375,1.07298361328125
-0.34980279296875,0.2397705126953125,1.2344522705078125
-0.3048210546875,0.173596123046875,1.2246216064453126
-0.32548833984375003,0.21060476318359375,1.1287726318359375
-0.19905318359375002,0.2387901513671875,1.0383305224609374
-0.335457265625,0.0858537841796875,0.9009469921875
-0.26859251953125,0.1476165478515625,0.8412257080078125
-0.159420625,0.05227640869140625,0.7974792529296875
-0.181789921875,0.057913486328125,0.84491220703125
-0.25497642578125,0.07335417724609375,0.9945840673828125
-0.3835998828125,-0.05458297607421875,1.013508095703125
-0.42590703125,0.07580508056640625,0.91569298828125
-0.19346085937500002,-0.06242586669921875,0.8564632373046875
-0.31308796875,0.07286399658203124,0.906845390625
-0.19905318359375002,0.127519140625,0.8567090039062499
-0.2289599609375,0.16673359375,0.997779033203125
-0.403537734375,0.199085517578125,1.2108586767578124
-0.33035123046875,0.110852998046875,1.16244265625
-0.25838044921875,0.11403917236328125,1.0535680517578125
-0.2172890234375,0.06698182861328125,0.8938197607421875
-0.10325423828125,0.0250713818359375,0.8572005371093749
-0.15334201171875,0.1309504052734375,1.1189419677734376
-0.4691867578125,0.062080021972656246,1.1388490625
-0.21023783203125002,0.062080021972656246,1.1975872802734375
-0.40572603515625,0.0765403515625,0.9822957373046874
-0.20099833984375,-0.02149578125,0.8392595751953125
-0.2260422265625,0.0765403515625,0.8820229638671875
-0.31819400390625,0.15227326416015624,1.1120605029296875
-0.34056330078125,0.13536203125,1.0968229736328126
-0.247925234375,0.22531018310546874,0.9756600390625
-0.27588685546875,0.1848702783203125,0.854251337890625
-0.04854671875,0.028257556152343752,0.7778179248046875
-0.06629626953125001,0.05276658935546875,0.8773533984374999
-0.30117388671875,-0.0523771630859375,1.0452119873046875
-0.288773515625,0.010611052246093749,1.2079094775390624
-0.32864921874999997,0.07433453857421875,1.178663251953125
-0.27588685546875,0.00791505859375,1.0815854443359374
-0.30798193359375,-0.0513968017578125,0.9783634716796875
-0.218747890625,0.0770305322265625,0.984016103515625
-0.32159802734375,-0.045024453125,0.946659580078125
-0.29874244140625,0.1240878759765625,1.012525029296875
-0.20683380859375,0.0843832421875,0.9655836083984375
-0.22142248046875002,-0.0415931884765625,0.8498275390625
-0.17619759765625,0.03315936279296875,0.8299204443359375
-0.15966376953125,0.04149243408203125,0.8318865771484375
-0.18446451171875,0.0407571630859375,0.7945300537109374
-0.26178447265625,-0.0288484912109375,0.93142205078125
-0.33618669921875,0.0750698095703125,1.0127707958984375
-0.4011062890625,0.055952763671875,0.984999169921875
-0.29387955078125,0.030463369140625002,0.9186421875
-0.26324333984375,0.057913486328125,0.8574463037109374
-0.252788125,0.1809488330078125,0.833606943359375
-0.185680234375,0.1549692578125,0.8736668994140625
-0.27345541015625,0.16624341308593749,0.9537868115234375
-0.27831830078124997,0.142224560546875,0.9326508837890625
-0.28074974609375003,0.15325362548828125,0.800182685546875
-0.2182616015625,0.1549692578125,0.755944697265625
-0.13145900390625,0.062080021972656246,0.7886316552734375
-0.195406015625,0.22629054443359375,0.8783364648437499
-0.3339983984375,0.12727405029296876,0.9449392138671875
-0.2523018359375,0.0917359521484375,0.989914501953125
-0.3126016796875,0.00423870361328125,1.0857634765625
-0.26178447265625,0.1652630517578125,1.2388760693359375
-0.24525064453125,0.01110123291015625,1.2590289306640625
-0.3855450390625,0.10717664306640624,1.278936025390625
-0.34445361328125,0.1760470263671875,1.0582376171875
-0.42663646484375,0.04443351806640625,0.9174133544921875
-0.33521412109375,0.0858537841796875,0.90586232421875
-0.2163164453125,0.1628121484375,0.868014267578125
-0.15285572265625,0.1221271533203125,0.78789435546875
-0.18470765625,0.09443194580078125,0.7281730712890625
-0.166228671875,0.13413657958984376,0.694503046875
-0.17960162109375,0.14443037353515625,0.7984623193359375
-0.24087404296875,0.062080021972656246,0.9877026025390625
-0.28707150390625,0.09051050048828126,1.131476064453125
-0.3057936328125,0.1338914892578125,1.216019775390625
-0.36098744140625,0.046149150390625,1.1361456298828125
-0.35952857421875,0.09884357177734375,0.9867195361328125
-0.3233000390625,0.127519140625,0.92748978515625
-0.26275705078125,0.20962440185546874,1.0363643896484376
-0.23917203125,0.1235976953125,1.056763017578125
-0.2561921484375,0.1574201611328125,1.0899415087890625
-0.24816837890625,0.143204921875,0.9820499707031249
-0.160393203125,0.019434304199218752,0.8741584326171875
-0.2678630859375,0.12923477294921876,0.9203625537109374
-0.27734572265625,0.09835339111328124,0.953541044921875
-0.30020130859375,0.14148928955078124,0.9454307470703125
-0.26713365234374997,0.0927163134765625,0.9921264013671875
-0.18008791015625,0.05497240234375,0.9857364697265625
-0.34153587890625,0.0338946337890625,1.0661021484375
-0.35028908203125,0.06624655761718751,1.1189419677734376
-0.27248283203125,0.06011929931640625,1.0968229736328126
-0.33959072265625,0.00619942626953125,1.0530765185546875
-0.25983931640625,0.04639424072265625,1.052830751953125
-0.2255559375,0.038306259765625,1.0663479150390625
-0.27613,0.02237538818359375,1.104933271484375
-0.2488978125,0.16624341308593749,1.10247560546875
-0.29776986328125,0.06747200927734374,0.990897568359375
-0.25594900390624997,0.10374537841796876,0.98843990234375
-0.26129818359375,0.09492212646484376,0.996795966796875
-0.2347954296875,0.1015395654296875,1.0314490576171875
-0.19224513671875,0.083402880859375,0.9700074072265625
-0.273212265625,0.10325519775390625,0.9596852099609375
-0.28464005859375,-0.013162709960937501,1.0191607275390624
-0.32281375,0.11943115966796874,1.0661021484375
-0.31333111328125,0.12139188232421876,1.0697886474609375
-0.31770771484375,0.05668803466796875,1.0422627880859374
-0.29582470703125,0.09296140380859375,1.12606919921875
-0.21607330078125,0.096147578125,1.0176861279296876
-0.2182616015625,0.085363603515625,0.8984893261718749
-0.1788721875,0.08070688720703124,0.8707177001953125
-0.24136033203125,0.0593840283203125,0.822793212890625
-0.24865466796875,0.111833359375,0.9881941357421875
-0.24136033203125,0.10325519775390625,1.0550426513671876
-0.33715927734375,0.093206494140625,1.0530765185546875
-0.25084296875,0.1417343798828125,1.0565172509765626
-0.2999581640625,0.0280124658203125,0.9375662158203125
-0.3203823046875,0.153988896484375,0.9896687353515625
-0.27515742187500003,0.02874773681640625,0.9886856689453125
-0.24768208984375,0.12090170166015625,1.0181776611328126
-0.28123603515625,0.13732275390625,1.0683140478515625
-0.2766162890625,0.015022678222656249,1.0395593554687501
-0.224583359375,0.2064382275390625,1.030220224609375
-0.22385392578125,-0.01732924560546875,0.9245405859375
-0.23503857421875,0.05472731201171875,0.991880634765625
-0.3388612890625,-0.05458297607421875,0.9795923046875
-0.226528515625,-0.05115171142578125,0.9166760546875
-0.1949197265625,-0.04772044677734375,0.7527497314453125
-0.298499296875,-0.0612004150390625,0.7178508740234375
-0.2722396875,-0.0808076416015625,0.7266984716796875
-0.23990146484375,0.011346323242187501,0.814928681640625
-0.22968939453125,0.14345001220703124,0.9208540869140625
-0.316005703125,0.181439013671875,1.004660498046875
-0.1764407421875,0.110852998046875,1.012525029296875
-0.242089765625,0.12874459228515625,1.0147369287109376
-0.32791978515625,0.12776423095703124,1.046932353515625
-0.2221519140625,0.03512008544921875,0.93338818359375
-0.3033621875,0.09296140380859375,0.8498275390625
-0.279047734375,0.12776423095703124,0.810013349609375
-0.20586123046875,0.1005592041015625,0.85867513671875
-0.32086859375,0.0515411376953125,0.9311762841796875
-0.22093619140625,0.04835496337890625,1.10640787109375
-0.29776986328125,0.05668803466796875,1.0412797216796874
-0.23309341796875,0.11845079833984375,1.0009739990234374
-0.34688505859375,0.07433453857421875,0.841471474609375
-0.31381740234375,0.10815700439453126,0.79182662109375
-0.19029998046875,0.15521434814453125,0.7910893212890625
-0.26421591796875,0.04541387939453125,0.8372934423828124
-0.21996361328125,0.1319307666015625,0.9734481396484375
-0.2099946875,0.09492212646484376,1.0661021484375
-0.24962724609375,0.09247122314453125,1.0771616455078126
-0.2133987109375,0.13217585693359374,1.1565442578125
-0.337402421875,0.0451687890625,1.1892312158203124
-0.345183046875,0.0133070458984375,1.1840701171874999
-0.4195852734375,0.07335417724609375,1.0857634765625
-0.25862359375,0.040266982421875,0.8930824609375
-0.2484115234375,0.04884514404296875,0.7475886328125
-0.2644590625,0.065756376953125,0.746114033203125
-0.15188314453125001,0.1471263671875,0.8191067138671875
-0.29242068359375,-0.12933552734375,0.8223016796875
-0.2099946875,0.1000690234375,0.999745166015625
-0.189570546875,-0.03644629150390625,0.8913620947265625
-0.2707808203125,-0.07860182861328124,0.9559987109375
-0.34007701171875,0.015022678222656249,0.9719735400390626
-0.25546271484375,-0.0406128271484375,0.8554801708984375
-0.1890842578125,0.1917328076171875,0.88620099609375
-0.2377131640625,0.16648850341796875,0.985982236328125
-0.19029998046875,0.138303115234375,1.0334151904296875
-0.24281919921875,0.17727247802734375,1.0722463134765625
-0.25886673828125,0.16354741943359374,1.0078554638671875
-0.1988100390625,0.0765403515625,0.9950756005859375
-0.30068759765624997,0.15570452880859376,1.0658563818359374
-0.30214646484375,0.20790876953125,1.138357529296875
-0.2488978125,0.14124419921875,1.2875378564453124
-0.42201671875,0.075559990234375,1.4010820263671875
-0.33618669921875,0.1495772705078125,1.278936025390625
-0.45168035156249997,0.03757098876953125,1.1538408251953125
-0.22434021484375,0.0037485229492187503,1.0594664501953126
-0.228473671875,0.09590248779296875,0.7515208984375
-0.074806328125,0.01747358154296875,0.7045794775390625
-0.3349709765625,-0.06242586669921875,0.7404614013671875
-0.16306779296875,0.1152646240234375,0.9650920751953125
-0.30409162109375,0.05276658935546875,1.0673309814453125
-0.48815203125,0.0003172583007812497,1.1290183984375
-0.113709453125,0.0535018603515625,1.03759322265625
-0.1317021484375,-0.0259074072265625,1.1690783544921874
-0.39940427734375,0.316728876953125,1.4222179541015625
-0.26129818359375,0.269671533203125,1.396903994140625
-0.39162365234375,0.26305409423828124,1.503075166015625
-0.4900971875,0.3662371240234375,1.3214536474609375
-0.34007701171875,0.024581201171875,1.039067822265625
-0.22385392578125,-0.0533575244140625,0.847369873046875
-0.1599069140625,0.0544822216796875,0.631586796875
-0.10228166015625,-0.04919098876953125,0.50083896484375
-0.189570546875,-0.1553151025390625,0.6060270703125
-0.32402947265625,-0.0219859619140625,0.699909912109375
-0.31673513671875,-0.0881603515625,0.86653966796875
-0.23309341796875,-0.2357047314453125,1.0019570654296874
-0.26859251953125,0.13536203125,1.2305200048828124
-0.2202067578125,0.17776265869140626,1.343818408203125
-0.3811684375,-0.00777072265625,1.4374554833984374
-0.43174250000000003,0.093206494140625,1.358564404296875
-0.436605390625,0.1054610107421875,1.0284998583984375
-0.37898013671874997,-0.0411030078125,0.7620888623046875
-0.11589775390625,-0.1043363134765625,0.595704873046875
-0.054868476562500004,-0.12712971435546874,0.5767808447265625
-0.19953947265625,-0.03522083984375,0.6151204345703125
-0.20537494140625,-0.1200220947265625,0.609467802734375
-0.14604767578125,-0.060710234375,0.8181236474609375
-0.37922328125,0.12433296630859375,1.0899415087890625
-0.15966376953125,-0.05899460205078125,1.2595204638671875
-0.0461152734375,-0.01438816162109375,1.6375094970703126
-0.59343361328125,0.2280061767578125,1.6360348974609376
-0.4273658984375,0.21354584716796876,1.27254609375
-0.3437241796875,0.0123266845703125,0.943710380859375
-0.50638787109375,0.0633054736328125,0.78789435546875
-0.25449013671875,-0.09526797119140624,0.5276275244140625
-0.1200312109375,-0.1273748046875,0.2813693896484375
-0.0295814453125,-0.0621807763671875,0.2504027978515625
-0.01037302734375,-0.0415931884765625,0.3777098974609375
-0.06532369140625,0.08168724853515624,0.73874103515625
-0.38724705078125,0.05668803466796875,1.097068740234375
-0.5559893554687501,0.08413815185546875,1.4177941552734374
-0.37314466796875,0.12874459228515625,1.3779799658203125
-0.24768208984375,0.13119549560546875,1.1722733203125
-0.21193984375,0.11379408203125,1.045949287109375
-0.33132380859375,0.2574170166015625,1.0722463134765625
-0.4001337109375,0.11845079833984375,1.06806828125
-0.32013916015625,-0.0072805419921875,1.091661875
-0.36220316406249997,-0.075415654296875,1.275003759765625
-0.23260712890625002,-0.1700205224609375,1.0230929931640624
-0.2464663671875,-0.06683749267578125,0.7232577392578124
-0.2133987109375,-0.0006631030273437505,0.54900921875
-0.18495080078125,-0.0925719775390625,0.5930014404296875
-0.4088869140625,0.0515411376953125,0.8643277685546875
-0.377278125,0.2635442749023438,1.0255506591796875
-0.240144609375,0.34001245849609374,1.1553154248046875
-0.26907880859375,0.39099124755859377,1.277952958984375
-0.220693046875,0.299082373046875,1.34430994140625
-0.40645546875,0.13462676025390624,1.374785
-0.362689453125,0.03168882080078125,1.331530078125
-0.294608984375,0.064776015625,1.16244265625
-0.38627447265625,0.02090484619140625,1.0447204541015624
-0.2464663671875,-0.02713285888671875,0.889641728515625
-0.15358515625,-0.023456503906250002,0.7045794775390625
-0.22750109375,0.0927163134765625,0.7928096875
-0.34153587890625,0.16550814208984374,0.983033037109375
-0.2143712890625,0.15521434814453125,1.08478041015625
-0.19856689453125,0.293200205078125,1.1931634814453125
-0.137051328125,0.12090170166015625,1.2963854541015625
-0.42274615234375,0.11158826904296874,1.392971728515625
-0.1958923046875,0.1133039013671875,1.422463720703125
-0.46894361328125,0.02752228515625,1.4423708154296875
-0.57641349609375,-0.228352021484375,1.2988431201171875
-0.2153438671875,-0.19820591064453125,0.899472392578125
0.031204687499999998,-0.068553125,0.62765453125
-0.015235917968750002,-0.1700205224609375,0.58046734375
-0.11103486328125,-0.226391298828125,0.7891231884765625
-0.11006228515625,-0.0523771630859375,1.15949345703125
-0.2474389453125,-0.0013983740234375002,1.5888477099609375
-0.48985404296875,0.09198104248046875,1.9442262158203125
-0.4978778125,0.177517568359375,1.54485548828125
-0.3466419140625,0.10962754638671875,1.0621698828125
-0.32354318359375,0.18045865234375,0.7635634619140625
-0.11881548828124999,-0.010711806640625,0.6613245556640625
-0.12465095703125,-0.04870080810546875,0.6814774169921874
-0.25059982421875,0.024091020507812498,0.7004014453125
-0.1560166015625,-0.08791526123046875,0.7355460693359375
-0.22190876953125,-0.00777072265625,0.7851909228515626
-0.3320532421875,-0.06487677001953125,0.8328696435546875
-0.24306234375,-0.0298288525390625,0.7566819970703125
-0.2853694921875,0.08266760986328126,0.8500733056640625
-0.2036729296875,0.122617333984375,0.92355751953125
-0.35588140625,0.0044837939453125,0.965829375
-0.35272052734375,0.0255615625,1.12017080078125
-0.21193984375,0.0922261328125,1.1100943701171875
-0.21558701171875,-0.0063001806640625,0.9193794873046874
-0.100093359375,-0.073454931640625,0.86457353515625
-0.2435486328125,0.0221302978515625,1.002694365234375
-0.4896108984375,-0.00997653564453125,0.9183964208984375
-0.41934212890625,-0.00360418701171875,0.7611057958984375
-0.190543125,-0.020515419921875,0.694994580078125
-0.3009307421875,0.0927163134765625,0.6411716943359375
-0.27540056640625,0.0172284912109375,0.4588128759765625
-0.11006228515625,-0.0298288525390625,0.3605062353515625
-0.11492517578125,0.0059543359375,0.3742691650390625
-0.2396583203125,0.09002031982421875,0.61880693359375
-0.23819945312500002,0.057913486328125,0.8812856640625
-0.33083751953125,0.09051050048828126,1.188493916015625
-0.442440859375,0.1015395654296875,1.5018463330078125
-0.4059691796875,0.0682072802734375,1.5116769970703126
-0.24573693359375,0.0515411376953125,1.074458212890625
-0.3106565234375,0.1250682373046875,0.8407341748046875
-0.300444453125,0.13732275390625,0.73087650390625
-0.21947732421875,0.04247279541015625,0.7488174658203125
-0.2192341796875,0.0603643896484375,0.8984893261718749
-0.2464663671875,0.0878145068359375,0.9326508837890625
-0.2022140625,-0.0043394580078125,0.7984623193359375
-0.2338228515625,0.03659062744140625,0.814928681640625
-0.24695265625,0.077520712890625,0.9756600390625
-0.325731484375,0.148106728515625,1.1150097021484375
-0.31770771484375,0.1182057080078125,1.208155244140625
-0.30555048828125,0.16060633544921876,1.2177401416015625
-0.3500459375,0.008895419921875,1.095102607421875
-0.22968939453125,0.16697868408203126,1.052830751953125
-0.299471875,0.03144373046875,0.9375662158203125
-0.21753216796875,0.1471263671875,0.995812900390625
-0.25740787109375,0.03144373046875,0.9542783447265625
-0.205131796875,0.0564429443359375,0.850319072265625
-0.205131796875,0.02237538818359375,0.74070716796875
-0.1141957421875,-0.07051384765625,0.7257154052734375
-0.21072412109375,-0.1004148681640625,0.8466325732421875
-0.25108611328125,0.03928662109375,0.9945840673828125
-0.35904228515625003,0.15080272216796875,1.0739666796875
-0.368524921875,0.032424091796875,1.1445016943359374
-0.39454138671875,0.14835181884765625,1.2865547900390626
-0.3072525,0.138303115234375,1.23027423828125
-0.26518849609375,0.14884199951171875,1.1499085595703125
-0.2581373046875,0.1035002880859375,1.1290183984375
-0.26761994140625,0.07727562255859374,1.0958399072265625
-0.21607330078125,0.06011929931640625,0.9763973388671875
-0.2814791796875,0.04320806640625,0.9228202197265625
-0.22361078125,-0.042328459472656246,0.9324051171875
-0.28512634765625,-0.02909358154296875,0.953541044921875
-0.2104809765625,-0.004829638671875,0.8707177001953125
-0.216802734375,0.03928662109375,0.8537598046875
-0.288773515625,0.1652630517578125,1.00810123046875
-0.3466419140625,0.04320806640625,1.1415524951171876
-0.23260712890625002,0.03757098876953125,1.201273779296875
-0.27442798828125,0.07531489990234375,1.2300284716796874
-0.23941517578125,-0.0327699365234375,1.076424345703125
-0.22701480468750002,0.085363603515625,0.988931435546875
-0.21023783203125002,0.09345158447265625,1.00515203125
-0.335457265625,-0.0023787353515625003,0.9857364697265625
-0.30944080078125,-0.01732924560546875,0.9206083203125
-0.2182616015625,-0.08938580322265625,0.843437607421875
-0.15820490234375,-0.0464949951171875,0.8363103759765624
-0.1988100390625,-0.025662316894531252,0.7928096875
-0.37508982421875,0.0054641552734375,0.8259881787109375
-0.20804953125,0.153988896484375,0.9518206787109375
-0.32840607421875,0.07850107421875,1.1105859033203125
-0.257651015625,0.07825598388671876,1.21454517578125
-0.20926525390625,0.10521592041015625,1.18505318359375
-0.3145468359375,0.09639266845703125,1.0402966552734374
-0.3048210546875,-0.0175743359375,0.8299204443359375
-0.18203306640625,-0.112669384765625,0.77019916015625
-0.2104809765625,-0.0504164404296875,0.8505648388671875
-0.2542469921875,-0.01830960693359375,0.969761640625
-0.27977716796875,0.29393547607421877,1.049881552734375
-0.41934212890625,0.114774443359375,1.092153408203125
-0.30530734375,0.00570924560546875,1.027271025390625
-0.22093619140625,0.195164072265625,0.8741584326171875
-0.2027003515625,0.07825598388671876,0.8225474462890625
-0.23163455078125,0.05962911865234375,0.7475886328125
-0.277102578125,-0.0038492773437499997,0.5964421728515625
-0.230418828125,-0.063651318359375,0.5195172265625
-0.16015005859375,-0.0710040283203125,0.499364365234375
-0.2240970703125,-0.004829638671875,0.659604189453125
-0.27588685546875,0.0750698095703125,0.846386806640625
-0.28707150390625,0.101049384765625,1.031203291015625
-0.3252451953125,-0.05850442138671875,1.1703071875
-0.30846822265625,-0.05703387939453125,1.1852989501953124
-0.23601115234375,-0.09232688720703125,1.0437373876953124
-0.0597313671875,-0.01095689697265625,0.921099853515625
-0.09936392578125,-0.0661022216796875,0.829674677734375
-0.08234380859375,0.01306195556640625,0.7964961865234375
-0.3806821484375,-0.0670825830078125,0.95108337890625
-0.30214646484375,0.130460224609375,1.093136474609375
-0.39259623046875003,0.2255552734375,1.2364184033203125
-0.37533296875,0.2034971435546875,1.1164843017578125
-0.35806970703125,0.127519140625,0.8576920703124999
-0.302389609375,-0.0092412646484375,0.6800028173828125
-0.12854126953125,-0.15212892822265625,0.5222206591796875
-0.018396796875,-0.07958218994140626,0.5227121923828125
-0.0422249609375,0.04247279541015625,0.6067643701171875
-0.2095083984375,0.11747043701171875,0.64043439453125
-0.1939471484375,0.1549692578125,0.647807392578125
-0.29242068359375,0.13805802490234376,0.7507835986328125
-0.3699837890625,0.17335103271484376,0.8717007666015625
-0.205131796875,0.19982078857421876,0.988931435546875
-0.267376796875,0.1946738916015625,1.0830600439453124
-0.22774423828125,0.1510478125,1.0442289208984374
-0.115654609375,-0.0455146337890625,1.197833046875
-0.25643529296875,0.036345537109375,1.3209621142578125
-0.40718490234375,0.1897720849609375,1.2998261865234375
-0.3923530859375,0.30668017333984376,1.14573052734375
-0.21607330078125,0.17629211669921874,1.0216183935546874
-0.3553951171875,0.08242251953125,1.103950205078125
-0.4147223828125,0.069677822265625,1.16932412109375
-0.290718671875,0.0329142724609375,0.820335546875
-0.26859251953125,0.0917359521484375,0.6040609375
-0.070916015625,0.05472731201171875,0.5846453759765625
-0.004051269531250002,0.00178780029296875,0.822793212890625
-0.3009307421875,0.0819323388671875,1.083305810546875
-0.43636224609375,0.14099910888671874,1.333004677734375
-0.36755234375,0.028502646484374998,1.25681703125
-0.33861814453125,0.0142874072265625,0.904387724609375
-0.27613,0.024091020507812498,0.6583753564453125
-0.18203306640625,-0.08497417724609375,0.54212775390625
-0.14361623046875,0.05570767333984375,0.615366201171875
-0.2484115234375,0.09345158447265625,0.765775361328125
-0.27199654296875,0.02678701416015625,1.016948828125
-0.257651015625,0.130460224609375,1.2673849951171876
-0.56085224609375,0.15423398681640624,1.2059433447265624
-0.2202067578125,0.14148928955078124,1.1014925390624999
-0.1326747265625,0.17506666503906249,1.0461950537109375
-0.28464005859375,-0.0004180126953125,1.0820769775390624
-0.12221951171875,0.06158984130859375,1.0078554638671875
-0.442440859375,0.11379408203125,0.993846767578125
-0.423961875,0.10202974609375,1.0599579833984376
-0.30992708984375,-0.013652890625,1.037101689453125
-0.23990146484375,0.07065818359375,1.2482152001953124
-0.2766162890625,-0.01781942626953125,1.352666005859375
-0.44219771484375,0.179478291015625,1.2359268701171875
-0.20488865234375,-0.05899460205078125,0.99433830078125
-0.05243703125,0.057668395996093746,1.0157199951171876
-0.45192349609375,0.053992041015625,1.284834423828125
-0.300444453125,0.04737460205078125,1.3838783642578125
-0.4234755859375,0.187321181640625,1.2319946044921875
-0.21072412109375,0.0142874072265625,1.2226554736328126
-0.56279740234375,-0.03448556884765625,1.2324861376953125
-0.44462916015625,-0.13252170166015625,0.9626344091796875
-0.24622322265625,-0.10580685546875,0.54212775390625
-0.11978806640625,-0.07958218994140626,0.3487094384765625
-0.01474962890625,-0.13056097900390626,0.4711012060546875
0.0268280859375,-0.1562954638671875,0.76626689453125
-0.2688356640625,0.0035034326171875,1.2172486083984375
-0.5644994140625,0.136342392578125,1.4040312255859375
-0.473563359375,0.17384121337890626,1.4305740185546876
-0.377278125,0.0270321044921875,1.38264953125
-0.33715927734375,0.08217742919921875,1.2472321337890624
-0.2566784375,-0.0386521044921875,0.9852449365234375
-0.109819140625,-0.011201987304687501,0.7733941259765625
-0.2007551953125,-0.11977700439453125,0.675333251953125
-0.2668905078125,-0.24428289306640624,0.7262069384765625
-0.27151025390625,-0.00507472900390625,0.7529954980468749
-0.16452666015625,0.05325677001953125,0.760860029296875
-0.20099833984375,0.06649164794921875,0.929947451171875
-0.2454937890625,0.17653720703125,1.1014925390624999
-0.2814791796875,0.0535018603515625,1.081339677734375
-0.22701480468750002,0.15325362548828125,1.0284998583984375
-0.16209521484375,0.2593777392578125,1.0545511181640626
-0.2610550390625,0.06060947998046875,1.212087509765625
-0.31624884765625,0.07237381591796875,1.355123671875
-0.475508515625,0.14590091552734374,1.3543863720703124
-0.47234763671875,-0.0097314453125,1.099034873046875
-0.22750109375,-0.01732924560546875,0.868014267578125
-0.24670951171875,-0.03840701416015625,0.6790197509765625
-0.177899609375,-0.09012107421875,0.5391785546875
-0.1443456640625,0.03266918212890625,0.5320513232421875
-0.21996361328125,-0.018554697265625,0.650756591796875
-0.25886673828125,0.04247279541015625,0.792318154296875
-0.252788125,0.1515379931640625,0.944693447265625
-0.40475345703125,0.10325519775390625,1.0476696533203125
-0.3874901953125,0.0799716162109375,1.1002637060546876
-0.2182616015625,0.10325519775390625,0.93338818359375
-0.23357970703125,0.07825598388671876,0.773148359375
-0.16793068359375,-0.05213207275390625,0.8014115185546875
-0.18932740234375,0.04982550537109375,1.041033955078125
-0.4079143359375,-0.03497574951171875,1.0683140478515625
-0.31235853515625,0.04443351806640625,0.9965502001953125
-0.27053767578125,-0.0033590966796874996,0.7606142626953125
-0.221665625,-0.0161037939453125,0.6768078515625
-0.19078626953125,-0.036201201171875,0.5939845068359375
-0.16063634765625,0.042227705078125,0.57948427734375
-0.22823052734375,0.09982393310546875,0.55589068359375
-0.12756869140625,0.0010525292968750002,0.8269712451171874
-0.35952857421875,0.127519140625,1.15162892578125
-0.39575710937499997,0.2554562939453125,1.2954023876953125
-0.273212265625,0.23217271240234374,1.347750673828125
-0.502740703125,0.01306195556640625,1.2718087939453124
-0.269321953125,-0.0190448779296875,0.96877857421875
-0.16136578125,-0.012672529296875,0.7475886328125
-0.2192341796875,-0.05997496337890625,0.6313410302734375
-0.1112780078125,-0.17810850341796874,0.5902980078125
0.0389853125,0.0770305322265625,0.763809228515625
-0.2411171875,-0.0425735498046875,0.9820499707031249
-0.46116298828125,-0.0001729223632812504,1.0963314404296876
-0.42080099609375,0.183399736328125,1.0673309814453125
-0.30603677734375,0.1868310009765625,1.0663479150390625
-0.31916658203125,0.21844765380859374,1.0437373876953124
-0.34104958984375,0.011346323242187501,0.9188879541015624
-0.1988100390625,-0.03448556884765625,0.8989808593749999
-0.21412814453125,0.05129604736328125,0.930438984375
-0.2902323828125,0.13217585693359374,1.0235845263671874
-0.24038775390625,0.06796218994140625,1.0501273193359375
-0.33108066406250003,0.106931552734375,1.1715360205078125
-0.337402421875,0.16109651611328124,1.03759322265625
-0.277102578125,-0.09134652587890625,0.91569298828125
-0.25108611328125,0.0008074389648437498,0.9341254833984375
-0.26372962890625,0.16207687744140625,0.94911724609375
-0.08307324218750001,0.0064445166015625,1.0604495166015624
-0.15528716796875,0.08217742919921875,1.4109126904296876
-0.51659994140625,0.0505607763671875,1.5989241406249999
-0.37606240234375,-0.0180645166015625,1.4910326025390626
-0.469673046875,0.0054641552734375,0.9960586669921875
-0.2581373046875,-0.13742350830078126,0.7208000732421875
-0.144831953125,-0.09428760986328125,0.8166490478515624
-0.32475890625,-0.06732767333984375,0.988931435546875
-0.3991611328125,0.15374380615234376,0.9953213671875
-0.3806821484375,0.1368325732421875,0.7989538525390625
-0.15358515625,-0.00948635498046875,0.66599412109375
-0.10301109375,-0.044534272460937496,0.642892060546875
-0.2445212109375,0.17482157470703125,0.718096640625
-0.15139685546875,0.06624655761718751,0.7783094580078125
-0.26810623046875,0.11943115966796874,1.015474228515625
-0.329621796875,0.10962754638671875,1.1002637060546876
-0.3349709765625,0.08266760986328126,1.2666476953124999
-0.2980130078125,-0.01953505859375,1.402802392578125
-0.40694175781249997,0.018699033203125,1.4593287109375
-0.32986494140625,-0.02419177490234375,1.396903994140625
-0.35709712890625,-0.22418548583984374,1.1204165673828126
-0.34056330078125,0.0182088525390625,0.7724110595703125
0.0025136328124999996,0.00325834228515625,0.582925009765625
-0.185680234375,-0.08007237060546875,0.689096181640625
-0.33375525390625,0.09688284912109375,0.897506259765625
-0.28901666015625,0.0564429443359375,1.0425085546875
-0.060947089843749996,0.07065818359375,1.1641630224609374
-0.23649744140625,0.114774443359375,1.2010280126953126
-0.317950859375,0.0020328906249999995,1.0722463134765625
-0.45095091796875,0.04198261474609375,1.0346440234375
-0.30627992187499997,0.020659755859375,1.0629071826171874
-0.234309140625,-0.06046514404296875,1.1327048974609375
-0.23552486328125,0.01747358154296875,1.1961126806640625
-0.111764296875,0.0686974609375,1.1911973486328125
-0.361716875,0.17482157470703125,0.9906518017578125
-0.317950859375,0.20080114990234374,0.875878798828125
-0.28609892578125,0.161831787109375,0.805098017578125
-0.25692158203125,0.05423713134765625,0.964354775390625
-0.17279357421875,0.0373258984375,1.16244265625
-0.28391062499999997,0.0760501708984375,1.294665087890625
-0.30409162109375,-0.087179990234375,1.1386032958984376
-0.31308796875,-0.17761832275390624,0.8576920703124999
-0.26324333984375,-0.045024453125,0.6355190625
-0.097175625,-0.02272123291015625,0.6564092236328125
-0.234309140625,0.10374537841796876,0.8476156396484374
-0.36828177734375,0.09590248779296875,0.9972875
-0.43149935546875,0.0584036669921875,0.9559987109375
-0.2921775390625,-0.0366913818359375,0.83901380859375
-0.21947732421875,0.016738310546875,0.8879213623046875
-0.19224513671875,0.038306259765625,0.93338818359375
-0.2328502734375,0.19614443359375,1.0378389892578126
-0.284883203125,0.259867919921875,1.020389560546875
-0.2172890234375,0.03168882080078125,1.0098215966796875
-0.27272597656249997,0.06747200927734374,1.0280083251953125
-0.2172890234375,0.04002189208984375,0.9832788037109375
-0.31624884765625,-0.0013983740234375002,0.938795048828125
-0.286828359375,-0.02149578125,0.9213456201171875
-0.30895451171875,-0.05605351806640625,0.8746499658203125
-0.30700935546875,0.10815700439453126,0.949608779296875
-0.28804408203125,0.0221302978515625,0.9252778857421875
-0.20464550781250002,0.12335260498046875,0.972219306640625
-0.242089765625,0.08217742919921875,1.0801108447265624
-0.36244630859375,0.09443194580078125,1.2496897998046874
-0.3281629296875,0.024091020507812498,1.2324861376953125
-0.28074974609375003,-0.08203309326171875,1.028254091796875
-0.2328502734375,-0.09673851318359375,0.8844806298828125
-0.21655958984375,-0.1102184814453125,0.7298934375
-0.2581373046875,-0.1033559521484375,0.579975810546875
-0.16306779296875,-0.0724745703125,0.54212775390625
-0.21121041015625,0.12433296630859375,0.772656826171875
-0.33083751953125,0.13217585693359374,1.087238076171875
-0.30798193359375,0.09198104248046875,1.2745122265625
-0.4434134375,0.140263837890625,1.332021611328125
-0.2114535546875,0.13070531494140625,1.1666206884765624
-0.25400384765625,0.16354741943359374,1.1056705712890624
-0.30871136718750003,0.10374537841796876,1.133442197265625
-0.31722142578125,0.083402880859375,1.1966042138671875
-0.44608802734374997,-0.00213364501953125,1.1017383056640626
-0.27685943359375,-0.08546435791015625,0.8952943603515625
-0.201241484375,-0.12909043701171874,0.7035964111328125
-0.16258150390625,-0.1249239013671875,0.6492819921874999
-0.15528716796875,-0.04526954345703125,0.8009199853515625
-0.34299474609375,0.024091020507812498,1.1002637060546876
-0.43879369140625,-0.0018885546875000003,1.236664169921875
-0.31576255859375,0.14099910888671874,1.2560797314453125
-0.2980130078125,0.08707923583984375,1.0894499755859375
-0.23163455078125,0.00816014892578125,1.0629071826171874
-0.2630001953125,0.08903995849609375,1.1513831591796875
-0.452166640625,0.038306259765625,1.2103671435546874
-0.37606240234375,0.0093856005859375,1.0879753759765625
-0.30871136718750003,-0.04968116943359375,0.85277673828125
-0.26956509765625,0.023845930175781252,0.62273919921875
-0.15577345703125,-0.042328459472656246,0.552449951171875
-0.0821006640625,-0.01732924560546875,0.644858193359375
-0.1929745703125,0.0966377587890625,0.883743330078125
-0.33253953125,0.15325362548828125,1.1621968896484376
-0.20586123046875,0.15129290283203126,1.3531575390625
-0.34737134765625,0.20790876953125,1.3391488427734375
-0.314060546875,0.05031568603515625,1.2265877392578124
-0.21607330078125,0.077520712890625,1.286800556640625
-0.3369161328125,-0.09796396484375,1.2098756103515624
-0.36439146484375,0.06649164794921875,1.17522251953125
-0.28318119140625,-0.01978014892578125,1.0582376171875
-0.34032015625,-0.02370159423828125,0.9626344091796875
-0.0937716015625,-0.04036773681640625,0.805098017578125
-0.07164544921875,-0.0219859619140625,0.7751144921875
-0.1161408984375,-0.06659240234375,0.946659580078125
-0.298499296875,0.14908708984375,1.13196759765625
-0.29922873046875,0.09149086181640625,1.0702801806640625
-0.111764296875,0.136342392578125,0.961897109375
-0.172064140625,0.1941837109375,1.118696201171875
-0.33375525390625,0.14418528320312501,1.3450472412109375
-0.2532744140625,0.18756627197265624,1.4241840869140625
-0.49277177734375,0.181439013671875,1.306461884765625
-0.32159802734375,0.01453249755859375,1.0973145068359376
-0.22677166015625,-0.0411030078125,0.9272440185546875
-0.23552486328125,0.0030132519531249997,0.7940385205078125
-0.19419029296875,-0.096983603515625,0.702859111328125
-0.16258150390625,0.03144373046875,0.702859111328125
-0.2124261328125,7.216796875000007e-05,0.729401904296875
-0.2036729296875,-0.05115171142578125,0.7876485888671875
-0.201241484375,0.10619628173828125,0.7952673535156249
-0.2756437109375,0.06011929931640625,0.8520394384765625
-0.2411171875,0.0152677685546875,0.8500733056640625
-0.300444453125,0.05031568603515625,0.863098935546875
-0.20051205078125,0.0721287255859375,0.8893959619140624
-0.37314466796875,-0.06928839599609375,0.8726838330078125
-0.30506419921875,-0.0180645166015625,0.92748978515625
-0.30603677734375,-0.0175743359375,0.80165728515625
-0.24573693359375,-0.04085791748046875,0.8053437841796875
-0.15869119140625,0.0397768017578125,0.8144371484375
-0.22044990234375,-0.077376376953125,0.722520439453125
-0.16355408203125,0.0691876416015625,0.807064150390625
-0.33035123046875,-0.047965537109375,0.7188339404296875
-0.16404037109375,-0.05311243408203125,0.7114609423828124
-0.24330548828125,0.03659062744140625,0.735300302734375
-0.3223274609375,-0.020515419921875,0.8225474462890625
-0.24914095703125,0.040266982421875,1.0152284619140626
-0.378250703125,0.06453092529296875,0.9970417333984375
-0.31746457031249997,-0.01978014892578125,0.8687515673828125
-0.205131796875,0.03536517578125,0.8618701025390625
-0.26129818359375,-0.00654527099609375,0.8687515673828125
-0.25497642578125,0.01306195556640625,0.9439561474609375
-0.34250845703125,0.00816014892578125,0.9021758251953125
-0.24962724609375,0.04688442138671875,0.9360916162109375
-0.20488865234375,0.06551128662109375,0.9149556884765625
-0.31284482421875,0.01551285888671875,0.871946533203125
-0.268349375,0.08021670654296875,0.8766160986328125
-0.206104375,-0.0001729223632812504,0.78986048828125
-0.2289599609375,0.015022678222656249,0.7040879443359375
-0.1112780078125,0.06796218994140625,0.6689433203125
-0.23406599609375,0.00619942626953125,0.7493089990234375
-0.2902323828125,-0.02076051025390625,0.9198710205078124
-0.280992890625,-0.0680629443359375,1.0110504296875
-0.33570041015625,-0.0886505322265625,0.9793465380859375
-0.29825615234375,-0.05090662109375,0.868014267578125
-0.1890842578125,0.018699033203125,0.8567090039062499
-0.23309341796875,-0.0308092138671875,0.8584293701171875
-0.21996361328125,0.1642826904296875,0.99237216796875
-0.29533841796875,0.04688442138671875,1.1091113037109375
-0.3670660546875,0.0672269189453125,1.19488384765625
-0.22361078125,0.1358522119140625,1.082322744140625
-0.25935302734375,0.04100225341796875,0.90389619140625
-0.20245720703125,0.00987578125,0.78789435546875
-0.1725504296875,0.08953013916015624,0.766758427734375
-0.17522501953125,0.04933532470703125,0.641908994140625
-0.18081734375,0.004973974609375,0.7517666650390625
-0.20804953125,0.022620478515625,0.964354775390625
-0.1336473046875,-0.10262068115234375,1.0589749169921876
-0.29582470703125,-0.048455717773437504,1.192426181640625
-0.4575158203125,0.27285770751953126,1.1794005517578126
-0.24865466796875,0.096147578125,1.1268064990234374
-0.39989056640625,0.2378097900390625,1.1774344189453125
-0.304334765625,0.31060161865234376,1.228799638671875
-0.1112780078125,0.11943115966796874,1.2246216064453126
-0.29242068359375,0.1035002880859375,1.2536220654296875
-0.14458880859375,0.0760501708984375,1.05725455078125
-0.24719580078125,0.08242251953125,0.8879213623046875
-0.39162365234375,0.1079119140625,0.9203625537109374
-0.269321953125,0.0162481298828125,0.8191067138671875
-0.22288134765625,-0.02664267822265625,0.8240220458984375
-0.2591098828125,0.083402880859375,1.0503730859375
-0.40767119140625,-0.06879821533203125,1.238630302734375
-0.2668905078125,0.08168724853515624,1.39837859375
-0.35806970703125,0.11796061767578125,1.2511643994140624
-0.32743349609375,-0.042083369140625,1.1189419677734376
-0.1866528125,0.0338946337890625,1.062661416015625
-0.29193439453125003,0.04443351806640625,1.019406494140625
-0.30020130859375,-0.036201201171875,1.1056705712890624
-0.3651208984375,-0.151883837890625,1.05332228515625
-0.30603677734375,-0.13546278564453124,0.9449392138671875
-0.25254498046875,-0.081297822265625,0.78592822265625
-0.2099946875,-0.02076051025390625,0.6497735253906249
-0.0451426953125,-0.083258544921875,0.638959794921875
-0.33375525390625,-0.015368522949218751,0.8692431005859375
-0.50201126953125,0.138303115234375,1.06905134765625
-0.30263275390625,0.1079119140625,1.11230626953125
-0.25400384765625,0.1456558251953125,1.1066536376953124
-0.0752926171875,0.10227483642578125,1.001711298828125
-0.058272500000000005,0.02090484619140625,1.00023669921875
-0.32548833984375003,0.09247122314453125,1.0555341845703126
-0.29825615234375,-0.0254172265625,1.0896957421875
-0.32500205078125,-0.08105273193359375,1.2349438037109375
-0.38967849609375,0.0231106591796875,1.3583186376953125
-0.35466568359375,-0.179333955078125,1.240596435546875
-0.16063634765625,-0.05899460205078125,1.1690783544921874
-0.2805066015625,0.02360083984375,1.0142453955078126
-0.335457265625,-0.0175743359375,0.925032119140625
-0.2921775390625,0.06109966064453125,0.901438525390625
-0.3320532421875,0.04737460205078125,0.81738634765625
-0.16647181640625,-0.02125069091796875,0.8259881787109375
-0.18300564453125,-0.08546435791015625,0.8136998486328125
-0.21364185546875,0.036345537109375,0.787402822265625
-0.1744955859375,-0.067572763671875,0.7434106005859376
-0.24525064453125,-0.11046357177734376,0.84491220703125
-0.2488978125,-0.07443529296875,1.0049062646484375
-0.40694175781249997,7.216796875000007e-05,1.0850261767578124
-0.33181009765625,-0.11095375244140625,1.0486527197265625
-0.22677166015625,-0.08056255126953125,0.9370746826171875
-0.1881116796875,-0.00262382568359375,0.825742412109375
-0.1900568359375,-0.06585713134765625,0.684180849609375
-0.17692703125,0.13854820556640626,0.7719195263671875
-0.35223423828125,0.187321181640625,0.9277355517578125
-0.24184662109375,0.17727247802734375,0.9921264013671875
-0.232363984375,0.14394019287109375,0.95698177734375
-0.214857578125,0.14884199951171875,0.97860923828125
-0.23844259765625,0.01747358154296875,0.9926179345703126
-0.2299325390625,-0.1729616064453125,0.9051250244140625
-0.27515742187500003,-0.0876701708984375,0.9311762841796875
-0.1501811328125,-0.12418863037109375,0.8943112939453125
-0.38238416015625,-0.1317864306640625,0.913235322265625
-0.35320681640625,0.06404074462890624,0.942727314453125
-0.29776986328125,-0.032279755859375,0.9115149560546875
-0.121490078125,0.1789881103515625,1.0520934521484375
-0.15577345703125,0.171635400390625,1.181612451171875
-0.30871136718750003,0.16697868408203126,1.1833328173828126
-0.34348103515625,-0.03595611083984375,1.165883388671875
-0.48450486328125,-0.0347306591796875,1.0014655322265624
-0.25643529296875,-0.13252170166015625,0.6986810791015625
-0.14945169921875,-0.1062970361328125,0.4725758056640625
-0.12319208984375,-0.08546435791015625,0.5841538427734375
-0.17911533203125,-0.159726728515625,0.8923451611328125
-0.45192349609375,0.022620478515625,1.2069264111328124
-0.34032015625,0.27040680419921875,1.2548508984375
-0.2892598046875,0.18952699462890624,1.0697886474609375
-0.21412814453125,0.0054641552734375,0.9459222802734375
-0.38043900390625,0.20423241455078125,0.93732044921875
-0.39065107421875,0.1093824560546875,0.9483799462890625
-0.2610550390625,-0.23594982177734375,0.9419900146484375
-0.30506419921875,0.0221302978515625,0.8279543115234375
-0.23139140625,-0.15016820556640625,0.6008659716796875
-0.14969484375,-0.19428446533203125,0.4789657373046875
-0.10106593750000001,-0.198941181640625,0.4644655078125
-0.09109701171875,-0.1474722119140625,0.4848641357421875
-0.113709453125,0.0003172583007812497,0.73087650390625
-0.41423609375,-0.0371815625,1.1445016943359374
-0.46310814453125,0.21305566650390625,1.261240830078125
-0.32475890625,0.3118270703125,1.3450472412109375
-0.26761994140625,0.29221984375,1.36986966796875
-0.1647698046875,0.2309472607421875,1.3204705810546875
-0.4400094140625,-0.08840544189453126,1.1803836181640626
-0.103983671875,-0.09918941650390625,1.2560797314453125
-0.45630009765625,-0.1822750390625,1.1427813281249999
-0.38724705078125,-0.0180645166015625,0.9606682763671874
-0.3111428125,-0.12467881103515625,0.7891231884765625
-0.34639876953125,-0.09085634521484375,0.6298664306640624
-0.10495625,0.0270321044921875,0.5679332470703125
-0.035903203125000005,0.034384814453125,0.520991826171875
-0.13437673828125,0.1593808837890625,0.62667146484375
-0.22920310546875,0.14908708984375,0.82131861328125
-0.3894353515625,0.1329111279296875,1.0992806396484376
-0.40572603515625,0.17825283935546876,1.329072412109375
-0.380195859375,0.09051050048828126,1.4463030810546875
-0.34639876953125,-0.0004180126953125,1.362496669921875
-0.29971501953125,-0.04870080810546875,1.3194875146484375
-0.40280830078125,-0.04968116943359375,1.23617263671875
-0.2955815625,-0.0464949951171875,1.0570087841796876
-0.380195859375,0.103010107421875,0.8780906982421874
-0.26275705078125,-0.08105273193359375,0.788385888671875
-0.17327986328125,-0.1425704052734375,0.8498275390625
-0.144831953125,0.010611052246093749,0.96681244140625
-0.24427806640625,0.10031411376953125,0.9562444775390625
-0.21193984375,0.04786478271484375,0.9695158740234375
-0.29290697265625,0.11771552734375,1.0216183935546874
-0.3699837890625,-0.00360418701171875,1.1400778955078126
-0.28901666015625,0.01600303955078125,1.2629611962890626
-0.38092529296875,0.0843832421875,1.3111314501953124
-0.3164919921875,-0.07835673828125,1.2312573046875
-0.34396732421875,0.07727562255859374,1.14671359375
-0.3033621875,-0.025662316894531252,0.9380577490234375
-0.20926525390625,-0.016593974609375,0.9191337207031249
-0.19662173828125,0.02360083984375,1.0348897900390626
-0.2143712890625,-0.0621807763671875,0.9798380712890625
-0.228473671875,-0.07860182861328124,1.01006736328125
-0.13948277343749999,-0.01487834228515625,1.043000087890625
-0.2610550390625,-0.1249239013671875,0.9970417333984375
-0.2542469921875,-0.01683906494140625,0.947642646484375
-0.28172232421875,-0.01438816162109375,0.936828916015625
-0.32086859375,0.00521906494140625,0.9891772021484375
-0.32281375,0.06281529296875,1.131476064453125
-0.34883021484375,-0.09722869384765626,0.987948369140625
-0.237226875,0.0093856005859375,0.9960586669921875
-0.24816837890625,0.057913486328125,1.0265337255859375
-0.23309341796875,-0.0011532836914062497,0.97860923828125
-0.1900568359375,0.03217900146484375,0.9980247998046875
-0.312115390625,0.05423713134765625,1.07298361328125
-0.2240970703125,-0.04036773681640625,1.0103131298828125
-0.29047552734375,-0.01291761962890625,0.9872110693359375
-0.2250696484375,0.06600146728515625,0.9100403564453124
-0.20537494140625,-0.0513968017578125,0.832623876953125
-0.2688356640625,-0.0651218603515625,0.8154202148437499
-0.26081189453125,-0.06879821533203125,0.88226873046875
-0.374360390625,-0.01389798095703125,0.9660751416015625
-0.29582470703125,-0.0631611376953125,0.9360916162109375
-0.2357680078125,0.0059543359375,0.833606943359375
-0.244034921875,0.05962911865234375,0.79969115234375
-0.195406015625,-0.0631611376953125,0.8481071728515625
-0.22968939453125,0.0221302978515625,0.947642646484375
-0.29509527343749997,-0.02958376220703125,0.9832788037109375
-0.31916658203125,-0.008751083984375,0.9835245703125
-0.24427806640625,0.012816865234374999,0.86064126953125
-0.18835482421875,0.0387964404296875,0.82721701171875
-0.226528515625,0.0368357177734375,0.9120064892578125
-0.27977716796875,0.019679394531249998,0.9159387548828125
-0.30846822265625,0.04149243408203125,0.979100771484375
-0.2785614453125,-0.00654527099609375,0.906845390625
-0.29922873046875,0.009140510253906251,0.8144371484375
-0.17668388671875,0.00963069091796875,0.8702261669921875
-0.37265837890625,-0.0317895751953125,0.903404658203125
-0.26154132812499997,0.01257177490234375,0.8778449316406249
-0.21753216796875,0.0378160791015625,0.8554801708984375
-0.29679728515625,0.022620478515625,0.89996392578125
-0.20391607421875,0.0280124658203125,0.9365831494140625
-0.29752671875000003,0.030708459472656248,0.9783634716796875
-0.20829267578125,0.04124734375,0.9980247998046875
-0.29631099609375,0.0137972265625,0.9088115234375
-0.23528171875,0.0270321044921875,0.93732044921875
-0.25789416015625,-0.0023787353515625003,0.977626171875
-0.352963671875,-0.05654369873046875,0.954032578125
-0.31770771484375,0.0003172583007812497,0.8903790283203125
-0.33229638671875,-0.030319033203124998,0.8141913818359375
-0.2474389453125,-0.0553182470703125,0.8984893261718749
-0.26664736328125,0.01649322021484375,1.004660498046875
-0.2873146484375,0.03119864013671875,1.09067880859375
-0.25497642578125,-0.0141430712890625,1.0501273193359375
-0.1813036328125,-0.01683906494140625,0.9953213671875
-0.31333111328125,0.0250713818359375,1.0230929931640624
-0.282938046875,-0.02664267822265625,1.0385762890625
-0.2766162890625,-0.00654527099609375,0.9419900146484375
-0.25594900390624997,-0.0092412646484375,0.9793465380859375
-0.26907880859375,0.01698340087890625,0.9238032861328125
-0.29290697265625,0.0069346972656249995,0.883251796875
-0.26640421875,0.0294830078125,0.965337841796875
-0.2347954296875,0.09198104248046875,1.0304659912109375
-0.2814791796875,0.06698182861328125,1.0167030615234376
-0.2328502734375,0.02360083984375,1.079865078125
-0.27345541015625,0.01600303955078125,1.08478041015625
-0.2211793359375,0.0446786083984375,1.071509013671875
-0.27151025390625,0.138303115234375,1.087238076171875
-0.24233291015625,0.08634396484375,1.0425085546875
-0.23357970703125,0.03119864013671875,1.1445016943359374
-0.3656071875,-0.05605351806640625,1.0629071826171874
-0.3155194140625,-0.051886982421875,1.024321826171875
-0.273212265625,-0.0999246875,0.9213456201171875
-0.2834243359375,-0.10507158447265624,0.9016842919921875
-0.2450075,-0.098944326171875,0.8884128955078126
-0.26032560546875,-0.10752248779296875,0.8623616357421875
-0.21315556640625,-0.091101435546875,0.91765912109375
-0.36220316406249997,-0.0464949951171875,0.9501003125
-0.214857578125,0.03168882080078125,0.9985163330078125
-0.19516287109375,-0.1023755908203125,0.984999169921875
-0.3252451953125,-0.02664267822265625,1.036118623046875
-0.27005138671875,-0.03889719482421875,1.066593681640625
-0.30311904296875003,-0.068553125,1.065610615234375
-0.21655958984375,0.04688442138671875,1.0796193115234376
-0.2805066015625,0.09247122314453125,0.9820499707031249
-0.253760703125,-0.02272123291015625,0.899472392578125
-0.20294349609375,0.16354741943359374,1.016948828125
-0.38967849609375,-0.00703545166015625,1.0511103857421875
-0.30360533203125,0.10668646240234375,1.064136015625
-0.23601115234375,0.04002189208984375,0.868014267578125
-0.29825615234375,-0.04281864013671875,0.871455
-0.329621796875,0.011346323242187501,0.979100771484375
-0.31381740234375,0.0059543359375,1.0039231982421875
-0.14361623046875,0.01257177490234375,1.0810939111328124
-0.2912049609375,-0.08056255126953125,1.0058893310546875
-0.1404553515625,-0.02223105224609375,0.9110234228515625
-0.28318119140625,-0.10164031982421876,0.9179048876953125
-0.27734572265625,-0.03105430419921875,0.9326508837890625
-0.2873146484375,-0.10262068115234375,0.8436833740234375
-0.27151025390625,0.00865032958984375,0.851793671875
-0.268349375,-0.09281706787109376,0.7807671240234375
-0.2099946875,-0.091101435546875,0.8205813134765625
-0.27637314453125,0.093206494140625,0.8889044287109376
-0.1229489453125,-0.03889719482421875,0.98254150390625
-0.40062,-0.03301502685546875,1.1420440283203126
-0.329621796875,-0.02762303955078125,1.12312
-0.22093619140625,0.01159141357421875,0.9193794873046874
-0.2717533984375,-0.0055649096679687505,0.8240220458984375
-0.28707150390625,0.05913893798828125,0.7539785644531249
-0.1560166015625,0.13462676025390624,0.79379275390625
-0.3189234375,-0.0180645166015625,0.8761245654296875
-0.249870390625,0.12874459228515625,1.040542421875
-0.2172890234375,-0.0298288525390625,1.0643817822265624
-0.3694975,0.03413972412109375,1.233714970703125
-0.32840607421875,0.0917359521484375,1.2727918603515624
-0.27272597656249997,-0.015368522949218751,1.1794005517578126
-0.3223274609375,-0.0268877685546875,1.0776531787109376
-0.2746711328125,0.03953171142578125,0.9677955078125
-0.2581373046875,-0.02762303955078125,0.7733941259765625
-0.19759431640625,-0.06830803466796875,0.6701721533203124
-0.20342978515625,0.14197947021484375,0.713672841796875
-0.2523018359375,0.0037485229492187503,0.84294607421875
-0.30944080078125,-0.05801424072265625,0.9749227392578125
-0.24914095703125,-0.0317895751953125,0.99630443359375
-0.32597462890625,0.0280124658203125,0.862115869140625
-0.2707808203125,0.0407571630859375,0.8279543115234375
-0.18543708984375,0.04002189208984375,0.8353273095703125
-0.24573693359375,-0.044534272460937496,0.9326508837890625
-0.21266927734375,0.0123266845703125,1.052830751953125
-0.38505875,0.07850107421875,1.121645400390625
-0.3962433984375,-0.09771887451171875,1.0742124462890625
-0.33132380859375,-0.11242429443359375,0.959439443359375
-0.28950294921874997,-0.04575972412109375,0.897506259765625
-0.2022140625,-0.0308092138671875,0.9186421875
-0.22093619140625,-0.022476142578125,1.0368559228515626
-0.37752126953125,-0.013162709960937501,1.087238076171875
-0.16890326171875,0.077520712890625,1.0191607275390624
-0.3553951171875,-0.00703545166015625,0.96681244140625
-0.2620276171875,0.05227640869140625,1.08281427734375
-0.28853037109375,0.0417375244140625,1.0240760595703124
-0.35199109375,-0.0974737841796875,0.9048792578125
-0.20440236328125,0.02972809814453125,0.9238032861328125
-0.30117388671875,-0.050661530761718754,0.85277673828125
-0.19662173828125,-0.1901179296875,0.8712092333984375
-0.3573402734375,-0.0553182470703125,0.89209939453125
-0.1958923046875,-0.01585870361328125,1.1464678271484374
-0.37508982421875,0.05129604736328125,1.311377216796875
-0.4487626171875,-0.01928996826171875,1.185544716796875
-0.237226875,-0.0170841552734375,1.0039231982421875
-0.40815748046875,-0.03154448486328125,0.94715111328125
-0.164283515625,-0.048455717773437504,0.925032119140625
-0.1803310546875,0.1289896826171875,0.96484630859375
-0.310170234375,0.016738310546875,0.9051250244140625
-0.2488978125,0.046149150390625,1.09067880859375
-0.23601115234375,-0.02149578125,1.2526389990234374
-0.393811953125,0.06453092529296875,1.239613369140625
-0.4166675390625,0.0466393310546875,1.1966042138671875
-0.26640421875,0.01845394287109375,1.10444173828125
-0.32086859375,-0.07173929931640625,1.0550426513671876
-0.31478998046875,0.01600303955078125,1.096085673828125
-0.2644590625,-0.0097314453125,1.0078554638671875
-0.2153438671875,0.05472731201171875,1.000728232421875
-0.43538966796875,0.08634396484375,1.0592206835937499
-0.20537494140625,-0.004829638671875,1.079373544921875
-0.2484115234375,0.02090484619140625,0.9400238818359374
-0.1696326953125,-0.12712971435546874,0.894557060546875
-0.27491427734375,-0.0739451123046875,0.9284728515625
-0.2022140625,-0.13399224365234375,0.9179048876953125
-0.2746711328125,-0.008996174316406251,1.001219765625
-0.19248828125,-0.029338671875,1.0963314404296876
-0.24865466796875,-0.0376717431640625,1.1946380810546875
-0.31576255859375,0.062080021972656246,1.255342431640625
-0.3651208984375,-0.00311400634765625,1.1985703466796875
-0.360744296875,-0.00801581298828125,1.1427813281249999
-0.4118046484375,0.06404074462890624,1.035135556640625
-0.119544921875,-0.03448556884765625,0.9793465380859375
-0.2357680078125,0.03561026611328125,1.1054248046875
-0.2411171875,0.05889384765625,1.12606919921875
-0.2736985546875,0.0995788427734375,1.040050888671875
-0.267376796875,-0.00801581298828125,0.9478884130859375
-0.27491427734375,0.010856142578125,0.9336339501953125
-0.2255559375,-0.0249270458984375,0.9080742236328125
-0.23892888671875,-0.0001729223632812504,1.0461950537109375
-0.43441708984375,-0.0009081933593750001,1.0609410498046874
-0.27880458984375,-0.14428603759765624,0.9972875
-0.37995271484375,0.0133070458984375,1.003677431640625
-0.2800203125,-0.03595611083984375,1.0014655322265624
-0.22628537109375,0.03119864013671875,1.0230929931640624
-0.31308796875,0.067717099609375,1.063644482421875
-0.21169669921875,-0.07860182861328124,1.0206353271484374
-0.255705859375,0.0103659619140625,0.9926179345703126
-0.2153438671875,0.01404231689453125,0.9287186181640625
-0.24622322265625,-0.02517213623046875,0.8372934423828124
-0.27151025390625,0.00570924560546875,0.7498005322265625
-0.27515742187500003,-0.12663953369140624,0.6642737548828125
-0.10276794921875,-0.0759058349609375,0.729401904296875
-0.282938046875,0.04149243408203125,0.938795048828125
-0.3967296875,-0.04330882080078125,1.023338759765625
-0.34032015625,-0.02517213623046875,1.095102607421875
-0.34688505859375,0.0054641552734375,1.0152284619140626
-0.25084296875,0.03364954345703125,0.946168046875
-0.111764296875,0.080461796875,1.0673309814453125
-0.3544225390625,-0.042328459472656246,1.010558896484375
-0.1647698046875,-0.06830803466796875,0.8643277685546875
-0.1725504296875,0.1946738916015625,0.9852449365234375
-0.37533296875,-0.1053166748046875,1.031203291015625
-0.1166271875,0.04443351806640625,1.174730986328125
-0.4098594921875,0.13854820556640626,1.247477900390625
-0.38821962890625,0.104970830078125,1.214053642578125
-0.341292734375,0.01575794921875,0.9547698779296875
-0.2532744140625,-0.02223105224609375,0.92552365234375
-0.16525609375,0.03708080810546875,0.9351085498046875
-0.175954453125,-0.004829638671875,0.8731753662109375
-0.2795340234375,-0.00801581298828125,0.9105318896484375
-0.27588685546875,-0.012672529296875,1.0466865869140625
-0.3019033203125,-0.03399538818359375,1.093136474609375
-0.36828177734375,-0.013407800292968751,1.0732293798828125
-0.26324333984375,0.0054641552734375,0.848352939453125
-0.2182616015625,-0.048945898437499996,0.702367578125
-0.16525609375,-0.0955130615234375,0.7129355419921874
-0.1628246484375,-0.11438501708984375,0.8537598046875
-0.3145468359375,0.00766996826171875,1.005643564453125
-0.30555048828125,0.03315936279296875,1.067576748046875
-0.24670951171875,0.01845394287109375,1.01399962890625
-0.29971501953125,0.0294830078125,1.0742124462890625
-0.25108611328125,0.04149243408203125,1.1405694287109376
-0.32743349609375,0.0623251123046875,1.1366371630859375
-0.38238416015625,0.0829127001953125,0.9704989404296875
-0.2153438671875,-0.01634888427734375,0.8564632373046875
-0.15334201171875,0.0584036669921875,0.9604225097656249
-0.30068759765624997,-0.012427438964843749,1.0914161083984375
-0.1793584765625,-0.0366913818359375,1.201273779296875
-0.372415234375,0.050070595703125,1.20274837890625
-0.22288134765625,0.04712951171875,1.1553154248046875
-0.2552195703125,0.0633054736328125,1.1754682861328125
-0.38700390625000003,0.0711483642578125,1.086255009765625
-0.36196001953125,0.06992291259765625,0.9813126708984374
-0.37460353515625,-0.063651318359375,0.9778719384765625
-0.34032015625,-0.07173929931640625,0.9832788037109375
-0.259596171875,-0.19207865234375,0.8122252490234375
-0.2221519140625,-0.10752248779296875,0.678773984375
-0.15577345703125,-0.07443529296875,0.6637822216796875
-0.1180860546875,-0.1038461328125,0.7121982421874999
-0.21023783203125002,-0.0082609033203125,0.9252778857421875
-0.32475890625,-0.03203466552734375,1.0727378466796875
-0.4137498046875,-0.0960032421875,1.1572815576171875
-0.4263933203125,-0.0013983740234375002,1.0919076416015625
-0.23309341796875,-0.02664267822265625,0.891607861328125
-0.1788721875,0.01404231689453125,0.81148794921875
-0.19710802734375,0.02360083984375,0.787402822265625
-0.25084296875,0.02286556884765625,0.8677685009765626
-0.24622322265625,-0.04968116943359375,0.9503460791015625
-0.174981875,-0.03203466552734375,0.8834975634765625
-0.32548833984375003,-0.14526639892578125,0.7026133447265624
-0.23552486328125,-0.096983603515625,0.526890224609375
-0.15091056640625,0.00472888427734375,0.46938083984375
-0.2056180859375,0.12041152099609376,0.5325428564453125
-0.29776986328125,0.0966377587890625,0.7394783349609375
-0.2240970703125,-0.01585870361328125,0.9277355517578125
-0.24695265625,0.07531489990234375,1.224867373046875
-0.3456693359375,0.1868310009765625,1.46031177734375
-0.5255962890625,0.17874302001953124,1.449498046875
-0.354908828125,0.25079957763671873,1.40526005859375
-0.4200715625,0.2610933715820313,1.322190947265625
-0.38043900390625,0.03953171142578125,1.24796943359375
-0.3028758984375,-0.04477936279296875,1.1400778955078126
-0.1248941015625,0.0221302978515625,1.030220224609375
-0.3262177734375,-0.06340622802734375,0.9287186181640625
-0.20197091796875,-0.1298257080078125,1.126560732421875
-0.2411171875,-0.034240478515625,1.35610673828125
-0.4390368359375,0.00570924560546875,1.367412001953125
-0.40086314453125,-0.0857094482421875,1.2260962060546876
-0.17473873046875,0.14295983154296876,1.388056396484375
-0.5401849609375,0.01894412353515625,1.3475049072265626
-0.33326896484375,-0.16928525146484374,1.2418252685546876
-0.0777240625,-0.04772044677734375,1.1970957470703125
-0.49325806640625003,-0.0788469189453125,1.1272980322265624
-0.44900576171875,0.030708459472656248,0.974185439453125
-0.29387955078125,-0.26241957763671875,0.8471241064453126
-0.24622322265625,-0.11561046875,0.80558955078125
-0.16015005859375,-0.15801109619140624,0.9390408154296875
-0.24865466796875,-0.1308060693359375,1.0289913916015625
-0.06532369140625,0.00791505859375,1.1872650830078124
-0.2279873828125,0.0985984814453125,1.1715360205078125
-0.0879361328125,-0.1979608203125,1.2123332763671875
-0.28974609375,-0.14575657958984375,1.437209716796875
-0.48207341796875003,-0.0254172265625,1.4600660107421874
-0.28123603515625,-0.0533575244140625,1.243545634765625
-0.5353220703125,0.04933532470703125,1.1779259521484375
-0.24379177734375002,0.0299731884765625,1.140323662109375
-0.1034973828125,-0.06830803466796875,1.1002637060546876
-0.374360390625,0.093206494140625,1.130492998046875
-0.15771861328125,0.104970830078125,1.07691587890625
-0.20804953125,-0.00409436767578125,1.234698037109375
-0.4400094140625,0.2868278564453125,1.4153364892578124
-0.2333365625,0.07678544189453125,1.3334962109375
-0.16355408203125,-0.04919098876953125,1.20864677734375
-0.31187224609374997,0.0897752294921875,1.075441279296875
-0.2620276171875,-0.09967959716796874,0.8943112939453125
-0.27685943359375,-0.1033559521484375,0.8043607177734375
-0.32086859375,-0.1406096826171875,0.626179931640625
-0.12756869140625,-0.09085634521484375,0.5394243212890625
-0.16209521484375,-0.17712814208984376,0.5232037255859375
-0.1404553515625,-0.23840072509765625,0.640925927734375
-0.296554140625,-0.04085791748046875,0.7743771923828124
-0.1676875390625,0.11550971435546875,0.8952943603515625
-0.1710915625,0.11649007568359375,1.072492080078125
-0.2785614453125,0.18364482666015625,1.2216724072265626
-0.35417939453125,0.15227326416015624,1.2850801904296876
-0.378250703125,0.16403760009765625,1.171781787109375
-0.245980078125,-0.01193725830078125,0.881777197265625
-0.17473873046875,-0.14526639892578125,0.59128107421875
-0.24695265625,-0.03497574951171875,0.450702578125
-0.175954453125,-0.09477779052734375,0.3988458251953125
-0.0879361328125,-0.16340308349609375,0.375497998046875
-0.11638404296875,-0.2053135302734375,0.45168564453125
-0.30944080078125,-0.06830803466796875,0.4499652783203125
-0.09352845703125,-0.0004180126953125,0.5143561279296875
-0.0013766796875,0.02041466552734375,0.8269712451171874
-0.3388612890625,0.15962597412109375,1.3710985009765624
-0.4487626171875,0.2882983984375,1.6871543505859374
-0.345183046875,0.15619470947265626,1.6810101855468749
-0.415208671875,0.07041309326171875,1.3450472412109375
-0.465782734375,0.0682072802734375,0.9980247998046875
-0.29874244140625,0.0069346972656249995,0.6598499560546875
-0.12854126953125,-0.0827683642578125,0.38287099609374997
-0.037848359375,-0.01438816162109375,0.318480146484375
-0.0067258593750000005,0.05497240234375,0.3727945654296875
-0.09936392578125,0.0956573974609375,0.6038151708984375
-0.33910443359375,0.080461796875,0.876861865234375
-0.4409819921875,0.140263837890625,1.2123332763671875
-0.500795546875,0.253005390625,1.5190499951171874
-0.35709712890625,0.14148928955078124,1.55075388671875
-0.24816837890625,0.01453249755859375,1.3637255029296875
-0.42031470703125,0.06845237060546874,1.2037314453125
-0.4176401171875,-0.1415900439453125,1.0142453955078126
-0.22093619140625,-0.2229600341796875,0.8259881787109375
-0.18689595703125,-0.1033559521484375,0.495432099609375
-0.175954453125,-0.126394443359375,0.442346513671875
-0.168173828125,-0.15556019287109374,0.43890578125
-0.0996070703125,-0.09134652587890625,0.4293208837890625
-0.2036729296875,0.11747043701171875,0.6399428613281251
-0.18495080078125,-0.03203466552734375,1.0427543212890624
-0.2445212109375,0.07874616455078125,1.5623049169921874
-0.6379290625,0.19148771728515626,1.951353447265625
-0.38432931640625,0.116735166015625,1.564025283203125
-0.17619759765625,-0.07811164794921875,1.1754682861328125
-0.18689595703125,-0.07566074462890625,1.13196759765625
-0.30457791015625,-0.0028689160156250004,1.2177401416015625
-0.3583128515625,0.00276816162109375,1.2801648583984375
-0.38870591796875,0.1079119140625,1.0226014599609374
-0.30068759765624997,-0.10188541015625,0.7104778759765625
-0.07456318359375,-0.15286419921875,0.7281730712890625
-0.026177421875,-0.0837487255859375,0.7232577392578124
-0.10374052734375,0.05570767333984375,0.894557060546875
-0.08720669921875,0.03610044677734375,1.119187734375
-0.316005703125,-0.0376717431640625,1.33644541015625
-0.3213548828125,0.06992291259765625,1.5210161279296874
-0.41545181640625,0.1417343798828125,1.646111328125
-0.53945552734375,0.0387964404296875,1.456871044921875
-0.38821962890625,0.142224560546875,1.3465218408203126
-0.29169125,-0.087179990234375,1.0948568408203125
-0.32475890625,-0.0376717431640625,1.016948828125
-0.26227076171875,-0.06732767333984375,0.9793465380859375
-0.140941640625,-0.20702916259765625,0.84294607421875
-0.0655668359375,-0.2268814794921875,0.749063232421875
-0.011588750000000002,-0.1249239013671875,0.651248125
0.024396640625,-0.1121792041015625,0.7158847412109375
-0.040766093749999996,-0.19330410400390624,1.0294829248046875
-0.477453671875,-0.08399381591796876,1.30105501953125
-0.6170186328125,0.03266918212890625,1.40722619140625
-0.5559893554687501,0.12874459228515625,1.2491982666015624
-0.3719289453125,0.0250713818359375,0.840488408203125
-0.24427806640625,-0.1092381201171875,0.6318325634765625
-0.19127255859375,-0.24134180908203126,0.6726298193359375
-0.18251935546875,-0.24134180908203126,0.6259341650390625
-0.23017568359375,-0.19232374267578126,0.4942032666015625
-0.18251935546875,-0.140119501953125,0.4848641357421875
-0.00842787109375,-0.0670825830078125,0.55785681640625
-0.066053125,0.1314405859375,0.63256986328125
-0.18786853515625002,0.2191829248046875,0.8372934423828124
-0.21169669921875,0.3005529150390625,1.115747001953125
-0.3690112109375,0.13315621826171875,1.2152824755859375
-0.33132380859375,0.01110123291015625,1.291715888671875
-0.2523018359375,-0.0121823486328125,1.3858444970703125
-0.64984314453125,0.07531489990234375,1.390022529296875
-0.62212466796875,-0.1278649853515625,1.2162655419921875
-0.2800203125,-0.08399381591796876,1.0157199951171876
-0.44997833984375,-0.095022880859375,0.9277355517578125
-0.33181009765625,-0.1759026904296875,0.755944697265625
-0.09085386718749999,0.03806116943359375,0.50673736328125
-0.13948277343749999,-0.04183827880859375,0.34551447265625
0.01734544921875,-0.0670825830078125,0.3523959375
0.065244921875,-0.016593974609375,0.3772183642578125
0.024396640625,0.0495804150390625,0.48707603515625
-0.06751199218750001,0.0946770361328125,0.7355460693359375
-0.3111428125,0.0417375244140625,0.924049052734375
-0.377278125,-0.18644157470703124,1.1041959716796874
-0.10811712890625,-0.22320512451171876,1.443108115234375
-0.30141703125,0.03806116943359375,1.57631361328125
-0.55428734375,-0.013652890625,1.24993556640625
-0.34493990234375,-0.01928996826171875,0.906845390625
-0.2999581640625,-0.2732035522460938,0.77806369140625
-0.13145900390625,-0.316584541015625,0.741198701171875
-0.24525064453125,-0.2058037109375,0.8087845166015625
-0.08623412109375,0.1672237744140625,0.68762158203125
0.016372871093749998,0.07188363525390624,0.4371854150390625
-0.1385101953125,0.04737460205078125,0.322412412109375
-0.06824142578125,-0.0009081933593750001,0.2548265966796875
0.005674511718750001,-0.126394443359375,0.5084577294921875
-0.0011335351562500005,-0.22712656982421875,1.06708521484375
-0.34931650390625,-0.08791526123046875,1.6021191064453124
-0.64376453125,-0.16340308349609375,1.6040852392578124
-0.49982296875,0.20080114990234374,1.4600660107421874
-0.2007551953125,0.19786006591796876,1.2796733251953125
-0.51757251953125,0.0221302978515625,0.9501003125
-0.47234763671875,0.153988896484375,0.77609755859375
-0.3203823046875,-0.0055649096679687505,0.482160703125
-0.0855046875,-0.089140712890625,0.318480146484375
0.012239414062499999,-0.024436865234375,0.229021103515625
0.008835390624999998,0.01649322021484375,0.1614352880859375
-0.019369375,0.0397768017578125,0.156274189453125
-0.03128345703125,0.0466393310546875,0.249665498046875
-0.07213173828125,0.06698182861328125,0.450702578125
-0.22823052734375,-0.00703545166015625,0.892590927734375
-0.446331171875,0.12163697265625,1.475549306640625
-0.68242451171875,0.23217271240234374,2.1139894958496095
-0.65373345703125,0.583387158203125,2.129718558349609
-0.73883404296875,0.5297123754882812,2.0833301123046875
-0.73737517578125,-0.037916833496093746,1.3440641748046875
-0.3578265625,-0.10727739746093751,0.87047193359375
-0.25011353515625,-0.07835673828125,0.5455684863281249
0.007133378906249998,-0.03938737548828125,0.342073740234375
0.059166308593749994,-0.04134809814453125,0.449227978515625
0.0608683203125,0.04296297607421875,0.759876962890625
-0.22288134765625,0.00619942626953125,1.16244265625
-0.51027818359375,0.06453092529296875,1.51732962890625
-0.568876015625,0.19687970458984375,1.83977541015625
-0.38335673828125,0.238299970703125,1.6463570947265624
-0.28196546875,0.199085517578125,1.411649990234375
-0.49763466796875,0.0133070458984375,1.419514521484375
-0.55890708984375,-0.08252327392578125,1.52126189453125
-0.4565432421875,-0.13791368896484374,1.2270792724609374
-0.34104958984375,-0.0857094482421875,0.887675595703125
-0.20780638671875,-0.18693175537109374,0.789368955078125
-0.0383346484375,-0.244037802734375,0.6824604833984375
-0.0004041015625000019,-0.2415868994140625,0.684180849609375
-0.08137123046875,-0.287173701171875,0.907336923828125
-0.03906408203125,-0.19869609130859375,1.214053642578125
-0.2279873828125,0.0329142724609375,1.5755763134765626
-0.51562736328125,-0.10605194580078126,1.5340417578125
-0.1171134765625,-0.13203152099609375,1.3863360302734375
-0.4905834765625,-0.08840544189453126,1.2108586767578124
-0.4667553125,-0.12811007568359375,1.113780869140625
-0.27734572265625,-0.03987755615234375,1.1155012353515625
-0.47866939453125,-0.0308092138671875,1.2010280126953126
-0.31041337890625,0.05129604736328125,1.2845886572265626
-0.32305689453124997,-0.0082609033203125,1.1970957470703125
-0.0305540234375,-0.00752563232421875,1.219952041015625
-0.1025248046875,0.191242626953125,1.1567900244140625
-0.1827625,0.1093824560546875,0.9820499707031249
-0.191515703125,0.1152646240234375,1.0565172509765626
-0.12854126953125,0.04737460205078125,1.347750673828125
-0.2882872265625,-0.0121823486328125,1.46621017578125
-0.36682291015625,0.033404453125,1.26959689453125
-0.421044140625,0.0564429443359375,1.06315294921875
-0.479398828125,-0.02223105224609375,0.8254966455078125
-0.37314466796875,-0.07811164794921875,0.665502587890625
-0.25205869140625,-0.10580685546875,0.7247323388671875
-0.2591098828125,-0.05874951171875,0.9591936767578125
-0.30871136718750003,0.06992291259765625,1.181612451171875
-0.3281629296875,-0.05556333740234375,1.0501273193359375
-0.15091056640625,0.01453249755859375,0.8535140380859375
-0.17692703125,-0.0778665576171875,0.6996641455078125
-0.1171134765625,-0.1915884716796875,0.548517685546875
-0.058272500000000005,-0.20506843994140625,0.46495704101562496
-0.10301109375,-0.09036616455078125,0.4465245458984375
-0.177899609375,-0.00262382568359375,0.442838046875
-0.1920019921875,-0.177373232421875,0.5998829052734375
-0.2435486328125,-0.07124911865234375,0.900455458984375
-0.3660934765625,0.07065818359375,1.3357081103515624
-0.587355,0.1784979296875,1.5647625830078125
-0.58905701171875,0.2522701196289063,1.500125966796875
-0.1968648828125,0.0456589697265625,1.1395863623046876
-0.068970859375,0.02139502685546875,1.1312302978515625
-0.3262177734375,-0.120512275390625,0.9365831494140625
-0.0879361328125,-0.04723026611328125,0.7448852001953125
-0.033958046875,-0.03987755615234375,0.7554531640625
-0.19127255859375,-0.11242429443359375,0.803131884765625
-0.240144609375,-0.11193411376953125,0.96288017578125
-0.5217059765625,0.0010525292968750002,1.04152548828125
-0.40718490234375,-0.0533575244140625,0.7964961865234375
-0.27248283203125,0.04835496337890625,0.479703037109375
-0.16720125,-0.022476142578125,0.31995474609374996
-0.070916015625,-0.10164031982421876,0.21771583984374998
-0.08866556640625001,-0.061690595703125004,0.25900462890625
-0.1064151171875,-0.12761989501953125,0.421702119140625
-0.1321884375,-0.14698203125,0.7242408056640625
-0.26324333984375,-0.09477779052734375,1.0992806396484376
-0.47477908203125,0.0030132519531249997,1.300071953125
-0.4745359375,-0.122472998046875,1.2629611962890626
-0.27102396484375,0.05325677001953125,1.1228742333984374
-0.04392697265625,0.0765403515625,0.9513291455078126
-0.14507509765624998,0.07825598388671876,1.05135615234375
-0.05243703125,-0.13007079833984375,1.1169758349609376
-0.038577792968749997,-0.1670794384765625,1.10444173828125
-0.37703498046875,-0.0151234326171875,1.0363643896484376
-0.51538421875,-0.02149578125,1.0383305224609374
-0.45532751953125,0.16991976806640624,1.097068740234375
-0.45727267578124997,0.261828642578125,1.238630302734375
-0.39843169921875,0.18217428466796876,1.342835341796875
-0.24525064453125,0.14246965087890626,1.5598472509765624
-0.32889236328125,0.11992134033203125,1.6905950830078125
