ax,ay,az
-0.18470765625,-0.0798272802734375,1.013508095703125
-0.18495080078125,-0.079337099609375,1.054796884765625
-0.13972591796875,-0.0562986083984375,1.10837400390625
-0.199296328125,-0.09624833251953124,1.0688055810546875
-0.21899103515625,-0.044044091796875,1.0240760595703124
-0.16720125,-0.07615092529296875,0.996795966796875
-0.209022109375,0.00791505859375,1.025304892578125
-0.195406015625,0.0799716162109375,1.0997721728515626
-0.22190876953125,-0.0435539111328125,1.058729150390625
-0.183735078125,0.03266918212890625,1.0103131298828125
-0.072861171875,-0.014633251953124999,0.9940925341796875
-0.11687033203125,-0.07664110595703125,1.022355693359375
-0.12708240234375,-0.0494360791015625,1.046932353515625
-0.190543125,-0.037916833496093746,1.068559814453125
-0.28269490234375,-0.0837487255859375,1.027271025390625
-0.220693046875,-0.08056255126953125,1.0427543212890624
-0.22385392578125,-0.08546435791015625,1.0191607275390624
-0.20829267578125,-0.10752248779296875,0.938795048828125
-0.112736875,-0.04306373046875,0.881777197265625
-0.1530988671875,-0.0210056005859375,0.9085657568359375
-0.28707150390625,-0.1210024560546875,0.9650920751953125
-0.21801845703125,-0.0464949951171875,1.0201437939453124
-0.21850474609375,-0.06389640869140625,1.0466865869140625
-0.22871681640625,-0.0945327001953125,0.985982236328125
-0.13389044921874999,-0.024436865234375,0.9631259423828125
-0.2347954296875,-0.0768861962890625,0.8594124365234375
-0.292663828125,-0.0317895751953125,0.812962548828125
-0.31770771484375,-0.10801266845703125,0.8043607177734375
-0.30214646484375,-0.1229631787109375,0.71907970703125
-0.13923962890625,-0.05556333740234375,0.692045380859375
-0.07991236328125,-0.044534272460937496,0.8043607177734375
-0.16647181640625,-0.10507158447265624,0.9213456201171875
-0.23212083984375,0.00276816162109375,1.1150097021484375
-0.24719580078125,-0.00948635498046875,1.13786599609375
-0.28998923828125,0.0270321044921875,1.0702801806640625
-0.2639727734375,0.09100068115234375,1.09854333984375
-0.2177753125,-0.0082609033203125,1.036118623046875
-0.29728357421875,-0.00409436767578125,1.0184234277343749
-0.24184662109375,0.0417375244140625,0.922082919921875
-0.16160892578125,-0.02419177490234375,0.9272440185546875
-0.1910294140625,-0.04526954345703125,0.9734481396484375
-0.32548833984375003,-0.04183827880859375,0.9395323486328125
-0.2163164453125,0.00178780029296875,0.8692431005859375
-0.21607330078125,-0.0011532836914062497,0.8783364648437499
-0.31624884765625,-0.0680629443359375,0.918150654296875
-0.1210037890625,0.07874616455078125,1.033169423828125
-0.2124261328125,-0.03546593017578125,1.1061621044921874
-0.3048210546875,0.0142874072265625,1.084288876953125
-0.24087404296875,-0.030319033203124998,0.9395323486328125
-0.25254498046875,-0.01879978759765625,0.81640328125
-0.2766162890625,-0.08252327392578125,0.8242678125
-0.185680234375,-0.06585713134765625,0.961897109375
-0.19516287109375,-0.14698203125,1.0589749169921876
-0.2124261328125,-0.15678564453125,1.1368829296875
-0.1297569921875,-0.11291447509765624,1.0992806396484376
-0.20440236328125,-0.1847259423828125,0.923065986328125
-0.26956509765625,-0.0866898095703125,0.91077765625
-0.33253953125,-0.08448399658203125,0.99827056640625
-0.329621796875,-0.071494208984375,1.0343982568359376
-0.29776986328125,-0.08938580322265625,1.1644087890625
-0.302389609375,-0.0028689160156250004,1.1838243505859376
-0.23139140625,-0.05090662109375,1.0171945947265626
-0.29047552734375,0.05619785400390625,0.9127437890625
-0.34542619140624997,0.06355056396484375,0.937811982421875
-0.39940427734375,-0.0474753564453125,0.914218388671875
-0.40378087890625003,-0.0023787353515625003,1.043983154296875
-0.362689453125,-0.0788469189453125,1.040542421875
-0.43004048828125,-0.03497574951171875,0.9641090087890625
-0.3359435546875,0.01698340087890625,0.8318865771484375
-0.34348103515625,-0.046004814453125,0.7581565966796875
-0.4127772265625,0.0182088525390625,0.8458952734375
-0.34785763671875003,-0.0016434643554687498,1.0181776611328126
-0.40134943359374997,-0.00262382568359375,1.0444746875
-0.3967296875,0.0069346972656249995,1.0130165625
-0.34032015625,-0.0631611376953125,0.8043607177734375
-0.34785763671875003,-0.027868129882812502,0.7507835986328125
-0.38530189453125,0.00423870361328125,0.8333611767578125
-0.3777644140625,-0.0317895751953125,0.9724650732421874
-0.35077537109375,-0.02419177490234375,1.1041959716796874
-0.44997833984375,0.06404074462890624,1.0818312109375
-0.41253408203124997,-0.03522083984375,0.893573994140625
-0.35126166015625,-0.00213364501953125,0.77806369140625
-0.2878009375,0.03364954345703125,0.8156659814453124
-0.27345541015625,-0.0013983740234375002,0.933879716796875
-0.358799140625,0.009140510253906251,1.02186416015625
-0.35709712890625,-0.02958376220703125,0.9709904736328125
-0.3417790234375,-0.0553182470703125,0.8328696435546875
-0.29776986328125,-0.0513968017578125,0.7910893212890625
-0.286828359375,-0.02272123291015625,0.8087845166015625
-0.40523974609375,-0.02762303955078125,0.875387265625
-0.3417790234375,-0.0023787353515625003,1.0176861279296876
-0.339347578125,0.0309535498046875,1.079373544921875
-0.27880458984375,0.00791505859375,0.9911433349609375
-0.3067662109375,-0.05752406005859375,0.952557978515625
-0.30846822265625,0.0069346972656249995,0.9936010009765625
-0.41593810546875,-0.014633251953124999,0.9931094677734374
-0.389921640625,0.01894412353515625,1.0014655322265624
-0.2941226953125,0.024581201171875,1.0343982568359376
-0.19759431640625,0.0966377587890625,1.1037044384765624
-0.24136033203125,0.05276658935546875,1.165883388671875
-0.24306234375,0.126538779296875,1.2231470068359376
-0.30603677734375,0.024091020507812498,1.238630302734375
-0.45970412109375003,0.046149150390625,1.2359268701171875
-0.45168035156249997,-0.08105273193359375,1.0879753759765625
-0.245980078125,0.00325834228515625,1.004660498046875
-0.24306234375,-0.208744794921875,0.9852449365234375
-0.20926525390625,-0.1386489599609375,0.9356000830078125
-0.156502890625,-0.1710008837890625,0.8466325732421875
-0.2668905078125,-0.159726728515625,0.8262339453125
-0.14507509765624998,-0.16340308349609375,0.9469053466796875
-0.2075632421875,-0.1749223291015625,1.0582376171875
-0.234309140625,-0.05017135009765625,1.11427240234375
-0.23649744140625,-0.05360261474609375,1.09067880859375
-0.33764556640625,0.03855135009765625,0.9724650732421874
-0.27977716796875,7.216796875000007e-05,0.95108337890625
-0.13000013671875,-0.045024453125,1.0176861279296876
-0.21023783203125002,0.0030132519531249997,1.0235845263671874
-0.20026890625,-0.12565917236328125,0.8810398974609375
-0.22701480468750002,-0.026397587890625,0.8294289111328125
-0.2221519140625,-0.0935523388671875,0.81148794921875
-0.3612305859375,-0.0788469189453125,0.946659580078125
-0.23503857421875,0.0201695751953125,0.9601767431640625
-0.17473873046875,-0.079337099609375,0.872929599609375
-0.24914095703125,0.036345537109375,0.9002096923828125
-0.181789921875,0.01600303955078125,1.014491162109375
-0.2834243359375,0.114774443359375,1.0594664501953126
-0.265431640625,0.014777587890624999,1.00023669921875
-0.32597462890625,0.06698182861328125,0.9282270849609375
-0.17960162109375,0.0956573974609375,0.904387724609375
-0.2221519140625,-0.00458454833984375,1.0073639306640625
-0.205131796875,0.08413815185546875,1.140323662109375
-0.25740787109375,0.02090484619140625,1.1073909375
-0.3048210546875,0.0329142724609375,0.9754142724609375
-0.25449013671875,-0.06683749267578125,0.859658203125
-0.228473671875,-0.071494208984375,0.8564632373046875
-0.1579617578125,-0.0396324658203125,1.065610615234375
-0.24768208984375,-0.0964934228515625,1.1290183984375
-0.24281919921875,-0.09183670654296874,1.0673309814453125
-0.2085358203125,-0.08742508056640624,0.9960586669921875
-0.27248283203125,-0.046249904785156254,0.975168505859375
-0.2022140625,-0.06732767333984375,1.0093300634765625
-0.18738224609375,-0.05654369873046875,1.077407412109375
-0.36244630859375,0.02090484619140625,1.1105859033203125
-0.20294349609375,-0.0621807763671875,1.080356611328125
-0.222638203125,-0.06830803466796875,1.004660498046875
-0.19029998046875,-0.0881603515625,0.97271083984375
-0.2075632421875,-0.06095532470703125,0.908319990234375
-0.25303126953125,-0.09820905517578125,0.811979482421875
-0.1346198828125,-0.046249904785156254,0.8726838330078125
-0.143859375,-0.09134652587890625,1.0162115283203126
-0.31381740234375,-0.10065995849609374,0.94715111328125
-0.2022140625,-0.0180645166015625,0.865065068359375
-0.19127255859375,-0.08546435791015625,0.7247323388671875
-0.187625390625,0.01012087158203125,0.7655295947265625
-0.12708240234375,-0.004829638671875,0.9596852099609375
-0.25011353515625,0.0505607763671875,1.0948568408203125
-0.28804408203125,0.00399361328125,1.0948568408203125
-0.31430369140625003,-0.026397587890625,0.9891772021484375
-0.20099833984375,0.04639424072265625,0.7822417236328125
-0.16647181640625,-0.02076051025390625,0.7515208984375
-0.18786853515625002,-0.03448556884765625,0.755944697265625
-0.21412814453125,-0.12811007568359375,0.7357918359375
-0.177899609375,-0.06781785400390625,0.68565544921875
-0.09985021484375001,-0.073454931640625,0.7144101416015625
-0.11492517578125,-0.1788437744140625,0.6868842822265625
-0.0655668359375,-0.1092381201171875,0.8628531689453125
-0.06386482421875,-0.15605037353515624,1.0525849853515625
-0.22944625,-0.0055649096679687505,1.1857904833984374
-0.2785614453125,-0.05115171142578125,1.1017383056640626
-0.1920019921875,-0.09428760986328125,1.09952640625
-0.240144609375,0.023845930175781252,1.1449932275390624
-0.21607330078125,-0.0033590966796874996,1.18505318359375
-0.156502890625,0.00987578125,1.2152824755859375
-0.12440781249999999,0.14516564453125,1.2383845361328125
-0.1453182421875,0.1289896826171875,1.2428083349609376
-0.14312994140625,0.1079119140625,1.3506998730468749
-0.18300564453125,0.1593808837890625,1.469159375
-0.4186126953125,0.09198104248046875,1.47604083984375
-0.3111428125,0.067717099609375,1.386581796875
-0.352963671875,-0.04870080810546875,1.237155703125
-0.2912049609375,-0.08693489990234375,1.11427240234375
-0.25303126953125,-0.07566074462890625,1.026287958984375
-0.27199654296875,-0.12811007568359375,0.886692529296875
-0.2814791796875,-0.19673536865234376,0.90782845703125
-0.2338228515625,-0.220509130859375,1.0019570654296874
-0.28950294921874997,-0.1901179296875,0.995812900390625
-0.1890842578125,-0.091101435546875,0.94321884765625
-0.2202067578125,-0.09281706787109376,0.9206083203125
-0.2571647265625,-0.11977700439453125,0.9336339501953125
-0.213885,-0.13252170166015625,0.96288017578125
-0.2523018359375,-0.1013952294921875,0.9400238818359374
-0.24184662109375,-0.11291447509765624,0.86653966796875
-0.24622322265625,-0.10213050048828125,0.7829790234375
-0.17814275390625,-0.0001729223632812504,0.8879213623046875
-0.22725794921875,-0.11193411376953125,0.955507177734375
-0.3189234375,0.04100225341796875,1.0049062646484375
-0.3184371484375,0.04639424072265625,0.93928658203125
-0.27783201171875,-0.023456503906250002,0.761843095703125
-0.187625390625,0.061834931640625,0.800182685546875
-0.20780638671875,0.06673673828125,0.865065068359375
-0.2182616015625,0.096147578125,0.911269189453125
-0.21753216796875,0.06943273193359376,0.977134638671875
-0.24184662109375,0.0037485229492187503,0.95304951171875
-0.30627992187499997,0.13021513427734374,0.9402696484374999
-0.24038775390625,0.085363603515625,0.8436833740234375
-0.26372962890625,-0.02517213623046875,0.799199619140625
-0.19637859375,0.0515411376953125,0.9380577490234375
-0.19467658203125,0.02286556884765625,1.0108046630859375
-0.30166017578125,0.0378160791015625,1.0766701123046876
-0.24719580078125,-0.0749254736328125,1.053813818359375
-0.1599069140625,0.02972809814453125,0.997779033203125
-0.21704587890625,-0.14281549560546875,0.9400238818359374
-0.17960162109375,-0.083258544921875,1.0855177099609374
-0.31235853515625,-0.15310928955078124,1.0324321240234375
-0.34299474609375,-0.0974737841796875,0.9429730810546875
-0.38311359375,-0.1955099169921875,0.8540055712890625
-0.29728357421875,-0.1827652197265625,0.8441749072265625
-0.1530988671875,-0.073454931640625,0.932896650390625
-0.2406308984375,-0.17835359375,0.9557529443359375
-0.358799140625,-0.0249270458984375,1.043983154296875
-0.34007701171875,-0.09771887451171875,0.9011927587890625
-0.4322287890625,-0.01389798095703125,0.8648193017578125
-0.465782734375,-0.057278969726562504,0.90389619140625
-0.33132380859375,-0.09036616455078125,0.8987350927734374
-0.22920310546875,-0.015368522949218751,0.90782845703125
-0.4001337109375,-0.03914228515625,0.8852179296875
-0.44560173828125,-0.0464949951171875,0.788877421875
-0.40280830078125,-0.095022880859375,0.754961630859375
-0.34785763671875003,-0.018554697265625,0.6952403466796875
-0.27977716796875,0.03904153076171875,0.810013349609375
-0.33253953125,-0.09232688720703125,0.956490244140625
-0.32840607421875,0.0172284912109375,1.0196522607421874
-0.38676076171875,-0.06830803466796875,1.010558896484375
-0.46481015625,-0.051886982421875,0.909303056640625
-0.33618669921875,-0.055073156738281254,0.9080742236328125
-0.419098984375,-0.0161037939453125,1.043983154296875
-0.38530189453125,-0.0411030078125,1.022355693359375
-0.31989601562500003,0.0035034326171875,0.839996875
-0.255705859375,-0.13497260498046876,0.68762158203125
-0.26761994140625,-0.05115171142578125,0.7434106005859376
-0.22628537109375,-0.07811164794921875,0.8441749072265625
-0.34226531250000003,-0.073454931640625,0.9763973388671875
-0.338375,-0.048455717773437504,1.13786599609375
-0.21972046875,-0.075415654296875,1.1135351025390625
-0.13340416015625,-0.05703387939453125,1.138357529296875
-0.06921400390625,-0.139139140625,1.189476982421875
-0.23066197265625,-0.161687451171875,1.3219451806640625
-0.296554140625,-0.12418863037109375,1.335953876953125
-0.30409162109375,-0.14281549560546875,1.3789630322265625
-0.25205869140625,-0.0886505322265625,1.3300554785156251
-0.1248941015625,-0.12761989501953125,1.39542939453125
-0.263486484375,-0.0646316796875,1.4944733349609374
-0.34202216796875,-0.18350049072265626,1.47800697265625
-0.339347578125,-0.1357078759765625,1.26959689453125
-0.259596171875,-0.1455114892578125,1.0206353271484374
-0.2114535546875,-0.23545964111328124,0.8200897802734375
-0.115654609375,-0.2170778662109375,0.91176072265625
-0.19248828125,-0.23202837646484376,1.07101748046875
-0.341292734375,-0.1352176953125,1.012525029296875
-0.30919765625,-0.11389483642578124,0.86457353515625
-0.22482650390625,-0.1033559521484375,0.7861739892578125
-0.30068759765624997,-0.20702916259765625,0.8707177001953125
-0.17960162109375,-0.09428760986328125,1.0358728564453126
-0.273212265625,-0.1376685986328125,1.135408330078125
-0.22968939453125,-0.18791211669921876,0.99237216796875
-0.30020130859375,-0.15850127685546875,0.8667854345703125
-0.3164919921875,-0.17026561279296876,0.8097675830078125
-0.25449013671875,-0.11561046875,0.8874298291015625
-0.30020130859375,-0.1464918505859375,0.9380577490234375
-0.316005703125,-0.1572758251953125,0.903404658203125
-0.16063634765625,-0.20310771728515625,0.77806369140625
-0.21218298828125,-0.19526482666015624,0.67385865234375
-0.1920019921875,-0.17957904541015626,0.636010595703125
-0.12829812499999999,-0.1592365478515625,0.6416632275390625
-0.25157240234375,-0.1415900439453125,0.7773263916015625
-0.34348103515625,-0.15065838623046876,0.9100403564453124
-0.3189234375,-0.055808427734375,0.8913620947265625
-0.234309140625,-0.01389798095703125,0.8726838330078125
-0.1667149609375,-0.0332601171875,0.8672769677734375
-0.10228166015625,-0.06340622802734375,0.8928366943359375
-0.13145900390625,0.023845930175781252,0.965829375
-0.1073876953125,0.004973974609375,1.0245675927734375
-0.19370400390625,-0.05801424072265625,1.0879753759765625
-0.063135390625,0.02433611083984375,1.1538408251953125
-0.205131796875,-0.0366913818359375,1.270088427734375
-0.22434021484375,-0.0097314453125,1.194392314453125
-0.23503857421875,-0.0935523388671875,1.135408330078125
-0.30068759765624997,-0.1219828173828125,0.95698177734375
-0.1832487890625,-0.1038461328125,0.899472392578125
-0.040766093749999996,-0.21536223388671874,0.911269189453125
-0.1560166015625,-0.10409122314453124,0.977134638671875
-0.22944625,-0.112669384765625,0.9759058056640625
-0.11298001953125,-0.08301345458984374,0.8812856640625
-0.1910294140625,-0.051886982421875,0.8279543115234375
-0.08234380859375,-0.09036616455078125,0.840488408203125
-0.13340416015625,-0.132276611328125,0.944693447265625
-0.18106048828125,-0.1141399267578125,1.048406953125
-0.284883203125,-0.12565917236328125,1.0265337255859375
-0.23698373046875,-0.096983603515625,0.8820229638671875
-0.1550440234375,-0.2053135302734375,0.8156659814453124
-0.11468203125,-0.08448399658203125,0.9110234228515625
-0.19467658203125,-0.1092381201171875,1.0206353271484374
-0.2377131640625,-0.09183670654296874,1.0167030615234376
-0.16355408203125,-0.0376717431640625,1.0594664501953126
-0.213885,-0.107767578125,0.99630443359375
-0.154557734375,-0.07222947998046875,1.00220283203125
-0.16890326171875,-0.13301188232421876,1.042017021484375
-0.24330548828125,-0.10164031982421876,1.09067880859375
-0.24622322265625,-0.0435539111328125,1.0481611865234375
-0.19419029296875,-0.13105115966796876,0.9365831494140625
-0.28196546875,-0.08007237060546875,0.9301932177734376
-0.20026890625,-0.1759026904296875,0.9414984814453125
-0.24938410156250002,-0.0553182470703125,0.922082919921875
-0.203186640625,-0.08252327392578125,1.0216183935546874
-0.26859251953125,-0.15261910888671876,0.9768888720703125
-0.15577345703125,-0.08448399658203125,1.009084296875
-0.337402421875,-0.154824921875,0.989914501953125
-0.23795630859375,-0.08252327392578125,0.95698177734375
-0.17133470703125,-0.1337471533203125,0.9385492822265625
-0.2211793359375,-0.17222633544921875,0.9498545458984375
-0.17303671874999998,-0.08938580322265625,1.09067880859375
-0.2338228515625,-0.13252170166015625,1.1140266357421875
-0.28196546875,-0.17418705810546875,1.055779951171875
-0.2639727734375,-0.1665892578125,1.007609697265625
-0.23844259765625,-0.19845100097656249,0.95894791015625
-0.2474389453125,-0.2141367822265625,0.9528037451171875
-0.2411171875,-0.1376685986328125,1.030220224609375
-0.25497642578125,-0.259723583984375,1.02383029296875
-0.21996361328125,-0.16242272216796874,0.9837703369140625
-0.19953947265625,-0.21585241455078125,0.9272440185546875
-0.18349193359375,-0.17369687744140624,0.94911724609375
-0.20391607421875,-0.1509034765625,1.03366095703125
-0.23260712890625002,-0.11732610107421874,1.0933822412109375
-0.2717533984375,-0.1641383544921875,1.0904330419921875
-0.22677166015625,-0.0788469189453125,1.043983154296875
-0.183735078125,-0.1494329345703125,1.090187275390625
-0.1958923046875,-0.11757119140625,1.164900322265625
-0.28998923828125,-0.16462853515625,1.20078224609375
-0.30919765625,-0.1210024560546875,1.1115689697265625
-0.25886673828125,-0.15703073486328126,1.0422627880859374
-0.30263275390625,-0.16193254150390626,1.020389560546875
-0.24938410156250002,-0.12173772705078124,1.052830751953125
-0.2367405859375,-0.2357047314453125,0.9813126708984374
-0.22871681640625,-0.1513936572265625,0.910286123046875
-0.20464550781250002,-0.20408807861328124,0.8500733056640625
-0.221665625,-0.1631579931640625,0.767741494140625
-0.22361078125,-0.21487205322265626,0.7527497314453125
-0.26275705078125,-0.19575500732421874,0.800182685546875
-0.1715778515625,-0.0881603515625,0.8800568310546875
-0.19321771484375,-0.11046357177734376,0.8800568310546875
-0.263486484375,-0.10065995849609374,0.8340984765625
-0.27831830078124997,-0.059484782714843754,0.8154202148437499
-0.23017568359375,-0.114630107421875,0.8422087744140625
-0.21850474609375,0.021885207519531248,0.989914501953125
-0.20464550781250002,-0.053847705078125,1.1194335009765626
-0.18057419921875,-0.09575815185546875,1.1172216015625
-0.1871391015625,-0.05115171142578125,1.1302472314453125
-0.29047552734375,-0.13938423095703126,1.0796193115234376
-0.218747890625,-0.09428760986328125,1.0284998583984375
-0.24330548828125,-0.2023724462890625,1.003677431640625
-0.22093619140625,-0.18153976806640626,1.073475146484375
-0.21121041015625,-0.22026404052734375,1.0673309814453125
-0.21193984375,-0.22345021484375,0.9520664453125
-0.191515703125,-0.17761832275390624,0.8608870361328125
-0.14167107421875,-0.20506843994140625,0.802148818359375
-0.18154677734375,-0.15899145751953125,0.87931953125
-0.1842213671875,-0.1587463671875,1.0294829248046875
-0.22920310546875,-0.0945327001953125,1.0737209130859375
-0.21461443359375,-0.05850442138671875,0.968287041015625
-0.14069849609375001,-0.0455146337890625,0.92159138671875
-0.152612578125,-0.1259042626953125,1.000728232421875
-0.19370400390625,-0.06634731201171876,1.1041959716796874
-0.20440236328125,-0.08301345458984374,1.1213996337890624
-0.20391607421875,-0.0847290869140625,1.0179318945312499
-0.212912421875,-0.0523771630859375,0.9498545458984375
-0.160393203125,-0.0857094482421875,0.9950756005859375
-0.20488865234375,-0.1092381201171875,1.0009739990234374
-0.203186640625,-0.083258544921875,1.087729609375
-0.1754681640625,-0.06291604736328126,1.0422627880859374
-0.1978374609375,-0.11757119140625,0.969270107421875
-0.22944625,-0.13546278564453124,0.9159387548828125
-0.2445212109375,-0.05997496337890625,0.9127437890625
-0.2566784375,-0.15605037353515624,0.91077765625
-0.2299325390625,-0.050661530761718754,0.915201455078125
-0.19832375,-0.1670794384765625,0.9144641552734375
-0.084532109375,-0.10580685546875,0.8992266259765624
-0.11298001953125,-0.226391298828125,0.9262609521484375
-0.1788721875,-0.0837487255859375,1.02088109375
-0.2143712890625,-0.165608896484375,1.05528841796875
-0.25108611328125,-0.16585398681640626,0.9695158740234375
-0.224583359375,-0.05605351806640625,1.0098215966796875
-0.19710802734375,-0.14698203125,1.0452119873046875
-0.25692158203125,-0.13350206298828124,1.0447204541015624
-0.19808060546875,-0.0788469189453125,1.007609697265625
-0.253760703125,-0.08423890625,0.941744248046875
-0.27831830078124997,-0.09526797119140624,0.92552365234375
-0.25303126953125,-0.02076051025390625,0.98942296875
-0.25546271484375,-0.09575815185546875,0.963371708984375
-0.21266927734375,-0.063651318359375,0.9606682763671874
-0.16209521484375,-0.01389798095703125,0.935845849609375
-0.20804953125,-0.10262068115234375,0.913235322265625
-0.27296912109375,-0.06046514404296875,0.9913891015625
-0.27199654296875,-0.057769150390625,1.0304659912109375
-0.23552486328125,-0.10556176513671875,1.0432458544921874
-0.2474389453125,-0.08595453857421875,1.0555341845703126
-0.22336763671875,-0.03056412353515625,1.043983154296875
-0.24306234375,-0.144040947265625,0.9542783447265625
-0.2347954296875,-0.0700236669921875,1.0122792626953125
-0.22677166015625,-0.13717841796875,1.06118681640625
-0.2211793359375,-0.13546278564453124,1.05332228515625
-0.20294349609375,-0.02125069091796875,1.0565172509765626
-0.1997826171875,-0.16487362548828124,0.962388642578125
-0.22239505859375,-0.110708662109375,0.9724650732421874
-0.19710802734375,-0.10507158447265624,1.0334151904296875
-0.25740787109375,-0.1406096826171875,0.950591845703125
-0.18057419921875,-0.122472998046875,0.8889044287109376
-0.228473671875,-0.14624676025390626,0.8623616357421875
-0.199296328125,-0.14036459228515624,0.9149556884765625
-0.22750109375,-0.14869766357421876,0.924049052734375
-0.21364185546875,-0.1406096826171875,0.9341254833984375
-0.2056180859375,-0.10360104248046875,0.9007012255859375
-0.24330548828125,-0.081297822265625,0.8662939013671875
-0.2386857421875,-0.03154448486328125,0.8446664404296875
-0.20488865234375,-0.06242586669921875,0.8913620947265625
-0.19516287109375,-0.07443529296875,0.8535140380859375
-0.12440781249999999,-0.00581,0.9297016845703125
-0.17230728515625,-0.0435539111328125,1.0098215966796875
-0.257651015625,-0.0317895751953125,0.9896687353515625
-0.28609892578125,-0.0097314453125,0.9773804052734375
-0.30141703125,-0.06438658935546875,0.8648193017578125
-0.27880458984375,-0.0739451123046875,0.8353273095703125
-0.1161408984375,-0.1249239013671875,0.848352939453125
-0.12319208984375,-0.08987598388671875,0.926015185546875
-0.17425244140625,-0.11830646240234374,0.956490244140625
-0.19273142578125,-0.1543347412109375,0.930930517578125
-0.23139140625,-0.040122646484374996,0.9090572900390625
-0.25205869140625,-0.19869609130859375,0.847369873046875
-0.2328502734375,-0.0886505322265625,0.828200078125
-0.17036212890625,-0.08301345458984374,0.8333611767578125
-0.13000013671875,-0.05899460205078125,0.851793671875
-0.15382830078125,0.0530116796875,0.987948369140625
-0.203186640625,-0.0455146337890625,1.079373544921875
-0.24427806640625,0.07261890625,1.0904330419921875
-0.33715927734375,0.032424091796875,1.0270252587890625
-0.304334765625,0.097127939453125,1.0174403613281249
-0.2309051171875,0.02923791748046875,1.0889584423828125
-0.25886673828125,0.01551285888671875,1.08084814453125
-0.230418828125,0.05031568603515625,1.10444173828125
-0.25108611328125,-0.02909358154296875,1.122628466796875
-0.30944080078125,-0.06144550537109375,1.141306728515625
-0.29776986328125,0.00423870361328125,1.1946380810546875
-0.38335673828125,-0.0523771630859375,1.1211538671875
-0.33253953125,-0.013652890625,1.1145181689453125
-0.27637314453125,-0.085219267578125,1.1051790380859374
-0.290718671875,0.0221302978515625,1.1253318994140624
-0.21996361328125,-0.15286419921875,1.170798720703125
-0.27831830078124997,-0.12663953369140624,1.1980788134765625
-0.268349375,-0.22124440185546876,1.159984990234375
-0.2722396875,-0.1641383544921875,1.0570087841796876
-0.32646091796875,-0.267566474609375,0.901438525390625
-0.21461443359375,-0.2308029248046875,0.8500733056640625
-0.22944625,-0.29673222412109374,0.8849721630859375
-0.20148462890625,-0.24428289306640624,0.9660751416015625
-0.30846822265625,-0.20016663330078124,1.0471781201171875
-0.201241484375,-0.16928525146484374,1.0385762890625
-0.20440236328125,-0.23129310546875,0.94223578125
-0.21607330078125,-0.175412509765625,0.9206083203125
-0.16647181640625,-0.26634102294921874,1.0014655322265624
-0.1166271875,-0.2219796728515625,1.053813818359375
-0.1890842578125,-0.1239435400390625,1.0874838427734375
-0.1988100390625,-0.24183198974609374,1.0004824658203124
-0.2153438671875,-0.17663796142578125,0.9301932177734376
-0.28585578125,-0.21952876953125,0.82328474609375
-0.236254296875,-0.1396293212890625,0.8112421826171875
-0.24768208984375,-0.130315888671875,0.846386806640625
-0.24184662109375,-0.0063001806640625,0.9331424169921875
-0.19370400390625,0.1074217333984375,1.004660498046875
-0.24184662109375,0.128499501953125,1.026287958984375
-0.24962724609375,0.13536203125,1.0589749169921876
-0.22677166015625,0.16991976806640624,1.1621968896484376
-0.329621796875,0.22947671875,1.195375380859375
-0.39551396484375,0.277514423828125,1.22240970703125
-0.3495596484375,0.2900140307617187,1.1803836181640626
-0.3344846875,0.2417312353515625,1.15359505859375
-0.32281375,0.2547210229492187,1.149171259765625
-0.37557611328125,0.1133039013671875,1.1054248046875
-0.2805066015625,0.2250650927734375,1.025304892578125
-0.29776986328125,0.1015395654296875,0.9606682763671874
-0.28415376953125,0.01845394287109375,0.89406552734375
-0.1754681640625,0.01992448486328125,0.9149556884765625
-0.1764407421875,-0.0004180126953125,0.87047193359375
-0.16549923828125,-0.077376376953125,0.8874298291015625
-0.09985021484375001,-0.10065995849609374,0.9203625537109374
-0.20026890625,-0.1425704052734375,0.91077765625
-0.2571647265625,-0.18693175537109374,0.89504859375
-0.2581373046875,-0.17271651611328126,0.809030283203125
-0.23649744140625,-0.1494329345703125,0.813945615234375
-0.20537494140625,-0.206784072265625,0.8205813134765625
-0.22579908203125,-0.1641383544921875,0.8387680419921875
-0.13778076171875,-0.10948321044921874,0.8117337158203125
-0.12076064453125,-0.19379428466796875,0.7935469873046875
-0.17425244140625,-0.1406096826171875,0.893573994140625
-0.2450075,-0.187176845703125,0.8427003076171875
-0.242089765625,-0.126394443359375,0.7448852001953125
-0.140941640625,-0.09820905517578125,0.7512751318359375
-0.1647698046875,-0.0803174609375,0.776589091796875
-0.12319208984375,-0.07124911865234375,0.8456495068359375
-0.2104809765625,-0.0474753564453125,0.868014267578125
-0.31089966796875,0.011346323242187501,0.809030283203125
-0.30992708984375,-0.0371815625,0.729401904296875
-0.23795630859375,-0.0082609033203125,0.6662398876953125
-0.2095083984375,0.0623251123046875,0.78002982421875
-0.18543708984375,-0.0411030078125,0.8353273095703125
-0.2192341796875,0.0760501708984375,1.024813359375
-0.21412814453125,0.02237538818359375,1.0909245751953125
-0.25108611328125,-0.0141430712890625,1.0638902490234374
-0.1827625,0.0466393310546875,1.0245675927734375
-0.1890842578125,-0.09183670654296874,0.97664310546875
-0.17619759765625,-0.057278969726562504,1.0476696533203125
-0.3038484765625,-0.0670825830078125,1.1749767529296875
-0.35101851562499997,-0.1102184814453125,1.108865537109375
-0.3408064453125,-0.15752091552734376,0.9488714794921875
-0.31770771484375,-0.1886473876953125,0.7891231884765625
-0.30603677734375,-0.23349891845703125,0.710723642578125
-0.3223274609375,-0.2268814794921875,0.7099863427734375
-0.32159802734375,-0.23349891845703125,0.692045380859375
-0.35101851562499997,-0.23447927978515626,0.7964961865234375
-0.44851947265625003,-0.20016663330078124,0.7842078564453125
-0.31965287109375,-0.1690401611328125,0.716622041015625
-0.28415376953125,-0.2371752734375,0.71711357421875
-0.44657431640625,-0.189137568359375,0.7534870312499999
-0.39089421875,-0.23889090576171876,0.7743771923828124
-0.43052677734375,-0.24036144775390625,0.779538291015625
-0.49568951171875,-0.24575343505859376,0.7994453857421875
-0.48766574218750003,-0.2337440087890625,0.92650671875
-0.43757796875,-0.25898831298828123,0.9547698779296875
-0.4818302734375,-0.10556176513671875,0.9557529443359375
-0.46116298828125,-0.13399224365234375,0.911269189453125
-0.4079143359375,-0.108747939453125,0.8043607177734375
-0.39162365234375,-0.13717841796875,0.8048522509765625
-0.4302836328125,-0.09085634521484375,0.9046334912109375
-0.3427516015625,-0.10409122314453124,1.1307387646484375
-0.368524921875,-0.04575972412109375,1.2074179443359374
-0.2834243359375,0.0373258984375,1.248460966796875
-0.34639876953125,0.099088662109375,1.3332504443359374
-0.399647421875,0.1329111279296875,1.370852734375
-0.50760359375,0.01845394287109375,1.4654728759765625
-0.52778458984375,0.0686974609375,1.5347790576171876
-0.5236511328125,0.0608545703125,1.5613218505859374
-0.4526529296875,-0.07615092529296875,1.4396673828125
-0.3515048046875,0.1564397998046875,1.3922344287109376
-0.346155625,-0.0011532836914062497,1.2246216064453126
-0.18689595703125,0.0740894482421875,1.149171259765625
-0.2630001953125,-0.022476142578125,1.2010280126953126
-0.4122909375,0.04051207275390625,1.344801474609375
-0.40037685546875,-0.0347306591796875,1.4322943847656249
-0.52438056640625,-0.05850442138671875,1.35119140625
-0.310170234375,0.021885207519531248,1.128526865234375
-0.29290697265625,-0.13595296630859374,1.0093300634765625
-0.30555048828125,0.0037485229492187503,0.894557060546875
-0.27248283203125,-0.0406128271484375,0.9606682763671874
-0.19419029296875,-0.11340465576171875,0.9088115234375
-0.24038775390625,-0.12712971435546874,1.0643817822265624
-0.20002576171875,-0.12418863037109375,1.0938737744140625
-0.21193984375,-0.1626678125,0.9311762841796875
-0.230418828125,-0.11634573974609375,0.7920723876953125
-0.2202067578125,-0.14379585693359376,0.818860947265625
-0.29339326171875,-0.0881603515625,0.784453623046875
-0.3242726171875,-0.02909358154296875,0.8594124365234375
-0.3223274609375,-0.10899302978515625,0.9213456201171875
-0.2620276171875,-0.076396015625,0.8898874951171875
-0.209022109375,0.00423870361328125,0.87243806640625
-0.1793584765625,-0.12418863037109375,0.7593854296875
-0.146777109375,-0.07468038330078125,0.7851909228515626
-0.21412814453125,-0.0011532836914062497,0.9331424169921875
-0.3057936328125,-0.10507158447265624,0.868997333984375
-0.1832487890625,0.021640117187500002,0.9041419580078125
-0.28998923828125,-0.0651218603515625,0.9186421875
-0.16258150390625,-0.0724745703125,0.850319072265625
-0.2095083984375,-0.092081796875,0.8608870361328125
-0.27345541015625,-0.046004814453125,0.8535140380859375
-0.333512109375,-0.1670794384765625,0.846386806640625
-0.37703498046875,-0.12516899169921875,0.7930554541015625
-0.34737134765625,-0.0798272802734375,0.7065456103515625
-0.1920019921875,0.0123266845703125,0.710723642578125
-0.1827625,-0.0210056005859375,0.7866655224609375
-0.23601115234375,-0.04036773681640625,0.8697346337890625
-0.1569891796875,-0.089140712890625,0.9306847509765624
-0.2591098828125,-0.06781785400390625,0.9088115234375
-0.2377131640625,-0.01095689697265625,0.85474287109375
-0.23698373046875,-0.12369844970703125,0.8117337158203125
-0.25157240234375,-0.14109986328125,0.828200078125
-0.190543125,-0.03546593017578125,1.019406494140625
-0.2717533984375,-0.10605194580078126,1.081339677734375
-0.29533841796875,-0.03546593017578125,0.99040603515625
-0.2367405859375,-0.06144550537109375,0.9449392138671875
-0.24379177734375002,-0.02149578125,0.9528037451171875
-0.3116291015625,-0.05605351806640625,0.9503460791015625
-0.2746711328125,-0.05899460205078125,0.9614055761718749
-0.20586123046875,-0.073454931640625,0.8456495068359375
-0.1628246484375,-0.09771887451171875,0.8048522509765625
-0.12854126953125,-0.1278649853515625,0.832623876953125
-0.1093328515625,-0.14624676025390626,0.9616513427734374
-0.234309140625,-0.1200220947265625,1.039067822265625
-0.236254296875,-0.09526797119140624,1.0427543212890624
-0.25400384765625,-0.15507001220703126,1.055779951171875
-0.29776986328125,-0.09820905517578125,0.959439443359375
-0.26421591796875,-0.1788437744140625,0.91569298828125
-0.21558701171875,-0.18742193603515625,0.8284458447265625
-0.15917748046875,-0.1396293212890625,0.86064126953125
-0.125380390625,-0.1641383544921875,0.7908435546875
-0.16720125,-0.21536223388671874,0.88620099609375
-0.17473873046875,-0.13007079833984375,0.9267524853515625
-0.21801845703125,-0.11634573974609375,0.9129895556640625
-0.22750109375,-0.087179990234375,0.87243806640625
-0.20537494140625,-0.09771887451171875,0.8864467626953125
-0.18008791015625,0.010856142578125,0.9356000830078125
-0.27102396484375,0.00963069091796875,1.0383305224609374
-0.26810623046875,-0.0013983740234375002,1.12606919921875
-0.22434021484375,0.0868341455078125,1.1700614208984375
-0.38700390625000003,-0.12614935302734376,1.0629071826171874
-0.3524773828125,-0.1151202880859375,0.965337841796875
-0.2425760546875,0.118695888671875,1.0324321240234375
-0.20294349609375,-0.1798241357421875,0.860149736328125
-0.36366203125,-0.16438344482421874,0.8967689599609375
-0.175954453125,-0.03203466552734375,0.8053437841796875
-0.374360390625,-0.13129625,0.725961171875
-0.36755234375,-0.0857094482421875,0.6047982373046875
-0.166228671875,0.02923791748046875,0.6079932031249999
-0.2231244921875,-0.07958218994140626,0.684180849609375
-0.25157240234375,-0.00703545166015625,0.830657744140625
-0.31187224609374997,-0.0778665576171875,0.885709462890625
-0.4511940625,-0.03301502685546875,0.97271083984375
-0.4059691796875,0.03928662109375,1.014491162109375
-0.3203823046875,0.07850107421875,0.9768888720703125
-0.50103869140625,-0.0553182470703125,0.9975332666015625
-0.3913805078125,0.10129447509765625,1.087238076171875
-0.218747890625,0.07457962890625,0.9088115234375
-0.321841171875,0.080461796875,0.8058353173828126
-0.24695265625,0.04737460205078125,0.7714279931640625
-0.19248828125,-0.03889719482421875,0.6618160888671875
-0.27248283203125,-0.0562986083984375,0.7060540771484375
-0.30360533203125,-0.0016434643554687498,0.8250051123046875
-0.2450075,-0.07370002197265625,0.9257694189453125
-0.31819400390625,0.046149150390625,1.0555341845703126
-0.31308796875,-0.076396015625,1.3465218408203126
-0.360744296875,-0.01291761962890625,1.32661474609375
-0.31527626953125,0.04443351806640625,1.343818408203125
-0.35126166015625,0.04247279541015625,1.2423168017578126
-0.3797095703125,-0.032279755859375,1.24600330078125
-0.3320532421875,0.0603643896484375,1.1970957470703125
-0.31430369140625003,-0.1641383544921875,1.0747039794921875
-0.22677166015625,-0.1111988427734375,0.9070911572265625
-0.04344068359375,-0.10605194580078126,0.73677490234375
-0.0665394140625,-0.1626678125,0.62765453125
-0.13097271484375,-0.2717330102539062,0.726452705078125
-0.14629082031250001,-0.3151139990234375,0.9321593505859375
-0.25740787109375,-0.2357047314453125,1.0395593554687501
-0.2513292578125,-0.0866898095703125,1.2941735546875
-0.20634751953125,-0.17614778076171875,1.4123872900390624
-0.18349193359375,-0.076396015625,1.5131515966796876
-0.201241484375,-0.04281864013671875,1.518804228515625
-0.46505330078125,-0.10948321044921874,1.4025566259765625
-0.42858162109375,0.015022678222656249,1.2211808740234376
-0.4477900390625,-0.05850442138671875,0.9842618701171875
-0.26470220703125,-0.2631548486328125,0.777080625
-0.10908970703125,-0.18987283935546875,0.619298466796875
-0.04733099609375,-0.17908886474609376,0.610450869140625
-0.08307324218750001,-0.18423576171875,0.6475616259765625
-0.014506484375,-0.20997024658203126,0.9837703369140625
-0.22093619140625,-0.22418548583984374,1.3676577685546876
-0.4789125390625,-0.2214894921875,1.470633974609375
-0.52681201171875,-0.12320826904296875,1.3902682958984376
-0.4020788671875,-0.14379585693359376,1.1233657666015624
-0.32402947265625,-0.26879192626953125,1.0031858984375
-0.230418828125,-0.2580079516601563,0.9591936767578125
-0.1628246484375,-0.2445279833984375,0.916184521484375
-0.12221951171875,-0.21095060791015624,0.914709921875
-0.08720669921875,-0.23006765380859376,0.876861865234375
-0.05657048828125,-0.23251855712890626,0.8653108349609375
-0.082586953125,-0.18987283935546875,0.8655566015625
-0.1754681640625,-0.11683592041015625,0.910286123046875
-0.09985021484375001,-0.08595453857421875,0.8771076318359375
-0.1112780078125,-0.008996174316406251,0.8569547705078124
-0.15164,-0.01169216796875,0.8653108349609375
-0.1929745703125,0.02776737548828125,0.841471474609375
-0.1676875390625,-0.07835673828125,0.762826162109375
-0.039793515625,0.0505607763671875,0.8200897802734375
0.05235826171875,-0.15899145751953125,1.06708521484375
0.0774021484375,0.00570924560546875,1.4109126904296876
0.09734,-0.01046671630859375,1.5772966796875
-0.3038484765625,-0.1690401611328125,1.578771279296875
-0.19637859375,-0.03399538818359375,1.230765771484375
-0.3126016796875,-0.2396261767578125,1.08674654296875
-0.20804953125,-0.30359475341796877,0.7566819970703125
0.0025136328124999996,-0.1396293212890625,0.6696806201171875
-0.009400449218749999,-0.1582561865234375,0.5694078466796875
-0.174009296875,-0.1430605859375,0.454143310546875
-0.12440781249999999,0.008405239257812499,0.45955017578125
-0.06410796875,-0.08301345458984374,0.3899982275390625
0.057464296875,-0.1200220947265625,0.68958771484375
0.1192230078125,-0.2915853271484375,1.0759328125
0.13745884765625,-0.2729584619140625,1.166374921875
-0.0538958984375,-0.0288484912109375,1.0543053515625
-0.36050115234375,0.06158984130859375,0.9080742236328125
-0.40134943359374997,0.00791505859375,0.7439021337890624
-0.380195859375,0.014777587890624999,0.7684787939453125
-0.086477265625,0.11305881103515625,0.8584293701171875
0.04457763671875,0.053992041015625,0.8340984765625
0.047738515625,0.1152646240234375,0.7316138037109375
0.04409134765625,0.10570610107421875,0.9179048876953125
-0.022530253906250002,0.22383964111328125,1.1798920849609376
-0.01620849609375,0.30594490234375,1.52421109375
-0.4137498046875,0.2642795458984375,1.8368262109375
-0.442440859375,0.053992041015625,1.61858546875
-0.26251390625,0.159871064453125,1.27352916015625
-0.19224513671875,0.122617333984375,0.8884128955078126
-0.251815546875,0.02776737548828125,0.714164375
-0.3281629296875,0.02874773681640625,0.6672229541015625
-0.3378887109375,-0.028113220214843748,0.694994580078125
-0.19419029296875,0.0030132519531249997,0.684180849609375
-0.068970859375,-0.029338671875,0.554416083984375
-0.0850183984375,-0.09404251953125001,0.5155849609375
-0.01961251953125,-0.15605037353515624,0.6291291308593749
0.092477109375,-0.046004814453125,1.0191607275390624
0.1065794921875,0.087324326171875,1.4497438134765626
-0.0859909765625,0.11649007568359375,1.8577163720703125
-0.47866939453125,-0.075415654296875,1.571889814453125
-0.4973915234375,-0.1229631787109375,1.3386573095703125
-0.44025255859375,-0.18742193603515625,1.0648733154296874
-0.341292734375,-0.07958218994140626,0.9481341796875
-0.23747001953125,0.103010107421875,1.0228472265625
-0.38311359375,-0.089140712890625,0.992863701171875
-0.2892598046875,0.091245771484375,0.8589209033203125
-0.16185207031249998,-0.10311086181640625,0.7296476708984375
-0.006239570312500001,-0.157766005859375,0.7611057958984375
0.0003253320312500002,-0.11438501708984375,0.943710380859375
-0.13291787109375,-0.03399538818359375,1.234698037109375
-0.29679728515625,-0.1190417333984375,1.1848074169921876
-0.36682291015625,-0.03105430419921875,0.955507177734375
-0.30700935546875,-0.0955130615234375,0.848352939453125
-0.23819945312500002,-0.22859711181640624,0.85277673828125
-0.30409162109375,-0.10703230712890625,0.965829375
-0.31722142578125,-0.1935491943359375,1.0267794921875
-0.2133987109375,-0.17222633544921875,0.9523122119140625
-0.226528515625,-0.0724745703125,0.8918536279296875
-0.156502890625,-0.23889090576171876,0.79772501953125
-0.0509781640625,-0.1631579931640625,0.977626171875
-0.013047617187499999,-0.130315888671875,1.21061291015625
-0.057543066406249996,-0.1298257080078125,1.3828952978515625
-0.0704297265625,-0.13938423095703126,1.278936025390625
-0.191515703125,-0.0876701708984375,1.148188193359375
-0.32500205078125,-0.05213207275390625,1.012525029296875
-0.34980279296875,-0.0592396923828125,0.9174133544921875
-0.3019033203125,-0.15850127685546875,0.7984623193359375
-0.25059982421875,-0.1523740185546875,0.6492819921874999
-0.12854126953125,-0.16585398681640626,0.6038151708984375
-0.00891416015625,-0.16438344482421874,0.5517126513671875
0.0076196679687500005,-0.177373232421875,0.63453599609375
-0.0033218359375,-0.21291133056640624,0.61290853515625
-0.04684470703125,-0.25849813232421875,0.6878673486328125
-0.061190234375,-0.29085005615234377,0.850319072265625
-0.01742421875,-0.0690433056640625,1.2221639404296876
-0.142886796875,-0.044044091796875,1.4020650927734375
-0.0723748828125,0.05129604736328125,1.414599189453125
-0.02885201171875,0.11354899169921875,1.28925822265625
-0.0500055859375,0.13119549560546875,1.2152824755859375
-0.3096839453125,0.04247279541015625,1.2902412890625
-0.38238416015625,-0.01389798095703125,1.1626884228515626
-0.48450486328125,0.03144373046875,1.0358728564453126
-0.45435494140625,0.04835496337890625,1.1041959716796874
-0.09498732421875,-0.06683749267578125,1.127052265625
-0.03225603515625,0.02041466552734375,1.2115959765625
-0.04271125,-0.0013983740234375002,1.069542880859375
-0.11638404296875,-0.17124597412109374,0.853268271484375
-0.29582470703125,-0.14085477294921875,0.85081060546875
-0.2202067578125,-0.0053198193359375,0.9714820068359376
-0.38311359375,-0.10654212646484375,1.1828412841796876
-0.411318359375,-0.08889562255859375,1.1823497509765626
-0.21972046875,-0.09796396484375,1.0378389892578126
-0.24962724609375,-0.21242114990234376,0.84884447265625
-0.152612578125,-0.1445311279296875,0.830657744140625
-0.1725504296875,-0.12320826904296875,0.8554801708984375
-0.237226875,-0.21879349853515626,0.9041419580078125
-0.1258666796875,-0.18055940673828125,1.0167030615234376
-0.059245078125,-0.140119501953125,1.1749767529296875
-0.17473873046875,-0.2406065380859375,1.227816572265625
-0.25254498046875,-0.10507158447265624,1.22634197265625
-0.2211793359375,-0.0553182470703125,1.06118681640625
-0.31989601562500003,-0.15850127685546875,0.9198710205078124
-0.27345541015625,0.0005623486328125002,0.86653966796875
-0.21850474609375,-0.0602200537109375,0.823776279296875
-0.1851939453125,-0.04968116943359375,0.7443936669921875
-0.11881548828124999,-0.09869923583984375,0.8495817724609375
-0.207076953125,0.00325834228515625,1.004660498046875
-0.21899103515625,-0.126394443359375,0.9631259423828125
-0.2347954296875,-0.1729616064453125,0.92552365234375
-0.1248941015625,-0.238155634765625,0.871455
0.06743322265625,-0.10213050048828125,0.9783634716796875
0.0637860546875,-0.1102184814453125,1.173747919921875
-0.1764407421875,-0.179333955078125,1.3357081103515624
-0.28561263671875,-0.028358310546875,1.215036708984375
-0.19224513671875,-0.1239435400390625,0.9591936767578125
-0.1871391015625,-0.00777072265625,0.89504859375
-0.10301109375,-0.07713128662109375,0.936828916015625
-0.16914640625,-0.13399224365234375,1.0398051220703124
-0.1404553515625,0.024091020507812498,1.079373544921875
-0.32864921874999997,-0.1239435400390625,0.8540055712890625
-0.2104809765625,-0.11389483642578124,0.669434853515625
-0.05900193359375,-0.10458140380859375,0.558348349609375
-0.022287109375,-0.04477936279296875,0.61487466796875
-0.1083602734375,-0.07075893798828126,0.7114609423828124
-0.10690140625,-0.1151202880859375,0.686638515625
-0.0011335351562500005,-0.0033590966796874996,0.66009572265625
-0.092312734375,0.02776737548828125,0.76430076171875
-0.08380267578125,-0.07835673828125,0.9459222802734375
-0.12513724609375,-0.03522083984375,1.1145181689453125
-0.26640421875,0.02923791748046875,1.2580458642578125
-0.3262177734375,-0.07860182861328124,0.9970417333984375
-0.2367405859375,0.00472888427734375,0.8923451611328125
-0.17084841796875,-0.0249270458984375,0.8436833740234375
-0.17765646484375,-0.014633251953124999,1.0417712548828124
-0.1813036328125,0.0008074389648437498,0.9955671337890625
-0.12440781249999999,-0.0631611376953125,0.7842078564453125
-0.10908970703125,0.0025230712890624996,0.6691890869140625
-0.07164544921875,0.0466393310546875,0.6529684912109375
0.0234240625,-0.01585870361328125,0.7896147216796875
-0.1297569921875,0.0378160791015625,1.1970957470703125
-0.057056777343750004,-0.0072805419921875,1.4050142919921875
-0.1287844140625,-0.02909358154296875,1.452938779296875
-0.24427806640625,-0.0935523388671875,1.234698037109375
-0.21266927734375,-0.24477307373046875,1.077407412109375
-0.1851939453125,-0.19379428466796875,0.9501003125
-0.19516287109375,-0.2763897265625,1.0073639306640625
-0.17182099609375,-0.3391328515625,1.0761785791015626
-0.14629082031250001,-0.22075422119140625,1.0543053515625
-0.1355924609375,-0.261684306640625,0.90586232421875
-0.022287109375,-0.23300873779296874,0.8112421826171875
-0.03760521484375,-0.2406065380859375,0.7456225
-0.07650833984375,-0.13717841796875,0.7979707861328125
-0.0840458203125,-0.144040947265625,0.840488408203125
-0.11054857421875,-0.025662316894531252,0.84294607421875
-0.10568568359375,0.00227798095703125,0.8766160986328125
-0.13948277343749999,-0.0798272802734375,0.82918314453125
-0.140941640625,0.0074248779296875,0.9324051171875
-0.26518849609375,-0.012672529296875,1.1636714892578124
-0.29533841796875,-0.06928839599609375,1.28139369140625
-0.23601115234375,-0.00850599365234375,1.1014925390624999
-0.2328502734375,0.0191892138671875,0.99630443359375
-0.13875333984375,0.021885207519531248,0.8812856640625
-0.06191966796875,-0.00581,1.1287726318359375
-0.0636216796875,0.018699033203125,1.2845886572265626
-0.08477525390625,0.036345537109375,1.372327333984375
-0.1521262890625,-0.0082609033203125,1.3027753857421875
-0.24525064453125,-0.05213207275390625,1.1676037548828124
-0.34883021484375,-0.12418863037109375,1.12017080078125
-0.29825615234375,-0.12909043701171874,1.15556119140625
-0.2416034765625,-0.13301188232421876,1.271071494140625
-0.279047734375,-0.16095218017578125,1.189476982421875
-0.27029453125,-0.16242272216796874,1.1093570703125
-0.18081734375,-0.281291533203125,0.93535431640625
-0.25886673828125,-0.24281235107421875,0.93732044921875
-0.18154677734375,-0.18055940673828125,0.9606682763671874
-0.23139140625,-0.27075264892578127,0.9129895556640625
-0.020828242187500002,-0.25506686767578124,0.84294607421875
0.0190474609375,-0.26143921630859374,0.97074470703125
-0.10860341796875,-0.251880693359375,0.9783634716796875
-0.16185207031249998,-0.2013920849609375,0.986965302734375
-0.24087404296875,-0.23594982177734375,1.041033955078125
-0.35977171875,-0.1455114892578125,1.020389560546875
-0.33083751953125,-0.17222633544921875,0.9881941357421875
-0.25935302734375,-0.12541408203125,0.8633447021484375
-0.30166017578125,-0.046249904785156254,0.775606025390625
-0.13875333984375,-0.0768861962890625,0.712689775390625
0.0032430664062499982,-0.12026718505859375,0.7475886328125
-0.08915185546875,-0.12149263671875,0.8387680419921875
-0.044899550781250006,-0.12860025634765626,0.92748978515625
-0.07699462890625,-0.15948163818359376,0.94125271484375
-0.14847912109375,-0.093062158203125,0.9297016845703125
-0.13024328125,-0.046004814453125,0.9424815478515625
-0.10179537109375,0.07065818359375,0.9046334912109375
-0.11930177734375,0.079481435546875,0.89799779296875
-0.117599765625,0.05619785400390625,0.907336923828125
-0.1375376171875,0.00325834228515625,0.833606943359375
-0.0733474609375,-0.048455717773437504,0.8073099169921875
-0.10422681640625,-0.0332601171875,0.7593854296875
-0.10130908203125,-0.1660990771484375,0.6819689501953125
-0.07188859375000001,-0.18055940673828125,0.6539515576171875
-0.02933830078125,-0.05409279541015625,0.664519521484375
0.07424126953125,-0.122472998046875,0.6917996142578124
0.08153560546875,-0.08791526123046875,0.8540055712890625
0.0326635546875,-0.0006631030273437505,1.016948828125
-0.18932740234375,0.17237067138671874,1.0806023779296874
-0.17182099609375,0.04124734375,1.0688055810546875
-0.209022109375,0.03512008544921875,0.9559987109375
-0.197351171875,0.0633054736328125,0.80952181640625
-0.07310431640625001,-0.02321141357421875,0.8146829150390625
-0.07407689453124999,-0.10213050048828125,0.969270107421875
-0.12659611328125,-0.02909358154296875,1.063644482421875
-0.1141957421875,-0.15212892822265625,1.1184504345703126
-0.1171134765625,-0.0631611376953125,0.9936010009765625
-0.26154132812499997,-0.01291761962890625,0.9196252539062499
-0.2143712890625,-0.06585713134765625,0.762826162109375
-0.1540714453125,-0.05801424072265625,0.889641728515625
-0.17303671874999998,-0.02370159423828125,1.0889584423828125
-0.15723232421875,-0.0092412646484375,1.148188193359375
-0.30166017578125,-0.142080224609375,0.93732044921875
-0.2610550390625,-0.10164031982421876,0.820827080078125
-0.28609892578125,-0.08105273193359375,0.7104778759765625
-0.21193984375,-0.02149578125,0.7311222705078125
-0.22628537109375,-0.16193254150390626,0.81148794921875
-0.20732009765625,-0.046249904785156254,0.9356000830078125
-0.148722265625,-0.0151234326171875,1.06806828125
-0.1783858984375,-0.0327699365234375,1.1145181689453125
-0.10374052734375,-0.098944326171875,1.1425355615234376
-0.0072121484375,-0.26339993896484376,1.108865537109375
0.01685916015625,-0.3712396850585937,1.273037626953125
-0.09352845703125,-0.27859553955078126,1.521753427734375
-0.3271903515625,-0.33594667724609373,1.3961666943359374
-0.3072525,-0.30653583740234375,1.2627154296875
-0.23357970703125,-0.31241800537109377,1.1572815576171875
-0.15091056640625,-0.41143449951171873,1.0535680517578125
-0.0480604296875,-0.42123811279296874,1.2548508984375
-0.04271125,-0.3984447119140625,1.276969892578125
-0.13632189453125,-0.23300873779296874,1.111323203125
-0.137051328125,-0.16242272216796874,0.977134638671875
-0.02787943359375,-0.18889247802734374,0.867031201171875
-0.10544253906250001,-0.13546278564453124,1.1440101611328124
-0.05900193359375,-0.25090033203125,1.5190499951171874
-0.183735078125,-0.1665892578125,1.77096076171875
-0.11492517578125,-0.1533543798828125,1.8063511523437499
-0.30555048828125,-0.13497260498046876,1.5760678466796876
-0.33424154296874997,-0.1513936572265625,1.13589986328125
-0.4030514453125,-0.22369530517578126,1.14966279296875
-0.39405509765625,-0.17761832275390624,1.135408330078125
-0.17814275390625,-0.1866866650390625,1.035135556640625
-0.01426333984375,-0.23104801513671874,0.932896650390625
-0.02058509765625,-0.2604588549804687,0.8834975634765625
-0.01231818359375,-0.25751777099609374,0.773148359375
-0.000890390625000001,-0.27516427490234374,0.7001556787109375
-0.041495527343750005,-0.29918312744140624,0.741198701171875
-0.15771861328125,-0.2729584619140625,0.7306307373046875
-0.2221519140625,-0.18938265869140625,0.6588668896484375
-0.1827625,-0.11438501708984375,0.6296206640625
-0.10203851562499999,0.02237538818359375,0.8200897802734375
-0.1258666796875,-0.06291604736328126,1.065610615234375
-0.2328502734375,0.008895419921875,1.227816572265625
-0.25400384765625,0.1314405859375,1.2570627978515625
-0.38457246093749997,-0.0464949951171875,1.1803836181640626
-0.25740787109375,0.1456558251953125,1.1646545556640624
-0.19078626953125,0.16991976806640624,1.0609410498046874
-0.302389609375,-0.0259074072265625,1.1877566162109374
-0.25497642578125,0.07825598388671876,1.319241748046875
-0.22774423828125,0.11649007568359375,1.221426640625
-0.27491427734375,-0.06634731201171876,1.045949287109375
-0.31868029296875,0.064776015625,0.9046334912109375
-0.36147373046875,-0.027868129882812502,0.7942842871093749
-0.39600025390625,-0.22467566650390625,0.739232568359375
-0.3500459375,-0.23594982177734375,0.6770536181640625
-0.3865176171875,-0.16854998046875,0.7733941259765625
-0.29290697265625,-0.27026246826171874,0.8014115185546875
-0.20245720703125,-0.32026089599609375,0.9454307470703125
-0.0947441796875,-0.2974674951171875,1.0717547802734375
-0.16695810546875,-0.358740078125,1.08084814453125
-0.22920310546875,-0.39599380859375,0.9970417333984375
-0.16841697265625,-0.34893646484375,0.8540055712890625
-0.17692703125,-0.33839758056640623,0.769707626953125
-0.13534931640625,-0.3486913745117188,0.7542243310546874
-0.1268392578125,-0.3670731494140625,0.8871840625
-0.14993798828125,-0.3484462841796875,0.9085657568359375
-0.09839134765625,-0.13301188232421876,0.9655836083984375
-0.1569891796875,-0.2004117236328125,0.918150654296875
-0.03128345703125,-0.11781628173828125,0.979100771484375
0.02512607421875,-0.028358310546875,1.0334151904296875
-0.08526154296874999,-0.0190448779296875,1.1843158837890626
-0.26907880859375,-0.1038461328125,1.2958939208984375
-0.2488978125,-0.05703387939453125,1.2676307617187499
-0.34737134765625,-0.076396015625,1.037101689453125
-0.1978374609375,-0.09036616455078125,0.8471241064453126
-0.1326747265625,-0.214626962890625,0.67189251953125
-0.07407689453124999,-0.10065995849609374,0.7119524755859374
-0.08526154296874999,-0.204823349609375,0.845403740234375
-0.1628246484375,-0.155805283203125,0.8019030517578125
-0.183735078125,-0.19722554931640626,0.7640549951171876
-0.18300564453125,-0.093062158203125,0.7419360009765625
-0.07310431640625001,-0.210705517578125,0.6075016699218749
-0.01912623046875,-0.107767578125,0.6677144873046875
-0.21315556640625,-0.0337502978515625,0.7463597998046875
-0.15723232421875,0.08634396484375,0.8540055712890625
0.076915859375,0.0069346972656249995,0.9636174755859375
0.057707441406250004,0.0613447509765625,1.245511767578125
-0.0247185546875,-0.05899460205078125,1.4907868359375
-0.333512109375,-0.11095375244140625,1.57139828125
-0.50881931640625,-0.0729647509765625,1.2880293896484374
-0.3933256640625,-0.09918941650390625,1.0874838427734375
-0.33375525390625,-0.07075893798828126,1.098051806640625
-0.19127255859375,0.1211467919921875,1.1735021533203125
-0.02058509765625,0.0525214990234375,1.2256046728515626
0.010780546874999998,0.1064413720703125,1.1798920849609376
-0.02836572265625,0.06796218994140625,1.001219765625
-0.1866528125,-0.0308092138671875,0.921099853515625
-0.34688505859375,0.046149150390625,0.92552365234375
-0.423961875,0.0878145068359375,0.93142205078125
-0.343237890625,0.1152646240234375,0.8871840625
-0.24865466796875,0.13952856689453125,0.8576920703124999
-0.1667149609375,0.13266603759765624,0.9306847509765624
-0.27394169921875,0.14639109619140625,0.81738634765625
-0.35126166015625,0.11992134033203125,0.7394783349609375
-0.3038484765625,0.13732275390625,0.704825244140625
-0.1385101953125,0.157910341796875,0.7325968701171874
-0.09158330078125,0.07237381591796875,0.8456495068359375
-0.09450103515625,0.04320806640625,0.875387265625
-0.1268392578125,0.04982550537109375,0.830657744140625
-0.31333111328125,0.0368357177734375,0.8372934423828124
-0.4458448828125,-0.01732924560546875,0.8136998486328125
-0.40937320312500003,0.1123235400390625,0.9606682763671874
-0.47283392578125,0.2358490673828125,1.1213996337890624
-0.5450478515625,0.21207530517578124,1.2939277880859374
-0.28026345703125,0.27065189453125,1.2315030712890624
0.03728330078125,0.02335574951171875,1.2639442626953126
0.04482078125,-0.0788469189453125,1.321207880859375
0.030232109375,-0.053847705078125,1.6969850146484375
-0.28707150390625,-0.17835359375,1.8938440625
-0.44560173828125,-0.20457825927734374,1.661840390625
-0.584437265625,-0.206784072265625,1.4689136083984375
-0.496905234375,-0.2543315966796875,1.289749755859375
-0.39308251953125,-0.10213050048828125,1.154086591796875
-0.32694720703125,0.02923791748046875,1.070525947265625
-0.37022693359375003,0.026541923828125,0.93928658203125
-0.31381740234375,-0.1406096826171875,0.6976980126953125
-0.152612578125,-0.18448085205078124,0.65911265625
-0.1248941015625,-0.1817848583984375,0.6922911474609375
-0.16258150390625,-0.1062970361328125,0.8073099169921875
-0.27515742187500003,-0.16781470947265625,0.791335087890625
-0.2688356640625,-0.14575657958984375,0.938303515625
-0.18397822265625,-0.108747939453125,1.001219765625
-0.12902755859375,-0.20604880126953126,1.0869923095703125
-0.052680175781250005,-0.16928525146484374,0.92552365234375
-0.2007551953125,-0.154824921875,0.796250419921875
-0.1997826171875,-0.21952876953125,0.635027529296875
-0.17230728515625,-0.210705517578125,0.5964421728515625
0.051385683593749995,-0.17663796142578125,0.7306307373046875
0.0657312109375,-0.181294677734375,0.915201455078125
-0.10811712890625,-0.15016820556640625,1.198324580078125
-0.2659179296875,-0.060710234375,1.2054518115234374
-0.18227621093750002,-0.0543378857421875,0.8839890966796875
-0.01912623046875,0.02237538818359375,0.7768348583984375
0.02658494140625,0.07678544189453125,0.721537373046875
0.04749537109375,0.0642858349609375,0.792318154296875
-0.03566005859375,0.0686974609375,0.8537598046875
-0.060947089843749996,0.09590248779296875,0.9242948193359375
-0.097175625,0.0691876416015625,1.1081282373046875
-0.1171134765625,0.0809519775390625,1.1715360205078125
-0.1783858984375,0.03144373046875,1.2241300732421876
-0.055354765624999996,0.022620478515625,1.0388220556640624
-0.1530988671875,0.06502110595703126,0.94911724609375
-0.0791829296875,0.01453249755859375,0.8871840625
-0.08720669921875,0.04443351806640625,0.8372934423828124
-0.111764296875,0.05374695068359375,0.8230389794921875
-0.1482359765625,-0.03546593017578125,0.8584293701171875
-0.15869119140625,-0.0288484912109375,0.7306307373046875
-0.1161408984375,0.010611052246093749,0.6269172314453125
-0.08526154296874999,0.00325834228515625,0.57161974609375
-0.05243703125,0.03928662109375,0.6013575048828125
-0.07188859375000001,0.05227640869140625,0.7596311962890625
-0.10617197265625,0.0907555908203125,0.8301662109375
-0.2017277734375,0.10595119140625,0.883743330078125
-0.18640966796875,0.157910341796875,0.7935469873046875
-0.14945169921875,0.14124419921875,0.69351998046875
-0.14896541015625,0.18168410400390625,0.6991726123046875
-0.16525609375,0.19638952392578124,0.7593854296875
-0.0714023046875,0.1025199267578125,0.8127167822265625
0.011023691406250001,0.1387932958984375,0.901438525390625
0.007376523437500001,0.042227705078125,0.918150654296875
8.218750000000066e-05,0.06502110595703126,0.9395323486328125
-0.23066197265625,0.1358522119140625,0.8264797119140626
-0.2678630859375,0.15913579345703124,0.7940385205078125
-0.1676875390625,0.2260454541015625,0.8205813134765625
-0.1958923046875,0.28609258544921873,1.0739666796875
-0.166228671875,0.33511065185546873,1.257308564453125
-0.13948277343749999,0.34589462646484376,1.3177671484375
-0.1715778515625,0.308885986328125,1.139340595703125
-0.1929745703125,0.16256705810546876,0.943710380859375
-0.2231244921875,0.1731059423828125,1.039067822265625
-0.33667298828125003,0.12482314697265626,1.0973145068359376
-0.411318359375,0.093206494140625,1.173747919921875
-0.32840607421875,0.22359455078125,1.026287958984375
-0.15188314453125001,0.1358522119140625,0.883743330078125
-0.201241484375,0.24785849365234375,0.8992266259765624
-0.31770771484375,0.20031096923828126,0.967303974609375
-0.30457791015625,0.16256705810546876,1.0162115283203126
-0.23649744140625,0.14786163818359374,1.1526119921875
-0.2659179296875,0.22089855712890624,1.2034856787109376
-0.40183572265625,0.20080114990234374,1.238630302734375
-0.42323244140625,0.0515411376953125,1.1843158837890626
-0.36925435546875,0.14884199951171875,1.2152824755859375
-0.40864376953125,0.0593840283203125,1.2315030712890624
-0.44049570312499997,0.09688284912109375,1.2511643994140624
-0.3500459375,0.0074248779296875,1.18898544921875
-0.4273658984375,-0.05654369873046875,1.1071451708984374
-0.3096839453125,-0.1484525732421875,1.003677431640625
-0.27442798828125,-0.0411030078125,0.92552365234375
-0.2756437109375,-0.15261910888671876,1.0781447119140626
-0.21193984375,-0.15408965087890625,1.328089345703125
-0.282938046875,0.0407571630859375,1.5293721923828125
-0.50784673828125,-0.0798272802734375,1.4320486181640626
-0.50492900390625,-0.0406128271484375,1.3322673779296874
-0.3962433984375,0.04492369873046875,1.201273779296875
-0.3573402734375,-0.030319033203124998,1.1459762939453124
-0.2639727734375,0.09492212646484376,1.2919616552734374
-0.23528171875,-0.08497417724609375,1.32071634765625
-0.1900568359375,0.01600303955078125,1.344801474609375
-0.2834243359375,0.03928662109375,1.3502083398437499
-0.37800755859375,-0.1386489599609375,1.285817490234375
-0.31624884765625,-0.010711806640625,1.3484879736328126
-0.37752126953125,-0.02517213623046875,1.2290454052734374
-0.40961634765625,-0.06977857666015624,1.009084296875
-0.28634207031250003,-0.13791368896484374,0.9159387548828125
-0.17814275390625,0.004973974609375,0.8849721630859375
-0.10519939453125,-0.0513968017578125,0.9646005419921875
-0.002835546875000001,-0.10016977783203125,1.090187275390625
-0.1326747265625,-0.03056412353515625,1.3059703515625
-0.34493990234375,-0.14085477294921875,1.2649273291015626
-0.30117388671875,-0.065612041015625,0.93928658203125
-0.25351755859375,-0.075415654296875,0.722520439453125
-0.203186640625,-0.1268846240234375,0.68172318359375
-0.159420625,-0.20702916259765625,0.6455954931640625
-0.0431975390625,0.0142874072265625,0.6967149462890625
0.0667037890625,0.049090234375,0.7601227294921875
0.11217181640625,-0.01169216796875,0.7910893212890625
0.07667271484375,0.0025230712890624996,0.7645465283203124
0.0881005078125,0.0946770361328125,0.9144641552734375
0.008349101562499999,0.23952542236328125,1.0412797216796874
-0.18640966796875,0.3407477294921875,1.20078224609375
-0.37338781249999997,0.3289833935546875,1.3430811083984375
-0.3281629296875,0.08168724853515624,1.0496357861328125
-0.2566784375,0.04320806640625,0.7576650634765625
-0.10422681640625,0.06060947998046875,0.3713199658203125
-0.06483740234375,0.01306195556640625,0.1825712158203125
-0.0266637109375,-0.03105430419921875,0.11203620117187499
0.007133378906249998,-0.02468195556640625,0.1535707568359375
-0.0033218359375,-0.03203466552734375,0.2838270556640625
0.03728330078125,0.0093856005859375,0.526890224609375
0.05235826171875,0.12727405029296876,0.8466325732421875
0.054789707031249996,0.216732021484375,1.0122792626953125
-0.10203851562499999,0.2956511083984375,1.191443115234375
-0.30457791015625,0.4054515771484375,1.22044357421875
-0.24306234375,0.3316793872070313,1.0589749169921876
-0.240144609375,0.32579721923828125,0.9174133544921875
-0.22482650390625,0.3074154443359375,0.98942296875
-0.18397822265625,0.33854191650390625,0.88030259765625
-0.10276794921875,0.250064306640625,0.8264797119140626
-0.05365275390625,0.18952699462890624,0.7222746728515625
-0.1997826171875,0.16893940673828126,0.6229849658203125
0.00616080078125,0.08511851318359374,0.63060373046875
0.0764295703125,0.09688284912109375,0.7439021337890624
-0.1477496875,0.1574201611328125,0.891607861328125
-0.1321884375,0.1652630517578125,1.1012467724609376
-0.0947441796875,0.2177123828125,1.098051806640625
-0.14945169921875,0.0829127001953125,1.1651460888671874
-0.10179537109375,0.17286085205078125,1.159984990234375
-0.22628537109375,0.15031254150390624,1.25190169921875
-0.26518849609375,0.15668489013671874,1.1518746923828125
-0.08672041015625,0.169674677734375,1.1440101611328124
-0.09985021484375001,0.1809488330078125,1.176697119140625
-0.21193984375,0.1740863037109375,1.2005364794921876
-0.1034973828125,0.0819323388671875,0.9749227392578125
0.05576228515625,0.14688127685546876,0.8038691845703125
0.02512607421875,0.23143744140625,0.879811064453125
-0.06483740234375,0.14908708984375,1.1921804150390625
-0.26616107421875,0.20790876953125,1.5111854638671876
-0.42031470703125,0.19001717529296874,1.5323213916015626
-0.53702408203125,0.24638795166015626,1.3460303076171876
-0.415208671875,0.11943115966796874,1.05332228515625
-0.39867484375,0.1780077490234375,1.1430270947265626
-0.22336763671875,0.1584005224609375,1.2885209228515624
-0.218747890625,0.12188206298828125,1.3996074267578125
-0.2484115234375,0.14884199951171875,1.3961666943359374
-0.1560166015625,0.14590091552734374,1.28139369140625
-0.27296912109375,0.159871064453125,1.16342572265625
-0.29339326171875,0.15692998046875,1.077407412109375
-0.37217208984375,0.1534987158203125,1.04742388671875
-0.24136033203125,0.1191860693359375,0.97369390625
-0.34007701171875,0.25815228759765624,1.0127707958984375
-0.38578818359375,0.16403760009765625,1.13196759765625
-0.317950859375,0.14786163818359374,1.1209081005859376
-0.27929087890625,0.25423084228515624,1.2487067333984374
-0.35661083984374997,0.22334946044921875,1.4118957568359374
-0.5032269921875,0.20178151123046875,1.3180129150390625
-0.44049570312499997,0.3299637548828125,1.1282810986328125
-0.38821962890625,0.275553701171875,0.9793465380859375
-0.3242726171875,0.22432982177734376,0.81935248046875
-0.14750654296875,0.24712322265625,0.8053437841796875
-0.25497642578125,0.18413500732421875,0.8259881787109375
-0.3320532421875,0.1235976953125,0.7613515625
-0.3612305859375,0.15080272216796875,0.7650380615234375
-0.32986494140625,0.20913422119140626,0.72301197265625
-0.24476435546875,0.22285927978515624,0.9284728515625
-0.268349375,0.06624655761718751,1.1007552392578126
-0.255705859375,0.1941837109375,1.2457575341796876
-0.22968939453125,0.16109651611328124,1.2334692041015625
-0.3612305859375,0.11550971435546875,1.0919076416015625
-0.3729015234375,0.15962597412109375,0.915201455078125
-0.29387955078125,0.190262265625,0.7453767333984375
-0.1958923046875,0.08756941650390625,0.705808310546875
-0.2007551953125,0.13364639892578126,0.7869112890625
-0.12027435546875,0.1299700439453125,0.864082001953125
-0.09061072265625,0.11845079833984375,0.79575888671875
-0.19370400390625,0.1603612451171875,0.74857169921875
-0.2318776953125,0.232417802734375,0.762826162109375
-0.21850474609375,0.20276187255859374,0.968287041015625
-0.29752671875000003,0.275553701171875,1.230765771484375
-0.299471875,0.30668017333984376,1.398870126953125
-0.26081189453125,0.25276030029296875,1.39837859375
-0.2717533984375,0.057668395996093746,1.1268064990234374
-0.32646091796875,0.1260485986328125,1.0181776611328126
-0.2746711328125,0.07629526123046874,0.976151572265625
-0.19127255859375,0.00619942626953125,1.0088385302734375
-0.26713365234374997,0.11698025634765626,1.0275167919921875
-0.10422681640625,0.0059543359375,0.8019030517578125
-0.23114826171875,0.046149150390625,0.66009572265625
-0.18446451171875,0.1476165478515625,0.5981625390625
-0.08137123046875,0.1819291943359375,0.7758517919921875
-0.18640966796875,0.02286556884765625,0.9783634716796875
-0.206104375,0.077520712890625,1.1287726318359375
-0.10471310546875,0.15668489013671874,1.2118417431640625
-0.31284482421875,0.1025199267578125,1.24600330078125
-0.33861814453125,0.17139031005859376,1.0373474560546876
-0.392839375,0.09492212646484376,0.8756330322265625
-0.4079143359375,0.16550814208984374,0.7837163232421875
-0.27442798828125,0.2250650927734375,0.7475886328125
0.07375498046875,0.12335260498046875,0.8618701025390625
0.007133378906249998,0.0966377587890625,0.9587021435546875
-0.117599765625,0.0035034326171875,0.9134810888671875
-0.14167107421875,-0.03301502685546875,0.80362341796875
-0.251815546875,0.15300853515625001,0.8348357763671875
-0.29922873046875,0.143204921875,0.9154472216796875
-0.216802734375,0.12825441162109374,1.058729150390625
-0.31624884765625,0.220653466796875,1.1086197705078125
-0.3563676953125,0.187321181640625,0.9031588916015625
-0.13680818359375,0.21256548583984375,0.7964961865234375
-0.10811712890625,0.284376953125,0.96484630859375
-0.34810078125,0.257907197265625,1.160968056640625
-0.36390517578125,0.124578056640625,1.095594140625
-0.21266927734375,0.2240847314453125,0.9075826904296875
-0.12416466796875,0.2044775048828125,0.71318130859375
-0.21753216796875,0.13952856689453125,0.6760705517578125
-0.191515703125,0.1084020947265625,0.7571735302734375
-0.1404553515625,0.2201632861328125,0.9075826904296875
-0.25886673828125,0.1074217333984375,1.100017939453125
-0.424934453125,0.21403602783203124,1.2526389990234374
-0.40329458984375,0.24148614501953125,1.06806828125
-0.35199109375,0.0711483642578125,0.8559717041015625
-0.321841171875,0.08953013916015624,0.7026133447265624
-0.273212265625,0.0897752294921875,0.6888504150390625
-0.174009296875,0.03757098876953125,0.85277673828125
-0.37606240234375,0.1000690234375,0.950591845703125
-0.41058892578125,0.20472259521484376,0.950591845703125
-0.25084296875,0.12335260498046875,0.8692431005859375
-0.3787369921875,0.143204921875,0.8333611767578125
-0.20440236328125,0.10276501708984374,0.891116328125
-0.25059982421875,0.1250682373046875,0.972219306640625
-0.28220861328125,0.1863408203125,0.9842618701171875
-0.358799140625,0.14418528320312501,0.987948369140625
-0.389921640625,0.12139188232421876,0.9896687353515625
-0.36682291015625,0.20962440185546874,0.9749227392578125
-0.35709712890625,0.132420947265625,0.864082001953125
-0.34348103515625,0.174576484375,0.8191067138671875
-0.3515048046875,0.14295983154296876,0.8078014501953125
-0.22288134765625,0.18830154296875,0.8751414990234375
-0.20804953125,0.2142811181640625,1.0830600439453124
-0.2425760546875,0.1079119140625,1.2374014697265625
-0.35272052734375,0.1211467919921875,1.163917255859375
-0.339347578125,0.13658748291015624,0.932896650390625
-0.12246265625,0.2005560595703125,0.902913125
-0.24865466796875,0.1074217333984375,1.038084755859375
-0.2921775390625,0.02874773681640625,1.251410166015625
-0.31308796875,0.01551285888671875,1.2993346533203125
-0.28707150390625,0.12286242431640625,1.11820466796875
-0.33326896484375,0.0584036669921875,0.94518498046875
-0.24476435546875,0.04051207275390625,0.8082929833984375
-0.15285572265625,0.09345158447265625,0.84097994140625
-0.312115390625,0.1309504052734375,1.0299744580078125
-0.22531279296875,0.0289928271484375,1.139340595703125
-0.19564916015625,0.07874616455078125,1.3553694384765624
-0.20026890625,0.077520712890625,1.309411083984375
-0.2484115234375,0.00791505859375,1.189968515625
-0.25886673828125,-0.0121823486328125,1.0759328125
-0.39502767578125,0.05423713134765625,1.0943653076171875
-0.4419545703125,0.008895419921875,0.9449392138671875
-0.2309051171875,-0.03522083984375,0.84884447265625
-0.1385101953125,0.024581201171875,0.906845390625
-0.2143712890625,0.0103659619140625,1.02383029296875
-0.1793584765625,-0.02860340087890625,1.1302472314453125
-0.214857578125,0.04100225341796875,1.1327048974609375
-0.3126016796875,0.1407540185546875,1.1390948291015626
-0.25838044921875,0.0010525292968750002,1.124594599609375
-0.32743349609375,0.0103659619140625,1.1100943701171875
-0.26421591796875,0.09394176513671874,1.07494974609375
-0.244034921875,0.1633023291015625,0.97664310546875
-0.1783858984375,0.03610044677734375,0.904387724609375
-0.16793068359375,0.01208159423828125,0.8643277685546875
-0.10617197265625,-0.040122646484374996,0.94321884765625
-0.1414279296875,-0.09526797119140624,1.012525029296875
-0.230418828125,-0.02468195556640625,1.004660498046875
-0.20780638671875,-0.06634731201171876,0.94223578125
-0.1900568359375,0.07923634521484375,0.92552365234375
-0.19953947265625,0.06011929931640625,0.921099853515625
-0.107873984375,-0.0827683642578125,0.9183964208984375
-0.010129882812500001,0.00791505859375,0.9614055761718749
-0.10130908203125,0.10595119140625,0.9759058056640625
-0.16355408203125,-0.01634888427734375,0.8741584326171875
-0.1929745703125,0.073599267578125,0.8775991650390624
-0.166228671875,0.02090484619140625,0.9714820068359376
-0.18543708984375,0.0495804150390625,1.050864619140625
-0.16890326171875,0.04786478271484375,1.1211538671875
-0.213885,0.00325834228515625,1.0545511181640626
-0.2333365625,-0.04306373046875,0.867031201171875
-0.07602205078125,0.01183650390625,0.77216529296875
-0.06337853515625,-0.05899460205078125,0.7556989306640625
-0.010616171875,0.11550971435546875,0.9483799462890625
-0.06799828125,0.009140510253906251,1.189968515625
-0.3155194140625,0.021885207519531248,1.1897227490234374
-0.397702265625,0.19589934326171876,1.2034856787109376
-0.27540056640625,0.04639424072265625,0.86359046875
-0.28901666015625,0.096147578125,0.74660556640625
-0.16063634765625,0.0809519775390625,0.7208000732421875
-0.2143712890625,-0.038161923828125,0.6549346240234375
-0.1599069140625,0.14345001220703124,0.747097099609375
-0.08331638671875,0.114774443359375,0.76823302734375
-0.23528171875,0.02433611083984375,0.9513291455078126
-0.1511537109375,0.026296833496093748,1.1867735498046874
-0.1317021484375,0.0922261328125,1.34234380859375
-0.28464005859375,0.02752228515625,1.266156162109375
-0.30846822265625,0.12433296630859375,1.1644087890625
-0.3505322265625,0.07041309326171875,1.0189149609375
-0.48547744140625,0.09541230712890625,1.00023669921875
-0.3641483203125,-0.11830646240234374,0.8599039697265625
-0.0072121484375,-0.024436865234375,0.7429190673828125
-0.07310431640625001,-0.006790361328125,0.736283369140625
-0.10763083984374999,-0.08056255126953125,0.7311222705078125
-0.19613544921875,0.12188206298828125,0.71711357421875
-0.1871391015625,0.22947671875,0.7753602587890625
-0.1599069140625,0.04492369873046875,1.079865078125
-0.26518849609375,0.2515348486328125,1.329072412109375
-0.23747001953125,0.31305252197265626,1.3534033056640624
-0.3359435546875,0.01845394287109375,1.234698037109375
-0.27345541015625,0.1250682373046875,1.0329236572265625
-0.22823052734375,0.10570610107421875,0.8397511083984375
-0.0918264453125,-0.0308092138671875,0.8616243359375
-0.15285572265625,0.06624655761718751,1.0751955126953125
-0.259596171875,0.09639266845703125,1.129509931640625
-0.298499296875,0.02041466552734375,1.05725455078125
-0.28707150390625,0.2093793115234375,0.900455458984375
-0.25546271484375,0.193203349609375,0.8677685009765626
-0.1482359765625,0.07457962890625,0.81345408203125
-0.002106113281250002,0.0799716162109375,0.920116787109375
-0.1297569921875,0.04492369873046875,1.10444173828125
-0.19832375,0.0250713818359375,1.1636714892578124
-0.2552195703125,0.0887948681640625,1.0191607275390624
-0.23163455078125,0.0858537841796875,0.9257694189453125
-0.29971501953125,0.1260485986328125,0.8427003076171875
-0.242089765625,0.1348718505859375,0.936828916015625
-0.2630001953125,0.16158669677734375,1.04742388671875
-0.3495596484375,0.158890703125,1.193409248046875
-0.27005138671875,0.2280061767578125,1.1209081005859376
-0.21583015625000002,0.22383964111328125,0.9481341796875
-0.1589343359375,0.12776423095703124,0.759876962890625
-0.07553576171875,0.1133039013671875,0.7529954980468749
-0.156502890625,-0.03252484619140625,0.8549886376953125
-0.25983931640625,0.064776015625,0.9523122119140625
-0.2552195703125,0.10717664306640624,1.1312302978515625
-0.19759431640625,0.03144373046875,1.0604495166015624
-0.22579908203125,0.101049384765625,0.9881941357421875
-0.1647698046875,0.203006962890625,0.9906518017578125
-0.3344846875,0.00987578125,0.871946533203125
-0.2454937890625,0.114774443359375,0.879811064453125
-0.20926525390625,0.12972495361328126,0.846386806640625
-0.12513724609375,0.0182088525390625,0.8078014501953125
-0.092312734375,0.05031568603515625,0.9685328076171875
-0.1336473046875,0.026296833496093748,1.2211808740234376
-0.0466015625,0.07261890625,1.2796733251953125
-0.2289599609375,0.16746886474609374,1.305478818359375
-0.30117388671875,0.21844765380859374,1.0589749169921876
-0.2873146484375,0.0162481298828125,0.89996392578125
-0.31746457031249997,0.0486000537109375,0.868014267578125
-0.08088494140625,0.06158984130859375,0.865065068359375
-0.07699462890625,0.0093856005859375,0.7856824560546875
0.01783173828125,-0.03522083984375,0.7291561376953125
-0.050491875000000006,-0.02762303955078125,0.7325968701171874
-0.30749564453125,0.00178780029296875,0.766758427734375
-0.15869119140625,-0.0371815625,0.9380577490234375
-0.034687480468750004,0.1015395654296875,1.2093840771484374
-0.1180860546875,0.0878145068359375,1.4200060546875
-0.26616107421875,0.14099910888671874,1.33546234375
-0.111764296875,0.03413972412109375,0.9641090087890625
-0.14969484375,0.08903995849609375,0.7163762744140625
-0.19346085937500002,0.08707923583984375,0.71711357421875
-0.18203306640625,0.0319339111328125,0.950591845703125
-0.2561921484375,0.0691876416015625,1.0791277783203126
-0.09425789062500001,0.04590406005859375,1.0879753759765625
-0.02933830078125,0.02139502685546875,1.0471781201171875
-0.20586123046875,0.05105095703125,1.0014655322265624
-0.10471310546875,0.059874208984374996,0.790352021484375
-0.1385101953125,0.0809519775390625,0.8741584326171875
-0.26178447265625,0.10399046875,1.0565172509765626
-0.29752671875000003,0.04786478271484375,1.1671122216796874
-0.1307295703125,-0.09820905517578125,1.0766701123046876
-0.14750654296875,0.021885207519531248,0.93535431640625
-0.22968939453125,-0.061690595703125004,0.890624794921875
-0.13607875,-0.10703230712890625,0.8417172412109375
-0.321841171875,0.019679394531249998,0.9277355517578125
-0.27831830078124997,0.083402880859375,0.922574453125
-0.17862904296875,-0.06585713134765625,0.9188879541015624
0.00616080078125,0.17531175537109375,0.9759058056640625
-0.0932853125,0.0608545703125,1.2118417431640625
-0.267376796875,-0.05213207275390625,1.186527783203125
-0.32281375,0.11379408203125,1.124594599609375
-0.2630001953125,0.0711483642578125,1.2015195458984376
-0.346155625,0.00816014892578125,1.1459762939453124
-0.3038484765625,0.0486000537109375,1.091661875
-0.25497642578125,-0.12026718505859375,0.97369390625
-0.27637314453125,-0.0411030078125,0.9284728515625
-0.27588685546875,-0.07615092529296875,0.8987350927734374
-0.236254296875,-0.1102184814453125,0.76626689453125
-0.096203046875,-0.1131595654296875,0.6286375976562499
-0.070916015625,-0.0847290869140625,0.64829892578125
-0.13802390625,-0.05017135009765625,0.9488714794921875
-0.290718671875,-0.0631611376953125,1.3278435791015626
-0.4186126953125,-0.07468038330078125,1.440158916015625
-0.46359443359375,-0.01732924560546875,1.2919616552734374
-0.40037685546875,0.014777587890624999,1.111323203125
-0.17911533203125,-0.09281706787109376,0.839505341796875
-0.1710915625,-0.10311086181640625,0.725469638671875
-0.24379177734375002,-0.081297822265625,0.6529684912109375
-0.2960678515625,-0.06389640869140625,0.68270625
-0.1550440234375,-0.11879664306640625,0.7751144921875
-0.06848457031249999,-0.0366913818359375,0.9665666748046875
-0.20464550781250002,-0.0023787353515625003,1.2391218359375
-0.2688356640625,-0.025662316894531252,1.3177671484375
-0.37508982421875,0.13217585693359374,1.1666206884765624
-0.36196001953125,0.16648850341796875,0.9105318896484375
-0.39745912109375,0.1157548046875,0.972219306640625
-0.35855599609375,-0.047965537109375,1.1263149658203124
-0.24914095703125,0.00619942626953125,1.238630302734375
-0.28464005859375,-0.17173615478515625,1.1066536376953124
-0.20464550781250002,-0.050661530761718754,0.8490902392578125
-0.2396583203125,-0.0001729223632812504,0.74070716796875
-0.24865466796875,-0.034240478515625,0.6652568212890625
-0.18495080078125,-0.15286419921875,0.8387680419921875
-0.32402947265625,-0.1023755908203125,0.9621428759765625
-0.2766162890625,-0.08399381591796876,1.118696201171875
-0.0704297265625,-0.03448556884765625,1.1238572998046874
-0.25011353515625,-0.0739451123046875,1.058729150390625
-0.29290697265625,-0.08497417724609375,0.8471241064453126
-0.20002576171875,-0.07075893798828126,0.6731213525390625
-0.16744439453124998,-0.02958376220703125,0.7901062548828125
-0.121490078125,-0.0053198193359375,1.0063808642578125
-0.1978374609375,-0.1298257080078125,1.1845616503906249
-0.12610982421875,-0.022476142578125,1.3032669189453125
-0.20391607421875,-0.06389640869140625,1.2138078759765625
-0.23406599609375,-0.0857094482421875,1.02186416015625
-0.1647698046875,-0.136198056640625,0.9267524853515625
-0.15528716796875,-0.11683592041015625,1.0255506591796875
-0.20051205078125,-0.18815720703125,1.05233921875
-0.26713365234374997,-0.1641383544921875,0.9596852099609375
-0.01474962890625,0.01257177490234375,0.99237216796875
-0.10106593750000001,-0.0651218603515625,1.0633987158203124
-0.08963814453125,-0.0553182470703125,1.1253318994140624
-0.1706052734375,-0.05899460205078125,1.068559814453125
-0.36196001953125,-0.03129939453125,0.9906518017578125
-0.36244630859375,-0.049926259765625,0.854251337890625
-0.148722265625,-0.04723026611328125,0.7262069384765625
-0.119544921875,-0.0298288525390625,0.63650212890625
-0.08574783203125,0.03217900146484375,0.7797840576171875
-0.06143337890625,-0.07811164794921875,0.928964384765625
-0.1958923046875,-0.06634731201171876,1.130492998046875
-0.2099946875,-0.0337502978515625,1.268613828125
-0.29144810546875,0.0005623486328125002,1.1046875048828124
-0.2523018359375,-0.00777072265625,0.89504859375
-0.04441326171875,-0.07811164794921875,0.81640328125
-0.10203851562499999,-0.11757119140625,1.0147369287109376
-0.2834243359375,-0.1357078759765625,1.1887396826171874
-0.4137498046875,-0.19403937500000001,1.07101748046875
-0.2153438671875,-0.1847259423828125,0.7566819970703125
-0.1161408984375,-0.1665892578125,0.8122252490234375
-0.14604767578125,-0.21879349853515626,0.9075826904296875
-0.113709453125,-0.0817880029296875,1.0737209130859375
-0.20488865234375,-0.18840229736328126,1.0250591259765625
-0.24306234375,-0.044044091796875,0.8908705615234375
-0.16598552734375,-0.195019736328125,0.7832247900390625
-0.13048642578125,-0.09820905517578125,1.0417712548828124
