ax,ay,az
-0.41156150390625,0.10423555908203125,0.9577190771484375
-0.360744296875,0.1054610107421875,0.9144641552734375
-0.34348103515625,0.1172253466796875,0.9203625537109374
-0.34810078125,0.07850107421875,0.94125271484375
-0.3874901953125,0.057668395996093746,0.8687515673828125
-0.39502767578125,0.08805959716796875,0.8267254785156251
-0.3855450390625,0.0427178857421875,0.87637033203125
-0.39697283203125,0.05962911865234375,0.9021758251953125
-0.38700390625000003,0.07286399658203124,0.9311762841796875
-0.35344996093750003,0.07825598388671876,0.9677955078125
-0.23601115234375,0.080461796875,0.954032578125
-0.25059982421875,0.06747200927734374,0.999745166015625
-0.28974609375,0.03757098876953125,1.04742388671875
-0.3656071875,0.03512008544921875,0.7606142626953125
-0.36974064453125,-0.0097314453125,0.694994580078125
-0.30020130859375,0.0270321044921875,0.7714279931640625
-0.331566953125,0.0858537841796875,0.916184521484375
-0.42931105468749997,0.01845394287109375,0.9459222802734375
-0.41934212890625,0.03512008544921875,1.0157199951171876
-0.43636224609375,0.0633054736328125,0.966320908203125
-0.3787369921875,0.013552136230468751,0.8004284521484375
-0.33715927734375,0.0054641552734375,0.7443936669921875
-0.33253953125,0.050070595703125,0.7365291357421875
-0.3417790234375,0.064776015625,0.7586481298828125
-0.35758341796875,0.063795654296875,0.7930554541015625
-0.38043900390625,0.12237224365234375,0.8166490478515624
-0.35977171875,0.1338914892578125,0.7547158642578125
-0.329621796875,0.0731090869140625,0.70629984375
-0.32791978515625,0.06355056396484375,0.6991726123046875
-0.38092529296875,0.0829127001953125,0.7208000732421875
-0.384086171875,0.11599989501953126,0.746114033203125
-0.4098594921875,0.11796061767578125,0.8328696435546875
-0.41447923828125,0.091245771484375,0.85474287109375
-0.38287044921875,0.0946770361328125,0.7758517919921875
-0.32743349609375,0.11011772705078125,0.747097099609375
-0.317950859375,0.11845079833984375,0.8073099169921875
-0.37460353515625,0.07384435791015626,0.7994453857421875
-0.3233000390625,0.0936966748046875,0.7043337109375
-0.3344846875,0.07727562255859374,0.6942572802734375
-0.32013916015625,0.11403917236328125,0.690079248046875
-0.32354318359375,0.0819323388671875,0.68565544921875
-0.34007701171875,0.07041309326171875,0.717605107421875
-0.35806970703125,0.08658905517578125,0.726452705078125
-0.37411724609375,0.09688284912109375,0.746114033203125
-0.3738741015625,0.112813720703125,0.7183424072265625
-0.3690112109375,0.09810830078125,0.71514744140625
-0.358799140625,0.0966377587890625,0.6455954931640625
-0.35466568359375,0.0907555908203125,0.5861199755859375
-0.3933256640625,0.11109808837890625,0.600620205078125
-0.4108320703125,0.16550814208984374,0.66206185546875
-0.39648654296875,0.181439013671875,0.72104583984375
-0.4419545703125,0.17727247802734375,0.7163762744140625
-0.41058892578125,0.17874302001953124,0.7746229589843749
-0.3033621875,0.05521749267578125,0.74267330078125
-0.38384302734375,0.03217900146484375,0.7099863427734375
-0.325731484375,0.09443194580078125,0.747097099609375
-0.4122909375,0.12874459228515625,0.8567090039062499
-0.403537734375,0.20374223388671875,0.9621428759765625
-0.3816547265625,0.238299970703125,1.0260421923828125
-0.34883021484375,0.23511379638671875,1.002694365234375
-0.39210994140625,0.29025912109375,0.97664310546875
-0.3660934765625,0.253985751953125,0.9370746826171875
-0.44414287109375,0.23021198974609375,0.989914501953125
-0.4468174609375,0.2613384619140625,1.05528841796875
-0.4156949609375,0.2574170166015625,0.998762099609375
-0.46529644531250003,0.2451625,1.0614325830078124
-0.46019041015625,0.25030939697265625,1.178663251953125
-0.506631015625,0.20521277587890624,1.1872650830078124
-0.51757251953125,0.1878113623046875,1.2049602783203124
-0.47380650390625,0.16648850341796875,1.1828412841796876
-0.40037685546875,0.1829095556640625,1.1322133642578125
-0.43393080078125,0.14737145751953126,1.215036708984375
-0.37071322265625,0.12727405029296876,1.38756486328125
-0.40086314453125,0.07874616455078125,1.4507268798828126
-0.43441708984375,0.00570924560546875,1.5406774560546874
-0.45532751953125,0.00178780029296875,1.5057785986328125
-0.5139253515625,-0.0001729223632812504,1.3590559375
-0.49179919921875,-0.0180645166015625,1.3366911767578125
-0.53313376953125,0.06943273193359376,1.4404046826171875
-0.49082662109375,-0.01585870361328125,1.4566252783203124
-0.47477908203125,0.01796376220703125,1.5505081201171875
-0.39113736328125,0.01649322021484375,1.52126189453125
-0.43101306640625,0.018699033203125,1.442125048828125
-0.46116298828125,-0.044534272460937496,1.3971497607421874
-0.48353228515625,-0.0474753564453125,1.354632138671875
-0.53483578125,-0.083258544921875,1.3312843115234374
-0.52146283203125,-0.093062158203125,1.3263689794921876
-0.5022544140625,-0.0778665576171875,1.2840971240234376
-0.52729830078125,-0.10311086181640625,1.254359365234375
-0.47283392578125,-0.1170810107421875,1.1857904833984374
-0.43149935546875,-0.18546121337890625,1.087238076171875
-0.39891798828125,-0.18301031005859375,1.08871267578125
-0.38432931640625,-0.20555862060546876,1.08281427734375
-0.39405509765625,-0.20506843994140625,1.1096028369140625
-0.44365658203125,-0.13007079833984375,1.05233921875
-0.50492900390625,-0.071494208984375,1.0260421923828125
-0.50590158203125,-0.09869923583984375,0.9936010009765625
-0.47283392578125,-0.08056255126953125,0.9609140429687499
-0.444386015625,-0.0327699365234375,1.006626630859375
-0.4400094140625,0.00619942626953125,1.03562708984375
-0.459947265625,0.0172284912109375,0.9729566064453125
-0.45824525390625,0.07237381591796875,0.7915808544921875
-0.4691867578125,0.03364954345703125,0.799199619140625
-0.4672416015625,0.09443194580078125,0.9164302880859375
-0.493014921875,0.09688284912109375,0.868014267578125
-0.446331171875,0.1348718505859375,0.9360916162109375
-0.4278521875,0.0843832421875,0.8702261669921875
-0.42420501953125,0.0883046875,0.7930554541015625
-0.42517759765625,0.0878145068359375,0.78592822265625
-0.40621232421875,0.09884357177734375,0.7330884033203124
-0.3767918359375,0.06673673828125,0.6964691796875
-0.3427516015625,0.06845237060546874,0.7163762744140625
-0.352963671875,0.06453092529296875,0.7357918359375
-0.368524921875,0.028502646484374998,0.702859111328125
-0.3553951171875,0.08609887451171874,0.759876962890625
-0.2878009375,0.08707923583984375,0.766758427734375
-0.25303126953125,0.12776423095703124,0.8498275390625
-0.31965287109375,0.15325362548828125,0.871946533203125
-0.314060546875,0.136342392578125,0.84884447265625
-0.387976484375,0.17482157470703125,0.8783364648437499
-0.37922328125,0.18707609130859376,0.9311762841796875
-0.347128203125,0.20668331787109376,0.954032578125
-0.32354318359375,0.2221240087890625,0.9520664453125
-0.345183046875,0.18903681396484376,0.8717007666015625
-0.3028758984375,0.13854820556640626,0.8112421826171875
-0.34348103515625,0.1074217333984375,0.769707626953125
-0.3067662109375,0.16011615478515626,0.76036849609375
-0.2805066015625,0.06257020263671875,0.7463597998046875
-0.302389609375,0.07923634521484375,0.8023945849609375
-0.284883203125,0.034384814453125,0.773148359375
-0.28366748046875,0.03610044677734375,0.7751144921875
-0.28901666015625,0.021885207519531248,0.7611057958984375
-0.32281375,-0.00262382568359375,0.749554765625
-0.25497642578125,0.00227798095703125,0.7999369189453125
-0.3262177734375,0.061834931640625,0.85081060546875
-0.2450075,0.1074217333984375,0.8893959619140624
-0.34980279296875,0.04002189208984375,0.86260740234375
-0.29582470703125,0.0613447509765625,0.8210728466796875
-0.32500205078125,0.08658905517578125,0.771673759765625
-0.33278267578125,0.03266918212890625,0.6888504150390625
-0.296554140625,0.06453092529296875,0.6610787890625
-0.32208431640625,0.10668646240234375,0.6519854248046875
-0.3962433984375,0.11992134033203125,0.68172318359375
-0.40572603515625,0.14516564453125,0.722520439453125
-0.39356880859375,0.19442880126953124,0.7178508740234375
-0.3378887109375,0.2564366552734375,0.769707626953125
-0.343237890625,0.2610933715820313,0.810013349609375
-0.33181009765625,0.3289833935546875,0.8930824609375
-0.33229638671875,0.307905625,0.94223578125
-0.38384302734375,0.24687813232421876,0.9292101513671875
-0.44219771484375,0.15472416748046874,0.920116787109375
-0.3729015234375,0.19835024658203124,0.8726838330078125
-0.42517759765625,0.22947671875,0.8731753662109375
-0.40815748046875,0.14737145751953126,0.8382765087890625
-0.3811684375,0.14884199951171875,0.7746229589843749
-0.392839375,0.1338914892578125,0.7360376025390625
-0.35077537109375,0.1471263671875,0.7266984716796875
-0.30068759765624997,0.0883046875,0.703842177734375
-0.32402947265625,0.1525183544921875,0.7458682666015625
-0.2416034765625,0.1280093212890625,0.770690693359375
-0.29776986328125,0.189281904296875,0.82721701171875
-0.41058892578125,0.20398732421875,0.870963466796875
-0.44511544921875,0.1642826904296875,0.8063268505859374
-0.44803318359375,0.16501796142578126,0.7650380615234375
-0.45313921875,0.17384121337890626,0.7733941259765625
-0.43368765625,0.1799684716796875,0.7711822265625
-0.32305689453124997,0.16599832275390625,0.7655295947265625
-0.39308251953125,0.15129290283203126,0.9065996240234375
-0.30311904296875003,0.1378129345703125,0.907336923828125
-0.35977171875,0.15325362548828125,0.9852449365234375
-0.323786328125,0.14835181884765625,1.0943653076171875
-0.36366203125,0.12237224365234375,1.1132893359375
-0.42274615234375,0.1348718505859375,1.1292641650390625
-0.4118046484375,0.12286242431640625,1.1474508935546874
-0.4682141796875,0.12433296630859375,1.0742124462890625
-0.52583943359375,0.11109808837890625,1.089204208984375
-0.45775896484375,0.1103628173828125,1.0953483740234375
-0.38043900390625,0.09737302978515625,1.1010010058593749
-0.3631757421875,0.11894097900390625,1.0938737744140625
-0.29776986328125,0.06698182861328125,1.085271943359375
-0.28658521484375,0.049090234375,1.1290183984375
-0.4409819921875,0.018699033203125,1.2526389990234374
-0.46991619140625,-0.0268877685546875,1.265173095703125
-0.44317029296875,-0.032279755859375,1.1410609619140626
-0.50784673828125,0.05668803466796875,1.1172216015625
-0.50371328125,-0.018554697265625,1.055779951171875
-0.42566388671875,0.07041309326171875,1.0582376171875
-0.415208671875,0.0711483642578125,1.18112091796875
-0.35223423828125,0.00791505859375,1.1093570703125
-0.38335673828125,-0.075415654296875,1.0923991748046875
-0.49325806640625003,-0.07566074462890625,1.198324580078125
-0.50760359375,-0.046004814453125,1.163917255859375
-0.48888146484375,-0.051886982421875,1.0319405908203125
-0.46310814453125,-0.03252484619140625,1.0936280078125
-0.407428046875,-0.0945327001953125,0.969270107421875
-0.41593810546875,-0.08742508056640624,0.98057537109375
-0.4594609765625,-0.02737794921875,1.02579642578125
-0.46359443359375,-0.0803174609375,0.859166669921875
-0.46359443359375,-0.06242586669921875,0.8065726171875
-0.426879609375,-0.077376376953125,0.75643623046875
-0.3656071875,-0.06781785400390625,0.733825703125
-0.372415234375,-0.023456503906250002,0.7161305078125
-0.3301080859375,-0.0175743359375,0.7365291357421875
-0.33813185546875,-0.02272123291015625,0.7709364599609375
-0.29363640625,0.01551285888671875,0.838522275390625
-0.3865176171875,0.0152677685546875,0.9518206787109375
-0.32548833984375003,0.07065818359375,1.0599579833984376
-0.4088869140625,0.11109808837890625,1.1725190869140625
-0.44317029296875,0.1079119140625,1.2487067333984374
-0.36220316406249997,0.13119549560546875,1.2005364794921876
-0.4351465234375,0.12947986328125,1.1445016943359374
-0.52194912109375,0.0770305322265625,1.115747001953125
-0.44219771484375,0.087324326171875,1.023338759765625
-0.47672423828125,0.10276501708984374,0.949608779296875
-0.41812640624999997,0.05423713134765625,0.88816712890625
-0.298499296875,0.03855135009765625,0.869980400390625
-0.35077537109375,-0.01978014892578125,0.868014267578125
-0.37557611328125,0.0152677685546875,0.8908705615234375
-0.407428046875,-0.0406128271484375,0.8176321142578125
-0.3991611328125,-0.08423890625,0.747097099609375
-0.41253408203124997,-0.03105430419921875,0.7365291357421875
-0.44317029296875,-0.07222947998046875,0.7335799365234374
-0.2766162890625,-0.09232688720703125,0.79575888671875
-0.35369310546875,-0.1445311279296875,0.9719735400390626
-0.39502767578125,-0.07958218994140626,1.14671359375
-0.3855450390625,-0.0646316796875,1.17522251953125
-0.352963671875,-0.0141430712890625,1.0727378466796875
-0.3787369921875,0.00178780029296875,0.900455458984375
-0.39989056640625,0.09737302978515625,0.88226873046875
-0.3563676953125,0.053992041015625,0.905370791015625
-0.3680386328125,0.05717821533203125,1.0447204541015624
-0.3631757421875,0.1015395654296875,1.145238994140625
-0.43757796875,0.13168567626953126,1.1562984912109375
-0.52778458984375,0.16256705810546876,1.1056705712890624
-0.50590158203125,0.093206494140625,0.93732044921875
-0.50103869140625,0.08217742919921875,0.8171405810546875
-0.4351465234375,0.12041152099609376,0.7920723876953125
-0.31308796875,0.06404074462890624,0.7168678076171875
-0.34834392578125,0.00325834228515625,0.73480876953125
-0.30311904296875003,0.0162481298828125,0.6947488134765625
-0.29387955078125,-0.02272123291015625,0.6839350830078125
-0.32086859375,0.00227798095703125,0.82131861328125
-0.28464005859375,0.00399361328125,0.9208540869140625
-0.331566953125,-0.06291604736328126,1.0226014599609374
-0.38189787109375,0.0466393310546875,1.139340595703125
-0.40232201171875,0.0133070458984375,1.0936280078125
-0.44608802734374997,0.05668803466796875,1.0014655322265624
-0.50638787109375,0.14246965087890626,0.88423486328125
-0.42031470703125,0.07972652587890625,0.7856824560546875
-0.39697283203125,0.04394333740234375,0.8812856640625
-0.3797095703125,0.165753232421875,1.009084296875
-0.24938410156250002,0.10717664306640624,0.9599309765625
-0.27029453125,0.108892275390625,0.9690243408203125
-0.33910443359375,0.09247122314453125,1.0053977978515625
-0.3641483203125,0.095167216796875,0.94125271484375
-0.39843169921875,0.09835339111328124,1.0191607275390624
-0.4857205859375,0.09933375244140626,1.14966279296875
-0.48061455078125,0.14786163818359374,1.0756870458984376
-0.45824525390625,0.13364639892578126,0.9459222802734375
-0.408400625,0.106931552734375,0.8658023681640625
-0.37800755859375,0.11379408203125,0.8141913818359375
-0.44414287109375,0.0809519775390625,0.8557259375
-0.35588140625,0.09835339111328124,0.9267524853515625
-0.3184371484375,0.049090234375,0.880794130859375
-0.2912049609375,0.13560712158203125,0.846386806640625
-0.28950294921874997,0.0789912548828125,0.829674677734375
-0.28707150390625,0.10129447509765625,0.900455458984375
-0.3500459375,0.09394176513671874,0.9547698779296875
-0.38238416015625,0.11403917236328125,0.9614055761718749
-0.46870046875,0.0574233056640625,0.9272440185546875
-0.327676640625,0.080461796875,0.9316678173828125
-0.31284482421875,0.0701680029296875,0.867031201171875
-0.302389609375,0.06600146728515625,0.911269189453125
-0.2240970703125,0.03855135009765625,0.8864467626953125
-0.1715778515625,0.01183650390625,0.831640810546875
-0.1073876953125,0.08805959716796875,0.7960046533203124
-0.0791829296875,0.02972809814453125,0.8707177001953125
-0.10763083984374999,-0.0161037939453125,1.0245675927734375
-0.1385101953125,0.0010525292968750002,1.2683680615234374
-0.26372962890625,0.06011929931640625,1.1995534130859375
-0.1735230078125,0.03659062744140625,1.054796884765625
-0.221665625,0.069677822265625,1.049881552734375
-0.34250845703125,-0.01193725830078125,1.0486527197265625
-0.294608984375,0.01698340087890625,1.17817171875
-0.24038775390625,0.13315621826171875,1.001711298828125
-0.31235853515625,0.08462833251953125,0.828691611328125
-0.286828359375,0.08756941650390625,0.7915808544921875
-0.28950294921874997,0.08903995849609375,0.706791376953125
-0.22434021484375,0.152028173828125,0.6986810791015625
-0.15917748046875,0.18560554931640624,0.7161305078125
-0.2260422265625,0.21967310546875,0.82328474609375
-0.2746711328125,0.22923162841796874,0.921099853515625
-0.3709563671875,0.2485937646484375,1.001711298828125
-0.422989296875,0.2809456884765625,1.0540595849609375
-0.44219771484375,0.25104466796875,1.058729150390625
-0.40426716796875,0.19884042724609374,1.0267794921875
-0.389921640625,0.11379408203125,0.9808211376953125
-0.29485212890625,0.13070531494140625,0.8572005371093749
-0.2552195703125,0.10325519775390625,0.8537598046875
-0.28026345703125,0.04247279541015625,0.9604225097656249
-0.234309140625,0.104970830078125,1.0407881884765624
-0.24865466796875,0.11771552734375,1.116730068359375
-0.25059982421875,0.06404074462890624,1.1292641650390625
-0.29874244140625,0.14737145751953126,1.079865078125
-0.2202067578125,0.16354741943359374,0.9999909326171875
-0.271267109375,0.148106728515625,1.0071181640625
-0.28804408203125,0.11992134033203125,0.9739396728515625
-0.2902323828125,0.12090170166015625,0.9601767431640625
-0.30871136718750003,0.14737145751953126,1.0196522607421874
-0.2591098828125,0.11845079833984375,1.014491162109375
-0.27102396484375,0.0936966748046875,1.031203291015625
-0.30457791015625,0.07850107421875,1.0919076416015625
-0.28464005859375,0.0682072802734375,1.0776531787109376
-0.28609892578125,0.09786321044921875,1.0068723974609375
-0.3038484765625,-0.03399538818359375,0.9837703369140625
-0.2474389453125,0.00178780029296875,1.038084755859375
-0.2367405859375,-0.07026875732421875,1.0245675927734375
-0.25862359375,-0.0960032421875,1.04939001953125
-0.20537494140625,-0.05090662109375,0.9913891015625
-0.21072412109375,-0.05654369873046875,0.8928366943359375
-0.20099833984375,-0.0082609033203125,0.938303515625
-0.18884111328125,-0.0960032421875,0.99237216796875
-0.22579908203125,-0.08154291259765625,1.0206353271484374
-0.27442798828125,-0.02468195556640625,1.0884669091796875
-0.2766162890625,-0.026397587890625,0.992863701171875
-0.29509527343749997,-0.0004180126953125,0.9149556884765625
-0.300444453125,-0.00213364501953125,0.9385492822265625
-0.33715927734375,0.0373258984375,0.91765912109375
-0.2552195703125,0.01110123291015625,0.851302138671875
-0.25692158203125,0.056933125,0.804606484375
-0.14945169921875,0.10521592041015625,0.7129355419921874
-0.1788721875,0.063795654296875,0.7733941259765625
-0.25594900390624997,0.06673673828125,0.863098935546875
-0.23309341796875,0.10987263671875,0.855234404296875
-0.3656071875,0.10325519775390625,0.8166490478515624
-0.24865466796875,0.1157548046875,0.7665126611328125
-0.30506419921875,0.1162449853515625,0.7168678076171875
-0.28366748046875,0.1858506396484375,0.8318865771484375
-0.2989855859375,0.17261576171875,0.9331424169921875
-0.34931650390625,0.093206494140625,0.98942296875
-0.36098744140625,0.1505576318359375,0.944693447265625
-0.3038484765625,0.1054610107421875,0.7365291357421875
-0.2571647265625,0.1250682373046875,0.786419755859375
-0.286828359375,0.1809488330078125,1.081339677734375
-0.2250696484375,0.10031411376953125,1.170798720703125
-0.13632189453125,0.02531647216796875,1.135408330078125
-0.179844765625,0.028257556152343752,1.2029941455078126
-0.1968648828125,-0.0808076416015625,0.9493630126953125
-0.26664736328125,-0.09183670654296874,0.8363103759765624
-0.35515197265625,-0.07051384765625,0.9088115234375
-0.35174794921875,-0.14967802490234375,0.9088115234375
-0.3767918359375,-0.17467723876953126,0.94321884765625
-0.30944080078125,-0.17908886474609376,0.9046334912109375
-0.249870390625,-0.1396293212890625,0.8446664404296875
-0.2377131640625,-0.139139140625,0.8043607177734375
-0.16185207031249998,-0.087179990234375,0.9414984814453125
-0.12659611328125,-0.11561046875,0.9975332666015625
-0.0840458203125,-0.025662316894531252,1.1010010058593749
-0.158448046875,-0.0092412646484375,1.1784174853515625
-0.24938410156250002,-0.04330882080078125,1.1941465478515625
-0.29776986328125,0.02531647216796875,1.1838243505859376
-0.37581925781250003,-0.035711020507812496,1.1562984912109375
-0.4468174609375,-0.0028689160156250004,1.1469593603515624
-0.50784673828125,0.01992448486328125,1.0781447119140626
-0.53896923828125,0.0495804150390625,1.0589749169921876
-0.53751037109375,0.02360083984375,0.8884128955078126
-0.52632572265625,0.03659062744140625,0.8205813134765625
-0.486206875,0.03266918212890625,0.77216529296875
-0.4623787109375,-0.0043394580078125,0.705808310546875
-0.47088876953125003,-0.0170841552734375,0.6657483544921875
-0.4915560546875,-0.02517213623046875,0.7276815380859375
-0.5722800390625,-0.01634888427734375,0.8456495068359375
-0.63233673828125,0.0020328906249999995,1.020389560546875
-0.706982109375,-0.0141430712890625,1.109848603515625
-0.7288651171875,0.01551285888671875,1.092153408203125
-0.72278650390625,0.026296833496093748,1.0486527197265625
-0.66880841796875,0.046149150390625,1.0142453955078126
-0.74223806640625,0.0829127001953125,1.188493916015625
-0.78940810546875,-0.0298288525390625,1.1508916259765625
-0.77092912109375,-0.03056412353515625,1.0334151904296875
-0.70576638671875,-0.0886505322265625,0.891116328125
-0.5236511328125,-0.071494208984375,0.7832247900390625
-0.43782111328125,-0.1195319140625,0.7773263916015625
-0.596108203125,-0.10654212646484375,0.830657744140625
-0.5559893554687501,-0.19207865234375,0.9316678173828125
-0.46553958984375,-0.0435539111328125,0.9193794873046874
-0.3388612890625,-0.01978014892578125,0.92355751953125
-0.32062544921875,-0.042083369140625,1.042017021484375
-0.43757796875,-0.0567887890625,1.0997721728515626
-0.4667553125,-0.06340622802734375,1.127052265625
-0.63379560546875,0.017718671875,1.050864619140625
-0.66443181640625,-0.022476142578125,0.909303056640625
-0.561095390625,-0.09526797119140624,0.906845390625
-0.54334583984375,-0.023456503906250002,0.95501564453125
-0.61872064453125,-0.006790361328125,0.9429730810546875
-0.44851947265625003,-0.0170841552734375,0.93928658203125
-0.44025255859375,-0.1513936572265625,0.921099853515625
-0.51611365234375,-0.07075893798828126,1.0461950537109375
-0.5051721484375,-0.03448556884765625,0.9818042041015624
-0.58224896484375,-0.02468195556640625,0.9188879541015624
-0.53653779296875,0.00570924560546875,0.862115869140625
-0.43247193359375,0.0907555908203125,0.7640549951171876
-0.51927453125,0.01404231689453125,0.868997333984375
-0.428824765625,0.1613416064453125,1.090187275390625
-0.601943671875,0.1466361865234375,1.209138310546875
-0.51611365234375,0.11747043701171875,1.2324861376953125
-0.3388612890625,0.08953013916015624,1.2305200048828124
-0.34785763671875003,0.1201664306640625,1.048898486328125
-0.47404964843749997,0.0270321044921875,0.9756600390625
-0.47648109375000003,0.05423713134765625,0.900455458984375
-0.5022544140625,-0.022476142578125,0.79575888671875
-0.53848294921875,-0.06291604736328126,0.809030283203125
-0.48985404296875,-0.10213050048828125,0.7746229589843749
-0.4798851171875,-0.16144236083984376,0.72104583984375
-0.4409819921875,-0.123453359375,0.726452705078125
-0.4750222265625,-0.07124911865234375,0.744147900390625
-0.52778458984375,-0.00948635498046875,0.8569547705078124
-0.6131283203125,-0.0602200537109375,0.999745166015625
-0.63963107421875,-0.0543378857421875,1.0088385302734375
-0.6230972460937501,-0.011201987304687501,0.8132083154296875
-0.5751977734375,0.0005623486328125002,0.6922911474609375
-0.50687416015625,0.0623251123046875,0.745130966796875
-0.531918046875,-0.0121823486328125,0.7640549951171876
-0.4964189453125,-0.1131595654296875,0.848352939453125
-0.41107521484375,-0.12516899169921875,0.890624794921875
-0.4322287890625,0.018699033203125,0.95304951171875
-0.41885583984375,0.11501953369140624,0.929947451171875
-0.50687416015625,0.0436982470703125,1.0894499755859375
-0.666133828125,0.13511694091796875,1.2216724072265626
-0.73324171875,0.1314405859375,1.214053642578125
-0.708927265625,0.14590091552734374,1.18112091796875
-0.67026728515625,0.10472573974609375,0.987948369140625
-0.37071322265625,0.06306038330078124,0.9591936767578125
-0.3631757421875,0.14908708984375,0.7920723876953125
-0.45581380859375,0.1044806494140625,0.6807401171875
-0.46116298828125,-0.00581,0.7935469873046875
-0.5448047070312501,-0.0994345068359375,0.710232109375
-0.524137421875,-0.09722869384765626,0.6446124267578125
-0.43052677734375,-0.06781785400390625,0.8068183837890625
-0.41399294921875,-0.073454931640625,0.7360376025390625
-0.48061455078125,-0.11781628173828125,0.7773263916015625
-0.60607712890625,-0.046249904785156254,0.9614055761718749
-0.5868687109375,-0.0553182470703125,0.6986810791015625
-0.51149390625,-0.05801424072265625,0.6514938916015625
-0.5236511328125,-0.0229663232421875,0.821810146484375
-0.53264748046875,-0.108747939453125,0.7153932080078125
-0.41836955078125,-0.13791368896484374,0.6018490380859375
-0.47623794921875,-0.0229663232421875,0.781504423828125
-0.5401849609375,-0.07124911865234375,0.61290853515625
-0.54869501953125,-0.049926259765625,0.7117067089843749
-0.5781155078125,0.00791505859375,1.032186357421875
-0.683640234375,-0.0013983740234375002,1.0171945947265626
-0.64303509765625,-0.10311086181640625,1.108865537109375
-0.44171142578125,-0.1543347412109375,1.1725190869140625
-0.59051587890625,-0.08105273193359375,0.7321053369140624
-0.5246237109375,-0.0016434643554687498,0.70728291015625
-0.528027734375,0.03168882080078125,0.796741953125
-0.5679034375,0.01183650390625,0.87440419921875
-0.54723615234375,0.01845394287109375,1.152120458984375
-0.672941875,-0.05213207275390625,1.203239912109375
-0.6598120703125,0.09198104248046875,0.7355460693359375
-0.5265688671875,0.1113431787109375,0.6937657470703125
-0.40694175781249997,0.16011615478515626,0.7340714697265625
-0.5000661132812501,0.16844922607421875,0.899472392578125
-0.619450078125,0.1525183544921875,1.2659103955078126
-0.8037536328125,-0.00409436767578125,1.4050142919921875
-0.7269199609375,-0.10164031982421876,0.9606682763671874
-0.59537876953125,-0.01781942626953125,1.09854333984375
-0.4993366796875,0.04541387939453125,0.997779033203125
-0.69993091796875,0.10325519775390625,0.95698177734375
-0.4973915234375,0.07065818359375,1.3381657763671875
-0.40280830078125,0.155949619140625,1.42492138671875
-0.49812095703125,0.23143744140625,1.24108796875
-0.574711484375,0.11011772705078125,1.4219721875
-0.70625267578125,-0.048945898437499996,1.127543798828125
-0.6666201171875,-0.0749254736328125,0.8638362353515625
-0.6043751171875,0.0010525292968750002,0.85081060546875
-0.53945552734375,-0.01953505859375,0.5846453759765625
-0.50395642578125,-0.0700236669921875,0.541636220703125
-0.48693630859375,-0.15163874755859374,0.7370206689453125
-0.555259921875,-0.07222947998046875,0.6991726123046875
-0.61288517578125,0.0289928271484375,0.81738634765625
-0.6889894140625,0.0956573974609375,1.073475146484375
-0.7667956640625,0.07727562255859374,1.1341794970703125
-0.7701996875,0.1887917236328125,1.226833505859375
-0.50152498046875,0.14908708984375,1.124594599609375
-0.40062,-0.171491064453125,0.8773533984374999
-0.39891798828125,-0.2229600341796875,0.7424275341796875
-0.49860724609375,-0.20776443359375,0.7117067089843749
-0.51659994140625,-0.169530341796875,0.6610787890625
-0.5559893554687501,-0.17026561279296876,0.7217831396484375
-0.5761703515625,-0.0592396923828125,0.9056165576171875
-0.64692541015625,-0.01046671630859375,1.0093300634765625
-0.64643912109375,0.02972809814453125,0.943710380859375
-0.563040546875,0.1113431787109375,0.860149736328125
-0.56085224609375,0.13536203125,0.792318154296875
-0.58930015625,0.1231075146484375,0.8741584326171875
-0.60559083984375,0.02776737548828125,0.8962774267578125
-0.64157623046875,0.09026541015625,0.9007012255859375
-0.51465478515625,0.2113400341796875,0.8864467626953125
-0.5134390625,0.1466361865234375,0.8254966455078125
-0.52486685546875,0.02286556884765625,0.8112421826171875
-0.3096839453125,0.06600146728515625,0.890624794921875
-0.3787369921875,-0.011201987304687501,0.925032119140625
-0.44803318359375,0.1113431787109375,1.073475146484375
-0.42906791015625,-0.0690433056640625,1.0058893310546875
-0.33375525390625,-0.1210024560546875,0.9100403564453124
-0.5158705078125,-0.14085477294921875,0.8535140380859375
-0.39891798828125,-0.2160975048828125,0.80755568359375
-0.42906791015625,-0.283252255859375,0.66009572265625
-0.48693630859375,-0.26585084228515626,0.6178238671875
-0.4166675390625,-0.287173701171875,0.529839423828125
-0.35126166015625,-0.28227189453125,0.483635302734375
-0.2022140625,0.04982550537109375,0.7463597998046875
-0.2333365625,0.23021198974609375,0.9095488232421876
-0.43149935546875,0.22040837646484374,1.1823497509765626
-0.8300132421874999,-0.05874951171875,1.3912513623046876
-0.82733865234375,-0.0513968017578125,1.08084814453125
-0.72910826171875,-0.05262225341796875,0.8879213623046875
-0.5907590234375,0.0407571630859375,0.7672499609375
-0.21315556640625,0.08217742919921875,0.692045380859375
-0.25303126953125,-0.00581,0.8458952734375
-0.58516669921875,-0.106787216796875,0.918150654296875
-0.65081572265625,-0.1190417333984375,0.8154202148437499
-0.68047935546875,0.01845394287109375,0.868014267578125
-0.69822890625,0.1534987158203125,1.1489254931640625
-0.6184775,0.32579721923828125,1.3514371728515624
-0.46991619140625,0.3782465502929688,1.410666923828125
-0.43684853515625,0.1652630517578125,1.2961396875
-0.49860724609375,-0.0347306591796875,1.0778989453125
-0.55307162109375,0.022620478515625,0.97074470703125
-0.5713074609375,-0.07075893798828126,0.8245135791015625
-0.47429279296875,-0.195019736328125,0.8962774267578125
-0.430769921875,-0.29379114013671875,1.00613509765625
-0.377278125,-0.24697888671875,1.1263149658203124
-0.30263275390625,-0.059729873046875,1.31678408203125
-0.59148845703125,-0.11585555908203125,1.2993346533203125
-0.695311171875,-0.03056412353515625,0.9704989404296875
-0.60948115234375,0.00227798095703125,0.747097099609375
-0.455084375,0.0133070458984375,0.6431378271484375
-0.28123603515625,0.048109873046875,0.67484171875
-0.269321953125,0.0711483642578125,0.9284728515625
-0.51854509765625,-0.31486890869140627,1.0407881884765624
-0.5090624609375,-0.26241957763671875,1.08281427734375
-0.66929470703125,0.0721287255859375,1.0044147314453125
-0.67269873046875,0.08634396484375,0.8267254785156251
-0.62115208984375,-0.00777072265625,0.775606025390625
-0.49204234375,0.167713955078125,1.0555341845703126
-0.39794541015625,0.3228561352539063,1.12017080078125
-0.33910443359375,0.369668388671875,0.9759058056640625
-0.30214646484375,0.3603549560546875,0.864082001953125
-0.3427516015625,0.35275715576171873,0.9498545458984375
-0.67877734375,0.19222298828125,1.0235845263671874
-0.7697133984375,0.030463369140625002,1.001219765625
-0.7492892578125,0.03928662109375,0.9685328076171875
-0.705036953125,0.05178622802734375,0.8191067138671875
-0.34056330078125,0.16991976806640624,0.7139186083984375
-0.35661083984374997,0.15864561279296874,0.8195982470703125
-0.68242451171875,0.0535018603515625,0.936828916015625
-0.6612709375,0.026296833496093748,1.0388220556640624
-0.7745762890625,0.04541387939453125,0.9508376123046876
-0.7220570703125,0.0652661962890625,0.9144641552734375
-0.70333494140625,-0.01634888427734375,0.77216529296875
-0.69458173828125,-0.06144550537109375,0.6893419482421875
-0.6566511914062501,-0.015368522949218751,0.7144101416015625
-0.4400094140625,0.07188363525390624,0.906353857421875
-0.49885039062500003,0.09026541015625,1.0476696533203125
-0.743940078125,0.024091020507812498,1.182103984375
-0.7546384375,-0.0411030078125,1.22044357421875
-0.4536255078125,-0.2464887060546875,1.1007552392578126
-0.13413359375,-0.161687451171875,1.22830810546875
-0.4059691796875,-0.31731981201171877,1.2723003271484374
-0.7920826953125,0.049090234375,1.15949345703125
-0.84630392578125,0.01110123291015625,1.0629071826171874
-0.82004431640625,-0.027868129882812502,1.0412797216796874
-0.64060365234375,-0.0190448779296875,1.17522251953125
-0.24427806640625,0.10129447509765625,1.274020693359375
-0.3690112109375,0.0378160791015625,1.1543323583984375
-0.767281953125,0.0093856005859375,0.6618160888671875
-0.60559083984375,-0.036201201171875,0.363701201171875
-0.5290003125,-0.06732767333984375,0.4209648193359375
-0.50152498046875,-0.14281549560546875,0.5812046435546875
-0.5800606640625,-0.2082546142578125,0.9188879541015624
-0.753665859375,-0.25359632568359375,1.29712275390625
-0.77530572265625,-0.057278969726562504,1.4939818017578126
-0.8319583984375,0.22383964111328125,1.479481572265625
-0.8154245703125,0.12874459228515625,1.124594599609375
-0.73348486328125,0.08413815185546875,0.9127437890625
-0.658353203125,0.12972495361328126,1.069542880859375
-0.5927041796875,-0.0803174609375,0.875387265625
-0.56522884765625,-0.0646316796875,0.681231650390625
-0.48353228515625,-0.224430576171875,0.4008119580078125
-0.3729015234375,-0.2386458154296875,0.34084490722656247
-0.3641483203125,-0.22124440185546876,0.281123623046875
-0.3660934765625,-0.24232217041015625,0.406956123046875
-0.3592854296875,-0.11977700439453125,0.6662398876953125
-0.44560173828125,0.042227705078125,0.859658203125
-0.62115208984375,0.0633054736328125,1.2472321337890624
-0.79864759765625,-0.02149578125,1.3194875146484375
-0.66491810546875,0.15864561279296874,1.2025026123046876
-0.49179919921875,0.142224560546875,0.9972875
-0.43393080078125,0.063795654296875,0.7163762744140625
-0.33326896484375,-0.01193725830078125,0.708757509765625
-0.234309140625,-0.0612004150390625,0.9442019140625
-0.33642984375,-0.21168587890625,1.1651460888671874
-0.553314765625,-0.0523771630859375,1.079373544921875
-0.44560173828125,0.00178780029296875,0.761843095703125
-0.24330548828125,-0.1273748046875,0.578009677734375
-0.190543125,-0.018554697265625,0.5433565869140625
-0.1803310546875,0.00791505859375,0.458075576171875
-0.22239505859375,0.20080114990234374,0.8038691845703125
-0.4983641015625,0.20717349853515626,0.809030283203125
-0.6821813671875,0.1878113623046875,0.886692529296875
-0.7969455859375,0.2387901513671875,1.158510390625
-0.7988907421875,0.3338852001953125,1.1125520361328125
-0.36390517578125,0.45888126953125,0.89406552734375
-0.2153438671875,0.16697868408203126,0.8933282275390625
-0.119544921875,0.02286556884765625,0.5099323291015625
-0.16695810546875,-0.04330882080078125,0.3904897607421875
-0.35806970703125,-0.008996174316406251,0.5821877099609375
-0.45824525390625,0.0074248779296875,0.5084577294921875
-0.66054150390625,-0.0190448779296875,0.8692431005859375
-0.777007734375,-0.0474753564453125,1.287783623046875
-0.82004431640625,0.00399361328125,1.32464861328125
-0.66054150390625,-0.01046671630859375,1.36593740234375
-0.62042265625,0.1848702783203125,1.0599579833984376
-0.56668771484375,0.09590248779296875,0.56375521484375
-0.30944080078125,-0.08423890625,0.672384052734375
-0.50444271484375,-0.16462853515625,0.8451579736328125
-0.83755072265625,-0.0474753564453125,0.9218371533203125
-0.91632955078125,-0.14918784423828124,1.24600330078125
-0.36293259765625,-0.18006922607421874,1.2260962060546876
-0.27540056640625,-0.0651218603515625,1.0211268603515624
-0.35126166015625,0.35030625244140623,1.2855717236328126
-0.5226785546875,0.2083989501953125,1.1258234326171874
-0.77384685546875,-0.210705517578125,1.1010010058593749
-0.80010646484375,-0.27050755859375,1.233714970703125
-0.481343984375,0.05815857666015625,0.9832788037109375
-0.547479296875,0.22089855712890624,1.1592476904296876
-0.58662556640625,-0.106787216796875,1.107882470703125
-0.4964189453125,-0.365602607421875,0.7613515625
-0.36925435546875,-0.31241800537109377,0.6873758154296875
-0.3495596484375,-0.18595139404296876,0.8623616357421875
-0.64060365234375,-0.11536537841796875,0.8259881787109375
-0.6379290625,0.02286556884765625,1.1528577587890625
-0.7857609375,-0.23840072509765625,1.3101483837890624
-0.55793451171875,-0.06487677001953125,0.8962774267578125
-0.55015388671875,0.03806116943359375,1.039067822265625
-0.551369609375,0.150067451171875,1.0385762890625
-0.71062927734375,0.08364797119140625,0.9459222802734375
-0.75147755859375,-0.18399067138671876,1.140323662109375
-0.56911916015625,-0.10948321044921874,1.01399962890625
-0.5756840625,0.0633054736328125,0.712689775390625
-0.71451958984375,0.128499501953125,0.829674677734375
-0.77676458984375,0.09247122314453125,0.828691611328125
-0.76047390625,0.04786478271484375,0.7468513330078125
-0.47380650390625,0.25570138427734374,1.0250591259765625
-0.3213548828125,0.1701648583984375,1.064136015625
-0.6043751171875,0.29810201171875,1.22044357421875
-0.72521794921875,-0.08252327392578125,1.1233657666015624
-0.47526537109375,-0.2906049658203125,0.7262069384765625
-0.38724705078125,-0.2643803002929688,0.50280509765625
-0.33813185546875,-0.20065681396484375,0.4165410205078125
-0.19273142578125,-0.15899145751953125,0.236885634765625
-0.12756869140625,-0.08742508056640624,0.35165863769531247
-0.1287844140625,-0.228352021484375,0.6559176904296875
-0.4828028515625,-0.32663324462890625,0.9188879541015624
-0.73980662109375,-0.14330567626953125,1.2676307617187499
-0.627230703125,0.11060790771484375,1.31875021484375
-0.42420501953125,0.1691844970703125,1.243545634765625
-0.29533841796875,0.0946770361328125,0.841471474609375
-0.29825615234375,-0.012672529296875,0.677299384765625
-0.2878009375,-0.224430576171875,0.5885776416015625
-0.33715927734375,-0.16928525146484374,0.7473428662109375
-0.57179375,-0.046740085449218746,0.9604225097656249
-0.656408046875,0.17040994873046875,1.089204208984375
-0.69069142578125,0.13805802490234376,1.0791277783203126
-0.69506802734375,0.04198261474609375,0.7869112890625
-0.65908263671875,0.11452935302734375,0.8132083154296875
-0.66516125,0.11845079833984375,0.7689703271484375
-0.6145871875,0.21844765380859374,0.8195982470703125
-0.56328369140625,0.0682072802734375,0.8262339453125
-0.2600824609375,-0.16144236083984376,0.8073099169921875
-0.21583015625000002,-0.1631579931640625,0.573094345703125
-0.203186640625,-0.15114856689453124,0.5143561279296875
-0.191515703125,-0.1484525732421875,0.571128212890625
-0.5683897265625,-0.01830960693359375,0.668451787109375
-0.64838427734375,0.16795904541015624,1.1361456298828125
-0.662243515625,0.28511222412109377,1.4767781396484374
-0.46553958984375,0.17923320068359375,1.783249091796875
-0.41447923828125,0.297121650390625,1.7171378759765625
-0.47623794921875,0.16207687744140625,1.2005364794921876
-0.50881931640625,0.09541230712890625,0.9547698779296875
-0.64765484375,0.0976181201171875,0.9945840673828125
-0.73640259765625,0.02360083984375,0.9601767431640625
-0.7706859765625,-0.09624833251953124,0.9975332666015625
-0.7881923828125,-0.19624518798828125,1.028254091796875
-0.26518849609375,-0.261684306640625,0.7620888623046875
-0.0840458203125,-0.03914228515625,0.7040879443359375
-0.06240595703125,0.07286399658203124,0.9213456201171875
-0.15723232421875,0.2662402685546875,1.0270252587890625
-0.7123312890625,0.042227705078125,1.2437914013671876
-0.93480853515625,-0.15899145751953125,1.6824847851562499
-0.96058185546875,-0.4278555517578125,1.833385478515625
-0.28512634765625,-0.01978014892578125,1.82404634765625
-0.1025248046875,0.04590406005859375,0.9926179345703126
-0.156502890625,-0.02174087158203125,0.6333071630859375
-0.18349193359375,-0.16585398681640626,0.616349267578125
-0.3942982421875,-0.31364345703125,0.6072559033203125
-0.633066171875,-0.14379585693359376,0.696960712890625
-0.63987421875,-0.0651218603515625,0.7679872607421875
-0.7546384375,-0.05262225341796875,0.7242408056640625
-0.84679021484375,-0.059729873046875,0.590789541015625
-0.792568984375,-0.03889719482421875,0.5060000634765625
-0.35806970703125,0.0142874072265625,0.395650859375
-0.28853037109375,0.03757098876953125,0.3487094384765625
-0.302389609375,0.14148928955078124,0.442346513671875
-0.481343984375,0.1525183544921875,0.65419732421875
-0.68923255859375,-0.07124911865234375,0.8343442431640625
-0.80107904296875,-0.06732767333984375,1.2226554736328126
-0.874265546875,0.10472573974609375,1.533550224609375
-0.50298384765625,0.22187891845703125,1.335953876953125
-0.24865466796875,0.1613416064453125,1.3145721826171874
-0.29728357421875,-0.0298288525390625,1.2590289306640625
-0.72473166015625,-0.13203152099609375,1.0968229736328126
-0.66710640625,-0.163648173828125,0.8122252490234375
-0.5508833203125,0.1280093212890625,0.71907970703125
-0.25983931640625,0.12555841796875,0.7094948095703125
-0.6423056640625,-0.0268877685546875,1.0186691943359376
-0.738104609375,-0.17026561279296876,1.149171259765625
-0.827581796875,0.1397736572265625,1.1032129052734374
-0.79913388671875,0.1691844970703125,0.965337841796875
-0.6111831640625,0.1682041357421875,0.803131884765625
-0.61628919921875,-0.06830803466796875,0.7955131201171874
-0.596108203125,-0.18546121337890625,0.7746229589843749
-0.44073884765625,-0.1190417333984375,0.5942302734375
-0.210967265625,-0.010221625976562499,0.5254156249999999
-0.12221951171875,-0.02272123291015625,0.552941484375
-0.07650833984375,0.071638544921875,0.851302138671875
-0.038577792968749997,0.10619628173828125,1.324157080078125
-0.78016861328125,-0.04526954345703125,1.528634892578125
-0.9895160546875,0.0172284912109375,1.683959384765625
-1.05151791015625,0.00472888427734375,1.47210857421875
-0.53848294921875,0.1691844970703125,1.188493916015625
-0.10714455078125,0.28903366943359377,1.5849154443359375
-0.18786853515625002,0.21060476318359375,1.3976412939453124
-0.38870591796875,-0.13595296630859374,0.90193005859375
-0.51927453125,-0.1788437744140625,0.5861199755859375
-0.520247109375,-0.1626678125,0.3668961669921875
-0.4818302734375,-0.16438344482421874,0.271292958984375
-0.47915568359375,-0.1906081103515625,0.4290751171875
-0.477453671875,0.02335574951171875,0.885709462890625
-0.68193822265625,-0.061690595703125004,1.1447474609375
-0.839252734375,-0.07566074462890625,1.12312
-0.83900958984375,-0.1249239013671875,0.9031588916015625
-0.32597462890625,0.0897752294921875,1.0103131298828125
-0.59926908203125,0.15570452880859376,1.1209081005859376
-0.78503150390625,-0.042328459472656246,0.9936010009765625
-0.50833302734375,0.1780077490234375,1.050864619140625
-0.41058892578125,-0.03129939453125,0.7630719287109375
-0.23406599609375,0.0037485229492187503,0.6505108251953124
-0.2834243359375,-0.1509034765625,0.6141373681640625
-0.6977426171875,-0.04330882080078125,0.75643623046875
-0.82101689453125,-0.16732452880859375,0.899472392578125
-0.5557462109375,-0.238155634765625,0.873912666015625
-0.17717017578125,-0.13350206298828124,0.88226873046875
-0.1385101953125,0.064776015625,0.988931435546875
-0.2027003515625,0.0172284912109375,1.0031858984375
-0.473563359375,-0.15703073486328126,0.6780366845703125
-0.50784673828125,-0.05482806640625,0.6008659716796875
-0.58662556640625,0.030708459472656248,0.544585419921875
-0.60291625,0.042227705078125,0.5295936572265625
-0.61385775390625,0.146146005859375,0.5890691748046875
-0.52875716796875,0.25128975830078126,0.7866655224609375
-0.341292734375,0.29834710205078124,0.91077765625
-0.29776986328125,-0.046004814453125,0.875387265625
-0.222638203125,-0.1180613720703125,0.84884447265625
-0.19029998046875,0.00791505859375,0.8731753662109375
-0.5849235546875,-0.0376717431640625,1.0063808642578125
-0.712817578125,-0.0798272802734375,0.936828916015625
-0.658353203125,0.21795747314453126,1.07691587890625
-0.7308102734375,0.19884042724609374,1.1425355615234376
-0.65713748046875,0.20668331787109376,1.21257904296875
-0.323786328125,0.2260454541015625,1.3170298486328125
-0.27880458984375,0.2750635205078125,1.1297556982421875
-0.424934453125,0.0848734228515625,0.76233462890625
-0.24379177734375002,-0.02737794921875,0.689096181640625
-0.49228548828125,-0.038161923828125,1.1459762939453124
-0.80934595703125,-0.20212735595703124,0.938795048828125
-0.80010646484375,-0.14673694091796874,0.8107506494140625
-0.432715078125,-0.20727425292968749,0.7522581982421875
-0.1424005078125,0.019434304199218752,0.5254156249999999
-0.10033650390625,-0.0210056005859375,0.4789657373046875
-0.07407689453124999,0.09737302978515625,1.065610615234375
-0.1706052734375,0.12482314697265626,1.3460303076171876
-0.87256353515625,0.049090234375,1.4458115478515625
-1.1110883203125,-0.00581,1.767520029296875
-0.893717109375,0.12825441162109374,1.0707717138671875
-0.27783201171875,0.16305723876953124,0.82131861328125
-0.1511537109375,-0.0259074072265625,0.6352732958984375
0.030232109375,-0.01978014892578125,0.6239680322265625
0.028286953125,-0.016593974609375,0.7613515625
-0.4225030078125,-0.14477621826171874,0.8672769677734375
-0.51538421875,-0.0768861962890625,0.4833895361328125
-0.72181392578125,-0.11585555908203125,0.6229849658203125
-0.782843203125,-0.1788437744140625,0.7689703271484375
-0.740049765625,-0.14722712158203125,0.6087305029296874
-0.323786328125,0.2397705126953125,1.0240760595703124
-0.3816547265625,0.26158355224609375,1.05725455078125
-0.636956484375,0.3466298974609375,0.9262609521484375
-0.919004140625,0.26697553955078124,1.247477900390625
-0.60364568359375,0.2412410546875,1.064627548828125
-0.327676640625,0.048109873046875,0.966320908203125
-0.2172890234375,-0.13252170166015625,1.1553154248046875
-0.2523018359375,0.03119864013671875,0.9749227392578125
-0.788678671875,-0.04477936279296875,0.60111173828125
-0.78405892578125,0.019434304199218752,0.7915808544921875
-0.64789798828125,-0.1744321484375,0.7709364599609375
-0.310170234375,0.080461796875,1.0142453955078126
-0.3262177734375,0.3632960400390625,1.393954794921875
-0.7531795703125,0.3125623413085937,1.0108046630859375
-0.53605150390625,0.055462583007812497,0.763809228515625
-0.88131673828125,0.0407571630859375,1.0978060400390626
-0.97055078125,-0.10360104248046875,1.148188193359375
-0.56182482421875,-0.00507472900390625,0.86653966796875
-0.17279357421875,0.03928662109375,0.980083837890625
-0.17668388671875,-0.2053135302734375,0.9395323486328125
-0.113709453125,-0.19967645263671874,0.9056165576171875
-0.15042427734375,-0.09012107421875,1.1005094726562499
-0.15358515625,-0.13644314697265625,0.8721922998046875
-0.48936775390625,-0.186196484375,0.6667314208984375
-0.5265688671875,-0.23913599609375,0.572111279296875
-0.50152498046875,-0.21193096923828125,0.43202431640625
-0.50881931640625,-0.2151171435546875,0.24892819824218748
-0.41885583984375,-0.12909043701171874,0.383362529296875
-0.50249755859375,-0.05090662109375,0.424651318359375
-0.3213548828125,0.053992041015625,0.39663392578125
-0.19175884765625,0.09051050048828126,0.5571195166015624
-0.37217208984375,0.21648693115234374,0.92355751953125
-0.48158712890625,0.32873830322265624,1.29515662109375
-0.4905834765625,0.021640117187500002,1.486363037109375
-0.5469930078125,-0.1945295556640625,1.6134243701171875
-0.489124609375,0.03536517578125,1.3263689794921876
-0.57495462890625,-0.20065681396484375,0.7515208984375
-0.47380650390625,-0.17614778076171875,0.6347817626953125
-0.28318119140625,0.10227483642578125,0.48609296874999997
-0.15285572265625,-0.0097314453125,0.2813693896484375
-0.11298001953125,-0.0013983740234375002,0.293411953125
-0.310170234375,-0.015368522949218751,0.4878133349609375
-0.33326896484375,-0.1979608203125,0.42612591796875
-0.21266927734375,-0.23938108642578126,0.5841538427734375
-0.107873984375,-0.1739419677734375,0.806081083984375
-0.15042427734375,0.04345315673828125,1.2258504394531249
-0.62163837890625,0.29810201171875,1.3907598291015626
-0.93091822265625,0.2309472607421875,1.3627424365234375
-0.979303984375,0.2137909375,1.0700344140625
-0.55744822265625,0.3253070385742188,1.005643564453125
-0.20975154296875,0.205948046875,1.22044357421875
-0.21996361328125,0.0012976196289062499,0.9547698779296875
-0.629175859375,-0.091101435546875,0.900455458984375
-0.3962433984375,0.163792509765625,0.78789435546875
-0.13340416015625,0.17261576171875,1.1607222900390626
-0.63865849609375,-0.218548408203125,1.5047955322265625
-1.0736440625,-0.19526482666015624,1.592534208984375
-1.093095625,-0.10948321044921874,1.3106399169921874
-1.02890546875,0.25766210693359376,1.118696201171875
-0.38457246093749997,0.41451991943359373,1.152120458984375
-0.164283515625,0.38167781494140623,1.1902142822265624
-0.0889087109375,0.48951756103515626,1.389039462890625
-0.69822890625,0.32628739990234373,1.5323213916015626
-0.78405892578125,-0.00801581298828125,0.80558955078125
-0.494960078125,-0.08448399658203125,0.4686435400390625
-0.47964197265624997,-0.20163717529296876,0.44013461425781253
-0.46019041015625,-0.1543347412109375,0.269818359375
-0.277102578125,-0.13325697265625,0.64633279296875
-0.12854126953125,-0.13203152099609375,0.9144641552734375
-0.63330931640625,-0.3494266455078125,1.3563525048828124
-0.8980937109375,-0.1592365478515625,0.98942296875
-0.76071705078125,0.0368357177734375,0.6706636865234374
-0.45168035156249997,0.0476196923828125,0.4617620751953125
-0.3855450390625,0.07678544189453125,0.5944760400390625
-0.164283515625,-0.09575815185546875,0.71121517578125
-0.0232596875,0.014777587890624999,1.048406953125
-0.34153587890625,0.216732021484375,1.5716440478515625
-0.82101689453125,0.17286085205078125,1.0751955126953125
-0.708927265625,0.02727719482421875,0.5930014404296875
-0.579574375,-0.17908886474609376,0.4597959423828125
-0.330594375,-0.22957747314453125,0.4750334716796875
-0.16914640625,-0.23545964111328124,0.409905322265625
-0.28585578125,0.0883046875,0.4627451416015625
-0.522192265625,0.07090327392578125,0.427600517578125
-0.54237326171875,-0.0023787353515625003,0.43988884765625
-0.59926908203125,-0.10262068115234375,0.3423195068359375
-0.54820873046875,-0.2293323828125,0.48510990234375
-0.38335673828125,-0.15457983154296875,0.5472888525390625
-0.247925234375,0.1784979296875,1.0444746875
-0.4808576953125,0.40765739013671876,1.333004677734375
-0.62017951171875,0.05864875732421875,0.9356000830078125
-0.51854509765625,-0.00311400634765625,1.08281427734375
-0.2668905078125,0.1515379931640625,1.41509072265625
-0.78649037109375,0.08953013916015624,1.6163735693359376
-0.72521794921875,0.04786478271484375,1.444091181640625
-0.4200715625,-0.0092412646484375,1.333004677734375
-0.2114535546875,0.05423713134765625,0.8810398974609375
-0.2250696484375,0.06404074462890624,0.788385888671875
-0.33983386718749997,0.019434304199218752,0.7183424072265625
-0.5800606640625,-0.045024453125,0.438414248046875
-0.5207333984375,-0.15065838623046876,0.3268362109375
-0.35466568359375,-0.10262068115234375,0.4892879345703125
-0.16185207031249998,0.0172284912109375,0.68565544921875
-0.07164544921875,0.11698025634765626,1.238630302734375
-0.46359443359375,0.2662402685546875,1.9363616845703124
-0.94891091796875,-0.122472998046875,1.699688447265625
-0.92265130859375,0.077520712890625,1.5143804296875
-0.46359443359375,0.32040523193359377,1.24796943359375
-0.456056953125,0.18217428466796876,0.9245405859375
-0.330594375,-0.02174087158203125,0.806081083984375
-0.4983641015625,0.01575794921875,0.8785822314453124
-0.65713748046875,-0.09722869384765626,0.5792385107421875
-0.4302836328125,-0.09771887451171875,0.4622536083984375
-0.11079171875,-0.059729873046875,0.447261845703125
-0.18154677734375,-0.12026718505859375,0.4153121875
-0.107873984375,-0.05654369873046875,0.6224934326171875
-0.11832919921875,-0.0415931884765625,1.0540595849609375
-0.46310814453125,-0.1719812451171875,1.7149259765625
-0.9574209765625,-0.14894275390625,1.8321566455078124
-0.91243923828125,-0.03987755615234375,1.2654188623046876
-0.2902323828125,-0.18423576171875,0.653705791015625
-0.07577890625,-0.08791526123046875,0.2985730517578125
-0.05219388671875,-0.06536695068359374,0.3624723681640625
-0.012075039062500001,-0.02370159423828125,0.493465966796875
0.00227048828125,0.02433611083984375,0.58046734375
-0.05948822265625,0.142224560546875,0.923065986328125
-0.26324333984375,0.09982393310546875,1.178663251953125
-0.2523018359375,-0.18889247802734374,1.34627607421875
-0.06629626953125001,-0.12173772705078124,1.528143359375
-0.461892421875,0.00227798095703125,1.7149259765625
-0.51562736328125,0.06281529296875,1.36200513671875
-0.6014573828125,0.07433453857421875,0.7640549951171876
-0.4808576953125,0.04835496337890625,0.522957958984375
-0.037362070312499995,0.019679394531249998,0.4588128759765625
0.02512607421875,0.012816865234374999,0.56572134765625
0.01953375,-0.01144707763671875,0.7930554541015625
-0.3378887109375,-0.07370002197265625,0.969270107421875
-0.56522884765625,-0.1170810107421875,0.899472392578125
-0.15577345703125,-0.2629097583007812,1.031203291015625
0.1065794921875,-0.09281706787109376,1.5301094921875
-0.3826273046875,0.04198261474609375,1.9211241552734375
-0.83074267578125,0.0495804150390625,1.4536760791015624
-0.61483033203125,0.026296833496093748,0.8267254785156251
-0.32646091796875,-0.11536537841796875,0.5728485791015625
-0.172064140625,-0.0425735498046875,0.4273547509765625
-0.13923962890625,0.0250713818359375,0.3209378125
-0.195406015625,0.04247279541015625,0.37304033203125
-0.09109701171875,-0.03644629150390625,0.30619181640625
-0.010616171875,-0.02762303955078125,0.3988458251953125
8.218750000000066e-05,-0.048945898437499996,0.893573994140625
0.06816265625,-0.10016977783203125,1.6463570947265624
-0.1453182421875,-0.10016977783203125,2.129718558349609
-0.5625542578125,-0.2317832861328125,2.129718558349609
-0.689475703125,0.2255552734375,2.0609653515625
-0.4589746875,0.33118920654296874,1.3543863720703124
-0.5226785546875,0.18266446533203126,1.0661021484375
-0.475508515625,0.285357314453125,0.946659580078125
-0.50298384765625,0.261828642578125,1.0348897900390626
-0.31673513671875,0.08953013916015624,0.6893419482421875
-0.0577862109375,-0.00213364501953125,0.8655566015625
-0.19078626953125,-0.23889090576171876,0.8171405810546875
-0.2566784375,-0.285212978515625,0.5389327880859375
-0.222638203125,-0.27908572021484374,0.631095263671875
-0.08355953125,-0.2160975048828125,0.7458682666015625
0.0530876953125,-0.1768830517578125,0.8567090039062499
-0.01766736328125,-0.19722554931640626,1.326123212890625
-0.54918130859375,-0.18006922607421874,0.9375662158203125
-0.42080099609375,-0.2396261767578125,0.47134697265625
-0.24476435546875,-0.15948163818359376,0.61880693359375
-0.1093328515625,-0.05556333740234375,0.45168564453125
-0.18203306640625,0.05472731201171875,0.4779826708984375
-0.222638203125,0.04149243408203125,0.6736128857421875
-0.05948822265625,-0.08252327392578125,0.77609755859375
-0.047574140625,-0.2805562622070312,1.055779951171875
-0.013533906250000002,-0.19330410400390624,1.398870126953125
-0.16355408203125,-0.2396261767578125,1.315801015625
-0.19248828125,-0.28888933349609375,1.20668064453125
-0.37898013671874997,-0.0190448779296875,1.080356611328125
-0.29144810546875,-0.0092412646484375,0.8053437841796875
-0.32646091796875,-0.1430605859375,1.0142453955078126
-0.4011062890625,0.0799716162109375,0.930438984375
-0.3072525,0.04443351806640625,0.6062728369140625
-0.011831894531250001,0.03462990478515625,0.559331416015625
-0.17303671874999998,0.071638544921875,0.4838810693359375
-0.31235853515625,0.03904153076171875,0.4180156201171875
0.01199626953125,0.0544822216796875,0.69351998046875
-0.18738224609375,0.20717349853515626,0.9478884130859375
-0.310170234375,0.2103596728515625,1.07101748046875
-0.4866931640625,0.03315936279296875,1.35807287109375
-0.42177357421875,0.0270321044921875,1.3135891162109374
-0.372415234375,0.0152677685546875,1.1425355615234376
-0.551369609375,0.05423713134765625,1.145238994140625
-0.58613927734375,0.040266982421875,0.93732044921875
-0.55550306640625,-0.02737794921875,0.6755790185546875
-0.46116298828125,-0.040122646484374996,0.6180696337890625
-0.43733482421875003,-0.04330882080078125,0.39860005859375003
-0.32500205078125,0.018699033203125,0.29046275390625
-0.19637859375,0.08242251953125,0.5069831298828125
-0.42979734375,0.055952763671875,0.62470533203125
-0.55015388671875,0.06796218994140625,0.828200078125
-0.60656341796875,-0.013407800292968751,1.1007552392578126
-0.5012818359375,0.183399736328125,1.0014655322265624
-0.22774423828125,-0.06487677001953125,1.2246216064453126
-0.5956219140625,-0.06879821533203125,1.2472321337890624
-0.7736037109375,0.05962911865234375,1.0275167919921875
-0.5538010546875,-0.12149263671875,1.0461950537109375
-0.28901666015625,0.08021670654296875,1.001711298828125
-0.354908828125,-0.02517213623046875,0.8805483642578125
-0.25400384765625,-0.03693647216796875,0.9641090087890625
-0.38676076171875,-0.1611972705078125,1.0425085546875
-0.4672416015625,-0.02027032958984375,0.9518206787109375
-0.37581925781250003,0.0765403515625,1.0840431103515624
-0.5217059765625,0.0289928271484375,1.1341794970703125
-0.46699845703125,0.065756376953125,1.2241300732421876
-0.2678630859375,0.20815385986328125,1.4735831738281249
-0.4779399609375,0.16624341308593749,1.5947461083984376
-0.6111831640625,0.06600146728515625,1.6031021728515624
-0.671969296875,-0.08938580322265625,1.3853529638671875
-0.69215029296875,0.016738310546875,1.1243488330078124
-0.36974064453125,-0.051886982421875,0.9744312060546875
-0.20342978515625,-0.12075736572265625,0.893573994140625
-0.44219771484375,-0.1102184814453125,0.910286123046875
-0.2620276171875,-0.16879507080078124,0.7556989306640625
-0.2027003515625,-0.240116357421875,0.696960712890625
-0.42420501953125,-0.2058037109375,0.707774443359375
-0.46651216796875,-0.186196484375,0.6296206640625
-0.2114535546875,-0.2337440087890625,0.5635094482421875
-0.0801555078125,-0.22467566650390625,0.5723570458984375
-0.02544798828125,-0.15703073486328126,0.6760705517578125
-0.18884111328125,-0.28349734619140626,0.756927763671875
-0.39745912109375,-0.224430576171875,0.68270625
-0.50833302734375,-0.15605037353515624,0.715638974609375
-0.43976626953125,-0.08987598388671875,0.781012890625
-0.29509527343749997,0.03119864013671875,0.91372685546875
-0.28123603515625,0.2329079833984375,1.09952640625
-0.2133987109375,0.3338852001953125,1.1368829296875
-0.263486484375,0.2231043701171875,1.1327048974609375
-0.341292734375,0.05423713134765625,1.0053977978515625
-0.374360390625,0.20962440185546874,1.04545775390625
-0.35515197265625,-0.14477621826171874,0.9577190771484375
-0.2561921484375,0.104970830078125,0.765283828125
-0.2416034765625,0.019679394531249998,0.6052897705078125
-0.34591248046875,0.07825598388671876,0.74857169921875
-0.520247109375,-0.00997653564453125,0.9191337207031249
-0.23698373046875,-0.040122646484374996,1.10640787109375
-0.29485212890625,0.224574912109375,1.458837177734375
-0.52705515625,0.38118763427734376,1.402802392578125
-0.2649453515625,0.283396591796875,1.088221142578125
-0.48766574218750003,0.1427147412109375,1.072000546875
-0.70479380859375,0.13854820556640626,0.9503460791015625
-0.5499107421875,-0.17467723876953126,0.6726298193359375
-0.32062544921875,-0.2881540625,0.366650400390625
-0.22944625,-0.07811164794921875,0.332243076171875
-0.16647181640625,-0.0386521044921875,0.2946407861328125
-0.21899103515625,-0.20310771728515625,0.30520875000000003
-0.3748466796875,-0.11781628173828125,0.5291021240234375
-0.53094546875,-0.0494360791015625,0.7561904638671875
-0.60121423828125,-0.046740085449218746,0.8820229638671875
-0.64935685546875,0.032424091796875,0.9144641552734375
-0.34931650390625,0.193203349609375,0.8989808593749999
-0.02350283203125,0.08266760986328126,1.150645859375
-0.271267109375,0.0642858349609375,1.4399131494140625
-0.579574375,0.07237381591796875,1.63333146484375
-0.8052125,-0.1994313623046875,1.4335232177734376
-0.75877189453125,-0.0700236669921875,1.0796193115234376
-0.51514107421875,0.15864561279296874,0.8923451611328125
-0.358799140625,-0.0494360791015625,0.746114033203125
-0.26907880859375,-0.0690433056640625,0.9080742236328125
-0.5207333984375,0.09810830078125,1.1250861328125
-0.66297294921875,-0.0053198193359375,1.09461107421875
-0.479398828125,-0.03399538818359375,1.1287726318359375
-0.33642984375,-0.1935491943359375,1.331038544921875
-0.69628375,-0.2288422021484375,1.4664559423828125
-0.78211376953125,-0.20261753662109375,1.31285181640625
-0.60024166015625,-0.1886473876953125,0.9208540869140625
-0.44171142578125,-0.20898988525390624,0.6721382861328125
-0.34396732421875,-0.2121760595703125,0.468889306640625
-0.3933256640625,-0.19526482666015624,0.3487094384765625
-0.41350666015625,-0.18031431640625,0.1953510791015625
-0.417153828125,-0.13889405029296875,0.17249478515625
-0.345183046875,-0.12811007568359375,0.0857391748046875
-0.28123603515625,-0.11683592041015625,0.10073093749999999
-0.26275705078125,-0.14673694091796874,0.11498540039062499
-0.2960678515625,-0.16683434814453124,0.08893414062499999
-0.33642984375,-0.16585398681640626,0.2558096630859375
-0.41399294921875,-0.1513936572265625,0.37107419921875
-0.494960078125,-0.1278649853515625,0.64240052734375
-0.57373890625,0.11207844970703125,1.136391396484375
-0.666133828125,0.28413186279296876,1.582703544921875
-0.69506802734375,0.45324419189453125,1.852063740234375
-0.769227109375,0.393197060546875,1.8041392529296876
-0.60656341796875,0.03928662109375,1.3253859130859376
-0.38189787109375,-0.0347306591796875,0.962388642578125
-0.3515048046875,0.0397768017578125,0.6224934326171875
-0.40232201171875,0.10521592041015625,0.675333251953125
-0.5868687109375,-0.0175743359375,0.6387140283203125
-0.3330258203125,0.12727405029296876,0.6367478955078125
-0.06848457031249999,0.17237067138671874,0.9242948193359375
-0.177899609375,0.38805016357421873,1.4907868359375
-0.59829650390625,0.4505481982421875,1.831419345703125
-0.66248666015625,0.221633828125,1.6591369580078126
-0.24476435546875,-0.104826494140625,1.5222449609375
-0.28998923828125,-0.20948006591796875,1.2088925439453124
-0.267376796875,-0.30506529541015626,1.0142453955078126
-0.1997826171875,-0.3562891748046875,1.078390478515625
-0.24695265625,-0.414620673828125,1.037101689453125
-0.38530189453125,-0.39868980224609374,0.7163762744140625
-0.28026345703125,-0.36045571044921876,0.6283918310546874
-0.23941517578125,-0.3660927880859375,0.7109694091796875
-0.35393625,-0.2082546142578125,0.8977520263671875
-0.38335673828125,-0.03546593017578125,0.933879716796875
-0.34007701171875,0.1123235400390625,0.9488714794921875
-0.1287844140625,0.14443037353515625,1.114763935546875
-0.7298376953125,-0.03497574951171875,1.297614287109375
-0.835362421875,0.0731090869140625,1.344801474609375
-0.82393462890625,0.08462833251953125,1.3165383154296875
-0.3437241796875,0.21942801513671875,1.1941465478515625
-0.6111831640625,0.14541073486328124,1.0801108447265624
-0.31916658203125,-0.1562954638671875,0.8662939013671875
-0.52778458984375,-0.23938108642578126,0.6691890869140625
-0.35344996093750003,-0.10703230712890625,0.547534619140625
-0.34153587890625,0.030708459472656248,0.6451039599609375
-0.39113736328125,0.1084020947265625,0.7640549951171876
-0.51659994140625,-0.02958376220703125,0.8559717041015625
-0.44049570312499997,-0.0097314453125,0.841471474609375
-0.46481015625,-0.33717212890625,0.7670041943359375
-0.37995271484375,-0.0141430712890625,0.87931953125
-0.56328369140625,-0.046004814453125,0.892590927734375
-0.53094546875,-0.1562954638671875,0.8903790283203125
-0.43538966796875,-0.13644314697265625,0.818860947265625
-0.25594900390624997,0.10031411376953125,0.8151744482421874
-0.3656071875,0.07286399658203124,0.9798380712890625
-0.68582853515625,-0.11634573974609375,0.8761245654296875
-0.64789798828125,-0.06193568603515625,0.7121982421874999
-0.541643828125,-0.0886505322265625,0.462499375
-0.3816547265625,-0.122472998046875,0.23123300292968751
-0.2411171875,-0.09428760986328125,0.251631630859375
-0.0879361328125,-0.0768861962890625,0.148409658203125
-0.1482359765625,-0.014633251953124999,0.283089755859375
-0.3563676953125,0.03928662109375,0.53426322265625
-0.49228548828125,0.01012087158203125,0.735300302734375
-0.6909345703125,0.0427178857421875,1.066593681640625
-0.83998216796875,0.0603643896484375,1.2157740087890625
-0.75293642578125,0.24393704833984375,1.2182316748046875
-0.45168035156249997,0.36354113037109376,1.2627154296875
-0.551369609375,0.33854191650390625,1.145238994140625
-0.73397115234375,0.13536203125,1.067576748046875
-0.7813843359375,0.026296833496093748,1.1017383056640626
-0.6938523046875,-0.1435507666015625,0.8107506494140625
-0.346155625,0.11403917236328125,0.695977646484375
-0.236254296875,0.056933125,0.6942572802734375
-0.50298384765625,-0.00507472900390625,0.52246642578125
-0.5314317578125,0.02482629150390625,0.546551552734375
-0.51659994140625,0.03266918212890625,0.6839350830078125
-0.501768125,0.09100068115234375,0.7099863427734375
-0.31308796875,0.2172222021484375,0.8984893261718749
-0.16549923828125,0.1510478125,1.05725455078125
-0.32451576171875,-0.05703387939453125,1.043000087890625
-0.63403875,-0.098944326171875,1.1565442578125
-0.68874626953125,-0.0190448779296875,0.7955131201171874
-0.41642439453125,0.05889384765625,0.6126627685546875
-0.29290697265625,0.02972809814453125,0.712689775390625
-0.17279357421875,0.0686974609375,0.80165728515625
-0.08915185546875,-0.008996174316406251,0.75250396484375
-0.3096839453125,-0.1141399267578125,0.8599039697265625
-0.4001337109375,0.15472416748046874,0.8043607177734375
-0.43587595703125,0.2025167822265625,0.79772501953125
-0.2921775390625,0.2255552734375,1.0388220556640624
-0.39478453125,0.1544790771484375,1.0771616455078126
-0.61920693359375,-0.0006631030273437505,1.170798720703125
-0.49593265625,0.32947357421875,1.2899955224609374
-0.3164919921875,0.29099439208984373,0.977134638671875
-0.2357680078125,0.00423870361328125,0.9867195361328125
-0.10568568359375,0.021885207519531248,1.18603625
-0.19321771484375,-0.12933552734375,1.06511908203125
-0.251815546875,0.1235976953125,0.957473310546875
-0.25983931640625,-0.0288484912109375,0.8127167822265625
-0.2318776953125,-0.02468195556640625,0.578009677734375
-0.38530189453125,0.1299700439453125,0.680248583984375
-0.23819945312500002,0.12629368896484375,0.8579378369140624
-0.26129818359375,-0.08963089355468751,0.969270107421875
-0.51173705078125,-0.038161923828125,1.27942755859375
-0.5722800390625,0.17286085205078125,1.0511103857421875
-0.284883203125,0.004973974609375,0.8554801708984375
-0.0937716015625,-0.00311400634765625,0.7866655224609375
-0.0140201953125,-0.0013983740234375002,0.664519521484375
-0.038091503906250004,0.04051207275390625,0.7512751318359375
-0.04003666015625,-0.068553125,0.77609755859375
-0.22823052734375,-0.2136466015625,0.810013349609375
-0.111764296875,-0.1161006494140625,1.088221142578125
-0.2912049609375,-0.01487834228515625,1.1518746923828125
-0.48693630859375,-0.13693332763671875,0.908319990234375
-0.43879369140625,-0.2347243701171875,0.779538291015625
-0.54431841796875,-0.1509034765625,0.7633176953125
-0.56279740234375,-0.10115013916015625,0.77216529296875
-0.32208431640625,0.14639109619140625,0.76921609375
-0.013533906250000002,0.0686974609375,0.86359046875
-0.0286088671875,-0.08963089355468751,1.1233657666015624
-0.21072412109375,-0.13252170166015625,1.2865547900390626
-0.19029998046875,0.04688442138671875,1.273037626953125
-0.5625542578125,0.124578056640625,1.0638902490234374
-0.51027818359375,0.21354584716796876,0.91372685546875
-0.55307162109375,0.1201664306640625,0.7969877197265625
-0.57495462890625,0.06453092529296875,0.659604189453125
-0.5671740039062501,0.02139502685546875,0.47134697265625
-0.28804408203125,-0.0097314453125,0.3904897607421875
-0.168173828125,-0.00997653564453125,0.4489822119140625
-0.11735662109375,0.1289896826171875,0.6893419482421875
-0.4278521875,0.10374537841796876,1.074458212890625
-0.7308102734375,0.02090484619140625,1.327106279296875
-0.86332404296875,-0.040122646484374996,1.30695341796875
-0.79524357421875,-0.0082609033203125,1.1027213720703124
-0.55112646484375,0.0123266845703125,0.867031201171875
-0.423961875,-0.0200252392578125,0.6588668896484375
-0.401592578125,-0.0038492773437499997,0.3904897607421875
-0.32281375,0.07923634521484375,0.43890578125
-0.39210994140625,0.09810830078125,0.578009677734375
-0.411318359375,0.18315464599609374,0.8687515673828125
-0.41253408203124997,0.222614189453125,1.197341513671875
-0.6566511914062501,0.081442158203125,1.4345062841796876
-0.75147755859375,0.17776265869140626,1.2705799609375
-0.5936767578125,0.159871064453125,1.082322744140625
-0.6119125976562501,0.017718671875,0.9783634716796875
-0.5367809375,-0.15752091552734376,0.840488408203125
-0.37144265625,-0.29011478515625,0.8584293701171875
-0.382141015625,-0.12958061767578125,1.0132623291015626
-0.46845732421874997,0.0633054736328125,0.9257694189453125
-0.354908828125,0.04002189208984375,0.619298466796875
-0.3660934765625,-0.02419177490234375,0.3622266015625
-0.27613,0.011346323242187501,0.34158220703125
-0.1706052734375,-0.03105430419921875,0.397125458984375
-0.1783858984375,-0.01879978759765625,0.6652568212890625
-0.41034578125,-0.05997496337890625,0.9808211376953125
-0.68266765625,-0.0562986083984375,1.045949287109375
-0.78114119140625,-0.10065995849609374,1.03759322265625
-0.520247109375,-0.05556333740234375,0.8852179296875
-0.1676875390625,0.132420947265625,0.7974792529296875
-0.11784291015625001,0.12286242431640625,0.90586232421875
-0.12027435546875,0.24197632568359376,1.1798920849609376
-0.77384685546875,0.11060790771484375,1.0201437939453124
-0.5800606640625,-0.08742508056640624,0.79772501953125
-0.42128728515625,-0.07958218994140626,0.6672229541015625
-0.46262185546875,0.03561026611328125,0.5667044140624999
-0.302389609375,0.0123266845703125,0.4396430810546875
-0.3339983984375,0.02874773681640625,0.47626230468749997
-0.22531279296875,0.12286242431640625,0.615857734375
-0.247925234375,-0.11291447509765624,0.8773533984374999
-0.586382421875,-0.20506843994140625,1.2118417431640625
-0.819801171875,-0.14502130859375,1.2482152001953124
-0.6695378515625,-0.09722869384765626,0.8903790283203125
-0.4176401171875,-0.17124597412109374,0.605535537109375
-0.13729447265625,0.00472888427734375,0.44013461425781253
-0.08185751953125,0.07727562255859374,0.501330498046875
-0.282938046875,0.11207844970703125,0.682214716796875
-0.56668771484375,0.05570767333984375,0.7719195263671875
-0.6238266796875,0.08021670654296875,0.9599309765625
-0.62042265625,0.01012087158203125,0.9886856689453125
-0.50298384765625,-0.0719843896484375,1.137374462890625
-0.54188697265625,-0.0974737841796875,1.2509186328125
-0.37411724609375,0.18168410400390625,1.343326875
-0.3408064453125,0.181439013671875,1.3199790478515625
-0.2240970703125,0.1789881103515625,1.345784541015625
-0.343237890625,-0.00801581298828125,1.2673849951171876
-0.46116298828125,0.1510478125,1.189968515625
-0.70333494140625,-0.1352176953125,1.1526119921875
-0.66929470703125,-0.07320984130859375,1.1356540966796875
-0.64303509765625,-0.0759058349609375,1.0899415087890625
-0.50736044921875,0.09933375244140626,1.0358728564453126
-0.2099946875,0.1270289599609375,0.953541044921875
-0.25935302734375,0.2348687060546875,0.946168046875
-0.43441708984375,0.13340130859375,1.1199250341796876
-0.62212466796875,0.10227483642578125,1.38363259765625
-0.69117771484375,-0.214626962890625,1.33841154296875
-0.836335,-0.12124754638671875,1.0226014599609374
-0.621395234375,-0.116590830078125,0.6814774169921874
-0.3816547265625,-0.08497417724609375,0.603569404296875
-0.46164927734375,-0.19232374267578126,0.5345089892578125
-0.592217890625,-0.1288453466796875,0.4578298095703125
-0.5674171484375,-0.1602169091796875,0.48314376953125
-0.54091439453125,-0.224430576171875,0.418752919921875
-0.5314317578125,-0.21095060791015624,0.5620348486328125
-0.54261640625,-0.175412509765625,0.715638974609375
-0.4497351953125,-0.0033590966796874996,0.7935469873046875
-0.50298384765625,0.122617333984375,0.8485987060546875
-0.56668771484375,0.06796218994140625,0.6510023583984375
-0.545534140625,-0.04772044677734375,0.6274087646484375
-0.4828028515625,-0.08301345458984374,0.682214716796875
-0.5119801953125,0.0799716162109375,0.80558955078125
-0.5576913671875,0.18438009765625,0.9582106103515625
-0.5783586523437501,0.18952699462890624,1.0078554638671875
-0.566930859375,0.10668646240234375,0.9464138134765625
-0.533863203125,0.05962911865234375,0.9208540869140625
-0.53483578125,0.077520712890625,0.9975332666015625
-0.54261640625,0.1711452197265625,0.86260740234375
-0.56328369140625,0.14982236083984374,0.761843095703125
-0.517329375,0.02286556884765625,0.66009572265625
-0.57252318359375,-0.029338671875,0.6925369140625
-0.5003092578125,-0.06585713134765625,0.79575888671875
-0.4857205859375,-0.03840701416015625,0.8078014501953125
-0.61920693359375,0.0020328906249999995,0.779538291015625
-0.62844642578125,-0.04919098876953125,0.61979
-0.61288517578125,-0.1033559521484375,0.4632366748046875
-0.528027734375,-0.08350363525390625,0.46594010742187497
-0.500795546875,-0.06977857666015624,0.6165950341796875
-0.46067669921875,-0.00507472900390625,0.828691611328125
-0.55064017578125,0.07825598388671876,0.953541044921875
-0.58030380859375,0.0535018603515625,0.9614055761718749
-0.67221244140625,0.04737460205078125,0.94321884765625
-0.7278925390625,0.0564429443359375,0.972219306640625
-0.7113587109375,0.0976181201171875,1.0806023779296874
-0.65081572265625,0.1471263671875,1.0857634765625
-0.59586505859375,0.14197947021484375,1.033169423828125
-0.6131283203125,0.10423555908203125,1.074458212890625
-0.6423056640625,-0.046249904785156254,0.856217470703125
-0.6150734765625,-0.17516741943359376,0.717605107421875
-0.51757251953125,-0.14330567626953125,0.6905707812499999
-0.4604335546875,-0.020515419921875,0.647807392578125
-0.4225030078125,0.0843832421875,0.7758517919921875
-0.5693623046875,0.0456589697265625,0.8466325732421875
-0.6160460546875,-0.16095218017578125,0.6549346240234375
-0.49909353515625,-0.21683277587890626,0.7586481298828125
-0.4283384765625,-0.07860182861328124,0.847369873046875
-0.30555048828125,-0.14183513427734376,0.696960712890625
-0.23114826171875,-0.273448642578125,0.8441749072265625
-0.199296328125,-0.248939609375,1.0555341845703126
-0.33253953125,-0.22565602783203126,1.084288876953125
-0.58857072265625,-0.03056412353515625,1.1621968896484376
-0.555259921875,0.0721287255859375,1.040542421875
-0.62820328125,-0.006790361328125,1.0044147314453125
-0.59148845703125,0.04884514404296875,1.1612138232421876
-0.5367809375,0.1211467919921875,1.0461950537109375
-0.401592578125,0.15129290283203126,0.831640810546875
-0.22434021484375,0.0584036669921875,0.942727314453125
-0.4438997265625,-0.01634888427734375,0.8618701025390625
-0.36341888671875,-0.20310771728515625,0.854251337890625
-0.40183572265625,-0.23594982177734375,1.125577666015625
-0.6209089453125,-0.08546435791015625,1.1135351025390625
-0.51951767578125,-0.053847705078125,0.9449392138671875
-0.5742251953125,0.08462833251953125,1.090187275390625
-0.74223806640625,-0.0376717431640625,1.0179318945312499
-0.5178156640625,0.03315936279296875,0.9820499707031249
-0.38287044921875,0.16085142578125,1.05135615234375
-0.44560173828125,0.1133039013671875,0.88423486328125
-0.520247109375,0.08242251953125,0.6554261572265625
-0.588327578125,-0.0288484912109375,0.7896147216796875
-0.6612709375,-0.16193254150390626,0.6392055615234375
-0.51927453125,-0.2288422021484375,0.5863657421875
-0.2474389453125,-0.01953505859375,0.757419296875
-0.47429279296875,-0.04330882080078125,0.646824326171875
-0.5022544140625,-0.1131595654296875,0.7846993896484376
-0.67853419921875,-0.15678564453125,1.0157199951171876
-0.72473166015625,-0.165608896484375,1.04742388671875
-0.51149390625,0.13021513427734374,1.2194605078125
-0.2561921484375,0.19393862060546874,1.3059703515625
-0.41593810546875,-0.0974737841796875,1.0149826953125
-0.512466484375,-0.204823349609375,1.127052265625
-0.64741169921875,-0.13056097900390626,1.094119541015625
-0.695311171875,-0.1249239013671875,0.785436689453125
-0.53507892578125,-0.02909358154296875,0.800182685546875
-0.4779399609375,-0.128355166015625,0.6399428613281251
-0.40767119140625,-0.13105115966796876,0.5458142529296874
-0.27783201171875,0.01698340087890625,0.6741044189453125
-0.51757251953125,-0.10164031982421876,0.6996641455078125
-0.54529099609375,0.0074248779296875,0.742181767578125
-0.41618125,0.12482314697265626,0.7790467578125
-0.403537734375,0.171635400390625,0.9245405859375
-0.58322154296875,0.0878145068359375,0.9636174755859375
-0.5849235546875,0.06649164794921875,0.914218388671875
-0.3301080859375,0.0103659619140625,0.833606943359375
-0.27613,0.19638952392578124,0.930438984375
-0.30214646484375,-0.09869923583984375,0.9459222802734375
-0.36390517578125,-0.242077080078125,0.917167587890625
-0.366579765625,-0.2043331689453125,0.8102591162109375
-0.26810623046875,-0.1817848583984375,0.7515208984375
-0.189570546875,-0.098944326171875,0.8156659814453124
-0.506631015625,-0.187176845703125,0.86064126953125
-0.30798193359375,-0.0210056005859375,0.9088115234375
-0.1988100390625,0.01159141357421875,0.895540126953125
-0.41545181640625,-0.016593974609375,0.9011927587890625
-0.20342978515625,0.023845930175781252,0.8923451611328125
-0.28974609375,-0.1901179296875,0.781504423828125
-0.2357680078125,-0.059729873046875,0.71318130859375
-0.24136033203125,-0.09845414550781251,0.6396970947265626
-0.12076064453125,-0.03203466552734375,0.58145041015625
-0.11395259765625,-0.00850599365234375,0.5866115087890625
-0.06629626953125001,-0.0411030078125,0.663536455078125
-0.06678255859375,-0.02419177490234375,0.7552073974609375
-0.08574783203125,0.04541387939453125,0.856217470703125
-0.2892598046875,0.0103659619140625,0.9638632421875
-0.26032560546875,0.0544822216796875,0.9341254833984375
-0.42906791015625,0.0535018603515625,0.8844806298828125
-0.26664736328125,-0.00654527099609375,0.6451039599609375
-0.07577890625,-0.14134495361328125,0.5492549853515625
-0.14702025390625,-0.03105430419921875,0.4883048681640625
-0.0694571484375,-0.03203466552734375,0.47601653808593747
-0.09644619140624999,0.0397768017578125,0.707774443359375
-0.13024328125,0.05717821533203125,0.9537868115234375
-0.30020130859375,0.1035002880859375,1.17817171875
-0.41885583984375,0.17629211669921874,1.3769968994140624
-0.5061447265625,0.155949619140625,1.271071494140625
-0.27588685546875,0.06109966064453125,0.9105318896484375
-0.24768208984375,0.0270321044921875,0.7606142626953125
-0.30263275390625,0.03021827880859375,0.557365283203125
-0.218747890625,0.021885207519531248,0.48658450195312497
-0.1229489453125,-0.1033559521484375,0.513127294921875
-0.3019033203125,-0.0646316796875,0.85277673828125
-0.19516287109375,-0.02958376220703125,1.06806828125
-0.201241484375,0.13217585693359374,1.2624696630859376
-0.41618125,0.12090170166015625,1.277952958984375
-0.5671740039062501,0.17629211669921874,1.2487067333984374
-0.43393080078125,0.05178622802734375,0.996795966796875
-0.1939471484375,-0.0474753564453125,0.850319072265625
-0.18592337890625,-0.07517056396484376,0.8559717041015625
-0.24938410156250002,-0.1161006494140625,0.8773533984374999
-0.18397822265625,-0.2386458154296875,0.807064150390625
-0.14118478515625,-0.2513905126953125,0.776589091796875
-0.11784291015625001,-0.230312744140625,0.757419296875
-0.13048642578125,-0.21536223388671874,0.9990078662109375
-0.4497351953125,-0.0219859619140625,1.2194605078125
-0.3962433984375,0.24785849365234375,1.311377216796875
-0.3738741015625,0.2191829248046875,1.3357081103515624
-0.49374435546875,0.271632255859375,1.34037767578125
-0.271267109375,0.24246650634765626,1.1784174853515625
-0.23528171875,-0.03693647216796875,1.0432458544921874
-0.2532744140625,-0.02517213623046875,0.88816712890625
-0.10544253906250001,-0.03987755615234375,0.7665126611328125
-0.18300564453125,-0.05262225341796875,0.867031201171875
-0.31041337890625,-0.038161923828125,0.8446664404296875
-0.32402947265625,-0.0092412646484375,0.8284458447265625
-0.3344846875,-0.07566074462890625,0.8930824609375
-0.282938046875,-0.046740085449218746,1.0063808642578125
-0.115654609375,0.0012976196289062499,1.1307387646484375
-0.32840607421875,-0.08938580322265625,1.203239912109375
-0.28853037109375,0.11011772705078125,1.22240970703125
-0.39065107421875,-0.12222790771484375,0.9587021435546875
-0.3111428125,-0.00654527099609375,0.6662398876953125
-0.27613,0.02678701416015625,0.5389327880859375
-0.10860341796875,0.05080586669921875,0.5588398828125
-0.06435111328125,0.11452935302734375,0.8333611767578125
-0.0957167578125,0.12629368896484375,1.0673309814453125
-0.1997826171875,0.09418685546875,1.32661474609375
-0.4448723046875,0.18658591064453126,1.087238076171875
-0.38432931640625,-0.01095689697265625,0.6908165478515624
-0.18884111328125,-0.13007079833984375,0.4578298095703125
-0.0752926171875,-0.03448556884765625,0.4052357568359375
-0.0932853125,-0.0141430712890625,0.40302385742187496
-0.08477525390625,-0.09281706787109376,0.655180390625
-0.0932853125,-0.122472998046875,0.98843990234375
-0.31235853515625,-0.05458297607421875,1.254359365234375
-0.4156949609375,0.1701648583984375,1.363479736328125
-0.20391607421875,0.212810576171875,1.2351895703125
-0.28658521484375,-0.012672529296875,1.01006736328125
-0.1633109375,0.17972338134765625,0.946659580078125
-0.032499179687500004,0.09982393310546875,0.715638974609375
0.0034862109374999978,0.01012087158203125,0.6804943505859375
-0.0286088671875,-0.040122646484374996,0.8864467626953125
-0.17717017578125,-0.08644471923828125,1.0815854443359374
-0.30700935546875,-0.046004814453125,1.0815854443359374
-0.30627992187499997,0.08462833251953125,1.0152284619140626
-0.25449013671875,0.0838930615234375,1.0810939111328124
-0.40329458984375,-0.1288453466796875,1.1002637060546876
-0.3077387890625,-0.048455717773437504,0.9955671337890625
-0.07018658203125,0.08903995849609375,0.754961630859375
-0.041495527343750005,-0.03987755615234375,0.6084847363281249
