ax,ay,az
-0.27272597656249997,-0.0915916162109375,1.0112961962890625
-0.23698373046875,-0.0082609033203125,0.7945300537109374
-0.12562353515625,-0.12541408203125,0.796250419921875
-0.273212265625,-0.025662316894531252,0.9247863525390625
-0.2873146484375,-0.0004180126953125,1.13589986328125
-0.3612305859375,-0.00654527099609375,1.16735798828125
-0.2834243359375,0.021885207519531248,1.047915419921875
-0.22531279296875,-0.030073942871093752,0.9097945898437501
-0.26956509765625,-0.0210056005859375,0.9056165576171875
-0.25351755859375,0.0044837939453125,1.0346440234375
-0.27613,-0.07566074462890625,1.040542421875
-0.25351755859375,-0.0455146337890625,0.991880634765625
-0.30360533203125,-0.0641414990234375,0.946659580078125
-0.24427806640625,0.008405239257812499,0.96877857421875
-0.269321953125,-0.044044091796875,0.964354775390625
-0.26518849609375,0.0280124658203125,0.97369390625
-0.25983931640625,-0.06389640869140625,0.96484630859375
-0.33035123046875,-0.0092412646484375,1.0014655322265624
-0.28804408203125,0.03168882080078125,1.0503730859375
-0.25059982421875,-0.03448556884765625,1.01006736328125
-0.31746457031249997,0.0015427099609375003,0.9916348681640625
-0.24306234375,0.03462990478515625,1.0083469970703125
-0.3155194140625,-0.0376717431640625,0.9414984814453125
-0.299471875,-0.0053198193359375,0.97369390625
-0.20926525390625,0.0030132519531249997,0.96484630859375
-0.25059982421875,-0.0001729223632812504,0.946168046875
-0.2007551953125,-0.0347306591796875,0.9953213671875
-0.28366748046875,0.008895419921875,1.0071181640625
-0.26518849609375,-0.020515419921875,1.053813818359375
-0.28220861328125,0.024581201171875,1.13000146484375
-0.35977171875,0.00472888427734375,1.175714052734375
-0.32062544921875,-0.0055649096679687505,1.092153408203125
-0.2542469921875,-0.020515419921875,0.9798380712890625
-0.27442798828125,-0.0670825830078125,0.8869382958984375
-0.2172890234375,-0.03742665283203125,0.8498275390625
-0.30409162109375,-0.0006631030273437505,0.84097994140625
-0.20683380859375,-0.03252484619140625,0.9026673583984375
-0.25789416015625,-0.014633251953124999,0.94321884765625
-0.240144609375,0.056933125,1.0589749169921876
-0.31965287109375,0.04737460205078125,1.082322744140625
-0.317950859375,0.01257177490234375,1.09952640625
-0.40329458984375,0.024581201171875,1.097068740234375
-0.35223423828125,-0.1116890234375,0.9321593505859375
-0.2435486328125,-0.02737794921875,0.7591396630859375
-0.2211793359375,-0.01291761962890625,0.68368931640625
-0.20926525390625,-0.085219267578125,0.751029365234375
-0.2503566796875,-0.012427438964843749,0.902913125
-0.32208431640625,0.0348749951171875,1.027271025390625
-0.3301080859375,0.01894412353515625,1.095594140625
-0.3437241796875,0.04345315673828125,1.152120458984375
-0.36463460937500003,0.0407571630859375,1.0879753759765625
-0.2834243359375,0.06796218994140625,0.9808211376953125
-0.29971501953125,0.030708459472656248,0.902913125
-0.23455228515625,-0.00605509033203125,0.8761245654296875
-0.19856689453125,-0.0082609033203125,0.851302138671875
-0.3267040625,-0.06879821533203125,0.8313950439453125
-0.20294349609375,0.02090484619140625,0.8702261669921875
-0.28074974609375003,0.026541923828125,0.8928366943359375
-0.2688356640625,-0.09012107421875,0.9356000830078125
-0.2255559375,-0.0298288525390625,0.9609140429687499
-0.26275705078125,-0.03448556884765625,0.977626171875
-0.25497642578125,-0.013407800292968751,1.0688055810546875
-0.29096181640625,-0.02272123291015625,1.1105859033203125
-0.3242726171875,0.0172284912109375,1.06511908203125
-0.15066742187499998,-0.08644471923828125,0.9284728515625
-0.25351755859375,0.055462583007812497,0.9331424169921875
-0.265431640625,-0.09526797119140624,0.9852449365234375
-0.27102396484375,-0.11585555908203125,1.0024485986328124
-0.1657423828125,-0.11340465576171875,0.890624794921875
-0.16987583984375,-0.22908729248046875,0.7942842871093749
-0.09061072265625,-0.22467566650390625,0.74267330078125
-0.13632189453125,-0.206784072265625,0.684180849609375
-0.17133470703125,-0.15703073486328126,0.655180390625
-0.27151025390625,-0.10580685546875,0.6669771875
-0.2766162890625,-0.01683906494140625,0.7984623193359375
-0.34299474609375,0.17139031005859376,0.876861865234375
-0.3456693359375,0.13854820556640626,0.9714820068359376
-0.19273142578125,0.14884199951171875,0.9410069482421874
-0.25692158203125,0.17825283935546876,0.789368955078125
-0.22142248046875002,0.03512008544921875,0.8313950439453125
-0.27248283203125,-0.04526954345703125,0.9606682763671874
-0.17230728515625,0.1397736572265625,1.080356611328125
-0.16136578125,0.28266132080078127,1.2128248095703125
-0.337402421875,0.2152614794921875,1.4418792822265625
-0.42955419921875,0.08707923583984375,1.4988971337890624
-0.5562325,0.21697711181640625,1.4802188720703124
-0.48012826171875,0.16893940673828126,1.201273779296875
-0.40937320312500003,-0.06193568603515625,0.9311762841796875
-0.2202067578125,-0.22908729248046875,0.787402822265625
-0.13048642578125,-0.19281392333984376,0.72301197265625
-0.15917748046875,-0.18006922607421874,0.73775796875
-0.152612578125,-0.186196484375,0.9449392138671875
-0.31916658203125,-0.0788469189453125,1.2777071923828125
-0.4001337109375,-0.1523740185546875,1.4595744775390624
-0.38335673828125,-0.06340622802734375,1.41902298828125
-0.419098984375,0.01600303955078125,1.22240970703125
-0.41058892578125,-0.11634573974609375,0.9719735400390626
-0.23649744140625,-0.06928839599609375,0.885709462890625
-0.40475345703125,-0.1396293212890625,0.9370746826171875
-0.366579765625,-0.18301031005859375,0.8557259375
-0.24427806640625,-0.1327667919921875,0.7507835986328125
-0.18738224609375,-0.19036302001953126,0.75250396484375
-0.3709563671875,0.01208159423828125,0.68172318359375
-0.397702265625,0.05815857666015625,0.6910623144531249
-0.1754681640625,-0.047965537109375,0.6254426318359375
-0.28074974609375003,0.06158984130859375,0.8301662109375
-0.37338781249999997,0.04712951171875,1.0621698828125
-0.5071173046875,-0.030319033203124998,1.0697886474609375
-0.48985404296875,0.17653720703125,0.9999909326171875
-0.50881931640625,0.15423398681640624,0.8368019091796874
-0.37363095703125,0.1392834765625,0.68958771484375
-0.138996484375,-0.0435539111328125,0.7635634619140625
-0.195406015625,-0.23104801513671874,0.8859552294921875
-0.2095083984375,-0.2857031591796875,0.9874568359375
-0.13826705078125,-0.1337471533203125,1.2624696630859376
-0.242089765625,0.02727719482421875,1.45244724609375
-0.50152498046875,-0.1151202880859375,1.4531845458984374
-0.26227076171875,-0.05556333740234375,1.436226650390625
-0.18738224609375,-0.05874951171875,1.306461884765625
-0.4939875,-0.0906112548828125,1.312360283203125
-0.374360390625,0.059874208984374996,1.2806563916015625
-0.36925435546875,-0.12860025634765626,0.9724650732421874
-0.29096181640625,-0.091101435546875,0.8805483642578125
-0.19832375,-0.06659240234375,0.9191337207031249
-0.1501811328125,-0.10972830078125,1.056271484375
-0.27637314453125,-0.0729647509765625,1.0599579833984376
-0.18884111328125,0.0525214990234375,1.02383029296875
-0.16647181640625,0.0495804150390625,1.0432458544921874
-0.2114535546875,-0.057278969726562504,1.0759328125
-0.24427806640625,0.021640117187500002,1.1946380810546875
-0.33424154296874997,-0.05703387939453125,1.344801474609375
-0.384086171875,-0.02958376220703125,1.3819122314453125
-0.444386015625,0.0008074389648437498,1.261240830078125
-0.31770771484375,-0.05458297607421875,1.0874838427734375
-0.31430369140625003,-0.0651218603515625,1.002694365234375
-0.2377131640625,-0.05115171142578125,1.1091113037109375
-0.28415376953125,-0.065612041015625,1.25190169921875
-0.3466419140625,-0.04526954345703125,1.2324861376953125
-0.2435486328125,0.01649322021484375,1.1410609619140626
-0.26761994140625,0.0270321044921875,1.075441279296875
-0.2221519140625,-0.0847290869140625,0.970253173828125
-0.20804953125,0.00987578125,0.995812900390625
-0.2766162890625,-0.03522083984375,1.0284998583984375
-0.32402947265625,0.02237538818359375,1.0904330419921875
-0.29047552734375,0.03536517578125,1.01399962890625
-0.338375,-0.07026875732421875,0.9577190771484375
-0.32208431640625,-0.0006631030273437505,0.9582106103515625
-0.240144609375,0.0172284912109375,0.9026673583984375
-0.26518849609375,0.0211499365234375,0.9316678173828125
-0.24184662109375,-0.0210056005859375,0.9650920751953125
-0.26907880859375,0.0456589697265625,1.0422627880859374
-0.30603677734375,-0.11291447509765624,1.03661015625
-0.28464005859375,-0.0190448779296875,0.9638632421875
-0.16841697265625,0.010856142578125,0.8105048828125
-0.2065906640625,-0.06438658935546875,0.7384952685546875
-0.23114826171875,-0.04526954345703125,0.70924904296875
-0.26372962890625,-0.01169216796875,0.7768348583984375
-0.33813185546875,0.009140510253906251,0.8183694140625
-0.28658521484375,-0.069533486328125,0.8200897802734375
-0.33570041015625,0.03119864013671875,0.8387680419921875
-0.2328502734375,-0.010221625976562499,0.8441749072265625
-0.308225078125,0.00227798095703125,0.8579378369140624
-0.299471875,0.02752228515625,0.93142205078125
-0.32111173828125,-0.02174087158203125,0.922082919921875
-0.240144609375,0.00619942626953125,0.8734211328125
-0.304334765625,0.028502646484374998,0.8186151806640625
-0.26275705078125,0.03266918212890625,0.8318865771484375
-0.24427806640625,-0.0161037939453125,0.7829790234375
-0.2377131640625,-0.01487834228515625,0.7679872607421875
-0.23139140625,-0.00409436767578125,0.8775991650390624
-0.31284482421875,-0.008996174316406251,0.8943112939453125
-0.32086859375,0.00570924560546875,0.9154472216796875
-0.2717533984375,0.00963069091796875,0.871455
-0.32694720703125,0.06624655761718751,0.8692431005859375
-0.26907880859375,0.01747358154296875,0.861132802734375
-0.279047734375,0.00963069091796875,0.951574912109375
-0.3291355078125,0.0030132519531249997,1.01399962890625
-0.27248283203125,0.01992448486328125,0.95894791015625
-0.19613544921875,0.00399361328125,0.9174133544921875
-0.24136033203125,-0.026397587890625,0.878827998046875
-0.21655958984375,0.011346323242187501,0.8879213623046875
-0.24184662109375,-0.01683906494140625,0.8918536279296875
-0.24184662109375,-0.044044091796875,0.8692431005859375
-0.269321953125,0.010611052246093749,0.8997181591796874
-0.2824517578125,0.03806116943359375,0.9572275439453125
-0.35320681640625,-0.01291761962890625,0.9975332666015625
-0.29290697265625,0.0505607763671875,1.012525029296875
-0.378250703125,0.028257556152343752,0.9778719384765625
-0.25059982421875,-0.018554697265625,0.9375662158203125
-0.30919765625,0.01845394287109375,0.8962774267578125
-0.2211793359375,0.03512008544921875,0.9370746826171875
-0.265431640625,0.0270321044921875,0.9601767431640625
-0.21753216796875,-0.00703545166015625,0.94518498046875
-0.26032560546875,-0.00581,1.00023669921875
-0.32889236328125,-0.0013983740234375002,1.044966220703125
-0.2931501171875,0.04002189208984375,1.0368559228515626
-0.282938046875,-0.048945898437499996,0.962388642578125
-0.28998923828125,0.0255615625,0.989914501953125
-0.2834243359375,0.00816014892578125,0.9444476806640625
-0.35393625,-0.03693647216796875,0.9704989404296875
-0.28901666015625,0.01159141357421875,1.0289913916015625
-0.253760703125,-0.02762303955078125,0.9717277734375
-0.29339326171875,0.0035034326171875,0.999745166015625
-0.247925234375,0.0309535498046875,1.04152548828125
-0.28269490234375,-0.03448556884765625,0.9749227392578125
-0.30311904296875003,-0.0229663232421875,0.965829375
-0.174981875,0.0221302978515625,1.0395593554687501
-0.245980078125,-0.0141430712890625,0.9891772021484375
-0.3155194140625,-0.01953505859375,1.0265337255859375
-0.27345541015625,0.00668960693359375,1.0353813232421876
-0.26956509765625,0.01306195556640625,1.016457294921875
-0.299471875,0.00963069091796875,0.983033037109375
-0.2941226953125,0.0093856005859375,0.93338818359375
-0.32500205078125,-0.114630107421875,0.851793671875
-0.25862359375,0.0280124658203125,0.8564632373046875
-0.2785614453125,0.04786478271484375,0.871455
-0.27199654296875,-0.08497417724609375,0.9567360107421875
-0.255705859375,0.06109966064453125,1.0432458544921874
-0.3301080859375,0.069677822265625,1.123611533203125
-0.3242726171875,0.022620478515625,1.0520934521484375
-0.2717533984375,0.03904153076171875,0.944693447265625
-0.2581373046875,-0.00801581298828125,0.8658023681640625
-0.22288134765625,-0.0327699365234375,0.781012890625
-0.24233291015625,0.01453249755859375,0.799199619140625
-0.24427806640625,-0.02517213623046875,0.846386806640625
-0.2396583203125,-0.05482806640625,0.9127437890625
-0.33229638671875,0.01012087158203125,1.0914161083984375
-0.32743349609375,0.0593840283203125,1.1474508935546874
-0.30992708984375,0.085363603515625,1.1312302978515625
-0.2878009375,0.01012087158203125,1.01596576171875
-0.21193984375,-0.03595611083984375,0.9179048876953125
-0.25546271484375,0.06306038330078124,0.9795923046875
-0.22579908203125,7.216796875000007e-05,0.922574453125
-0.222638203125,-0.029338671875,0.938795048828125
-0.3048210546875,0.0255615625,0.994829833984375
-0.2250696484375,-0.0661022216796875,0.9473968798828125
-0.251815546875,-0.01095689697265625,0.9297016845703125
-0.28269490234375,-0.030319033203124998,0.9469053466796875
-0.30117388671875,0.01257177490234375,0.95108337890625
-0.26032560546875,0.01845394287109375,0.917167587890625
-0.34348103515625,-0.06438658935546875,0.9363373828125
-0.30749564453125,0.04933532470703125,0.9685328076171875
-0.26129818359375,0.015022678222656249,0.9407611816406249
-0.325731484375,0.00791505859375,1.0157199951171876
-0.31308796875,0.081442158203125,1.0506188525390625
-0.26081189453125,0.004973974609375,0.9041419580078125
-0.2912049609375,-0.01732924560546875,0.8825144970703125
-0.214857578125,0.01600303955078125,0.9056165576171875
-0.30992708984375,-0.059484782714843754,0.838522275390625
-0.18640966796875,-0.0567887890625,0.93142205078125
-0.34737134765625,0.01600303955078125,1.0594664501953126
-0.32500205078125,0.0137972265625,1.0663479150390625
-0.30117388671875,0.0294830078125,1.0407881884765624
-0.35369310546875,0.06257020263671875,0.92552365234375
-0.24573693359375,-0.013652890625,0.9523122119140625
-0.4049966015625,0.067717099609375,0.9837703369140625
-0.38092529296875,-0.075415654296875,0.9198710205078124
-0.18057419921875,-0.0602200537109375,0.889641728515625
-0.35466568359375,0.0231106591796875,0.881777197265625
-0.259596171875,-0.04821062744140625,0.871455
-0.19662173828125,0.0012976196289062499,0.8989808593749999
-0.370470078125,0.07874616455078125,1.0250591259765625
-0.2698082421875,0.0387964404296875,1.0894499755859375
-0.298499296875,0.1309504052734375,1.084288876953125
-0.42031470703125,-0.032279755859375,0.9650920751953125
-0.26664736328125,-0.0543378857421875,0.9410069482421874
-0.346155625,0.08462833251953125,0.977626171875
-0.33764556640625,-0.05850442138671875,0.9179048876953125
-0.23819945312500002,-0.0739451123046875,0.8603955029296875
-0.331566953125,-0.0332601171875,0.911269189453125
-0.29387955078125,-0.01561361328125,1.044966220703125
-0.28950294921874997,-0.0631611376953125,0.984016103515625
-0.3067662109375,0.03855135009765625,1.0088385302734375
-0.2639727734375,-0.016593974609375,1.040542421875
-0.31187224609374997,-0.07419020263671874,0.9965502001953125
-0.253760703125,0.0152677685546875,1.0820769775390624
-0.37265837890625,-0.0259074072265625,1.0928907080078125
-0.2912049609375,-0.06242586669921875,0.9886856689453125
-0.27783201171875,0.063795654296875,0.959439443359375
-0.356853984375,-0.124433720703125,0.953541044921875
-0.2133987109375,-0.0651218603515625,1.0167030615234376
-0.3500459375,0.02360083984375,1.0594664501953126
-0.3057936328125,-0.12663953369140624,1.1656376220703124
-0.37898013671874997,-0.08742508056640624,1.052830751953125
-0.17376615234375,-0.0729647509765625,0.9896687353515625
-0.32694720703125,0.01257177490234375,0.923065986328125
-0.20026890625,0.014777587890624999,1.005643564453125
-0.27637314453125,0.0574233056640625,1.1223827001953124
-0.31187224609374997,0.0172284912109375,1.1921804150390625
-0.32743349609375,-0.0366913818359375,1.2029941455078126
-0.2707808203125,-0.12614935302734376,1.07691587890625
-0.27831830078124997,-0.11879664306640625,1.0078554638671875
-0.30603677734375,-0.01683906494140625,0.9410069482421874
-0.36682291015625,-0.1151202880859375,0.8156659814453124
-0.2707808203125,-0.14673694091796874,0.917167587890625
-0.3563676953125,0.0613447509765625,1.049881552734375
-0.30360533203125,-0.01169216796875,1.0688055810546875
-0.2338228515625,-0.01953505859375,1.1447474609375
-0.290718671875,-0.05556333740234375,1.1012467724609376
-0.29387955078125,-0.030073942871093752,1.0289913916015625
-0.3019033203125,-0.132276611328125,0.8230389794921875
-0.2099946875,-0.020515419921875,0.949608779296875
-0.22968939453125,0.010611052246093749,0.9768888720703125
-0.28123603515625,-0.10286577148437501,0.9940925341796875
-0.209022109375,-0.0612004150390625,1.0171945947265626
-0.30068759765624997,-0.05482806640625,0.9501003125
-0.24768208984375,-0.13154134033203124,0.905370791015625
-0.31819400390625,-0.05115171142578125,0.942727314453125
-0.2698082421875,-0.06144550537109375,0.9793465380859375
-0.3505322265625,-0.0729647509765625,1.0068723974609375
-0.3155194140625,-0.028113220214843748,1.06020375
-0.30798193359375,-0.0876701708984375,1.004660498046875
-0.29728357421875,-0.13007079833984375,0.961897109375
-0.25692158203125,-0.10213050048828125,0.866048134765625
-0.25740787109375,-0.1690401611328125,0.7969877197265625
-0.25400384765625,-0.11683592041015625,0.8087845166015625
-0.30919765625,-0.047965537109375,0.8783364648437499
-0.27005138671875,-0.05115171142578125,0.9169218212890625
-0.3578265625,-0.051886982421875,0.935845849609375
-0.28318119140625,-0.0641414990234375,0.9638632421875
-0.28707150390625,-0.10850284912109374,0.9191337207031249
-0.29509527343749997,-0.0425735498046875,0.962388642578125
-0.38384302734375,-0.03203466552734375,0.96288017578125
-0.36220316406249997,-0.09404251953125001,0.9134810888671875
-0.28853037109375,-0.05458297607421875,0.8417172412109375
-0.24670951171875,-0.06781785400390625,0.81738634765625
-0.27929087890625,-0.1660990771484375,0.913235322265625
-0.24281919921875,-0.053847705078125,1.0157199951171876
-0.26227076171875,-0.08227818359375,0.97860923828125
-0.38870591796875,-0.122472998046875,0.955507177734375
-0.2454937890625,-0.10850284912109374,0.9631259423828125
-0.29096181640625,-0.13056097900390626,0.9026673583984375
-0.3344846875,-0.08987598388671875,0.95796484375
-0.3106565234375,-0.095022880859375,0.984016103515625
-0.298499296875,0.0044837939453125,0.987948369140625
-0.42469130859375,-0.0543378857421875,0.9646005419921875
-0.26178447265625,-0.0337502978515625,1.0157199951171876
-0.282938046875,-0.09526797119140624,0.9493630126953125
-0.30214646484375,-0.114630107421875,0.89013326171875
-0.172064140625,-0.1180613720703125,0.8869382958984375
-0.32159802734375,-0.136198056640625,0.893573994140625
-0.35977171875,-0.1259042626953125,1.0078554638671875
-0.27540056640625,-0.10016977783203125,1.0525849853515625
-0.26956509765625,-0.02737794921875,1.0307117578125
-0.31381740234375,-0.14820748291015626,0.9311762841796875
-0.27442798828125,-0.13301188232421876,0.8864467626953125
-0.2566784375,-0.0464949951171875,0.94125271484375
-0.39089421875,-0.151883837890625,0.99630443359375
-0.3427516015625,-0.0749254736328125,1.1017383056640626
-0.27491427734375,-0.0661022216796875,1.0565172509765626
-0.33618669921875,-0.10188541015625,0.96288017578125
-0.2474389453125,-0.0161037939453125,0.970253173828125
-0.2800203125,-0.132276611328125,0.9011927587890625
-0.2099946875,-0.12418863037109375,0.9572275439453125
-0.27783201171875,-0.10311086181640625,0.9832788037109375
-0.34348103515625,-0.13497260498046876,1.0597122167968749
-0.3019033203125,-0.14379585693359376,0.996795966796875
-0.2707808203125,-0.10115013916015625,0.9397781152343749
-0.329621796875,-0.1062970361328125,0.9798380712890625
-0.3320532421875,-0.14722712158203125,1.0422627880859374
-0.3096839453125,-0.05311243408203125,1.0747039794921875
-0.30846822265625,-0.075415654296875,0.98647376953125
-0.30311904296875003,-0.1445311279296875,0.9442019140625
-0.20464550781250002,-0.13717841796875,0.9744312060546875
-0.2960678515625,-0.1778634130859375,1.028745625
-0.380195859375,-0.14502130859375,1.08674654296875
-0.26567478515625,-0.1210024560546875,0.98647376953125
-0.40475345703125,-0.14698203125,0.9154472216796875
-0.2523018359375,-0.05360261474609375,0.938795048828125
-0.2260422265625,-0.05752406005859375,0.9835245703125
-0.2722396875,-0.0724745703125,1.021372626953125
-0.28074974609375003,-0.16144236083984376,0.9867195361328125
-0.372415234375,-0.13154134033203124,1.0427543212890624
-0.3291355078125,-0.023456503906250002,1.01596576171875
-0.2873146484375,-0.2435476220703125,0.8697346337890625
-0.1881116796875,-0.08056255126953125,0.9749227392578125
-0.3194097265625,-0.02737794921875,1.0589749169921876
-0.3466419140625,-0.224430576171875,1.0629071826171874
-0.2814791796875,-0.09624833251953124,1.0936280078125
-0.3096839453125,-0.06781785400390625,1.0661021484375
-0.25643529296875,-0.15310928955078124,1.003677431640625
-0.3189234375,-0.13399224365234375,0.870963466796875
-0.17692703125,-0.068553125,0.89209939453125
-0.28415376953125,-0.1121792041015625,0.8274627783203125
-0.3670660546875,-0.1562954638671875,0.9567360107421875
-0.30652306640625,-0.12565917236328125,0.977134638671875
-0.27418484375,-0.173451787109375,0.8707177001953125
-0.33229638671875,-0.144040947265625,0.8658023681640625
-0.25157240234375,-0.2092349755859375,0.9385492822265625
-0.31430369140625003,-0.13717841796875,0.9847534033203125
-0.300444453125,-0.1288453466796875,1.0363643896484376
-0.36755234375,-0.091101435546875,1.01399962890625
-0.26518849609375,-0.108747939453125,0.9906518017578125
-0.304334765625,-0.0955130615234375,0.9611598095703124
-0.27345541015625,-0.04477936279296875,0.85277673828125
-0.22774423828125,-0.00458454833984375,0.89406552734375
-0.27880458984375,-0.18202994873046874,0.9041419580078125
-0.29485212890625,-0.13007079833984375,0.9896687353515625
-0.28974609375,-0.189137568359375,1.02088109375
-0.2649453515625,-0.13129625,1.065610615234375
-0.3096839453125,-0.123453359375,1.03169482421875
-0.31965287109375,-0.10016977783203125,1.0570087841796876
-0.3437241796875,-0.1180613720703125,0.968287041015625
-0.29874244140625,-0.10972830078125,0.97271083984375
-0.26372962890625,-0.10213050048828125,0.974185439453125
-0.30846822265625,-0.17467723876953126,0.872929599609375
-0.2610550390625,-0.110708662109375,0.9827872705078124
-0.27685943359375,-0.21732295654296874,0.9488714794921875
-0.32548833984375003,-0.14085477294921875,1.0442289208984374
-0.30360533203125,-0.17761832275390624,1.0810939111328124
-0.3446967578125,-0.18031431640625,0.97467697265625
-0.2163164453125,-0.15556019287109374,0.814928681640625
-0.3189234375,-0.1788437744140625,0.768724560546875
-0.316005703125,-0.07615092529296875,0.912252255859375
-0.36755234375,-0.1611972705078125,0.93732044921875
-0.27734572265625,-0.13644314697265625,1.0599579833984376
-0.38919220703125,-0.03889719482421875,0.9724650732421874
-0.35952857421875,-0.15703073486328126,0.8082929833984375
-0.19224513671875,-0.0759058349609375,0.8407341748046875
-0.3612305859375,-0.13252170166015625,0.9097945898437501
-0.34421046875,-0.18987283935546875,0.9940925341796875
-0.22968939453125,-0.15163874755859374,0.985982236328125
-0.2698082421875,-0.161687451171875,0.95501564453125
-0.30846822265625,-0.1249239013671875,0.894557060546875
-0.32111173828125,-0.17712814208984376,0.8618701025390625
-0.23163455078125,-0.04575972412109375,1.024813359375
-0.28464005859375,-0.12418863037109375,1.0162115283203126
-0.38967849609375,-0.1641383544921875,1.0550426513671876
-0.2309051171875,-0.14183513427734376,1.0314490576171875
-0.27199654296875,-0.09575815185546875,0.9636174755859375
-0.360744296875,-0.13840386962890625,0.958456376953125
-0.27977716796875,-0.122472998046875,1.006626630859375
-0.31138595703125,-0.13889405029296875,1.01006736328125
-0.33715927734375,-0.16144236083984376,1.084288876953125
-0.32791978515625,-0.100905048828125,1.106899404296875
-0.20683380859375,-0.170510703125,1.0162115283203126
-0.22750109375,-0.1651187158203125,1.0540595849609375
-0.4225030078125,-0.12418863037109375,1.099034873046875
-0.34104958984375,-0.024436865234375,1.07298361328125
-0.28561263671875,-0.2781053588867187,0.83311541015625
-0.30603677734375,-0.26658611328125,0.8230389794921875
-0.24330548828125,-0.21291133056640624,0.7861739892578125
-0.23941517578125,-0.2842326171875,0.8166490478515624
-0.38092529296875,-0.20849970458984374,0.945676513671875
-0.36487775390625,-0.1665892578125,1.0130165625
-0.2955815625,-0.0964934228515625,0.999745166015625
-0.24573693359375,0.0005623486328125002,1.0545511181640626
-0.3942982421875,0.0074248779296875,1.0938737744140625
-0.23406599609375,-0.0866898095703125,1.0189149609375
-0.32743349609375,-0.01781942626953125,1.01006736328125
-0.21850474609375,-0.12860025634765626,1.0186691943359376
-0.3116291015625,-0.1430605859375,1.0452119873046875
-0.38335673828125,-0.1013952294921875,1.0865007763671874
-0.3690112109375,-0.23202837646484376,0.9990078662109375
-0.40815748046875,-0.1896277490234375,0.86260740234375
-0.27029453125,-0.22516584716796875,0.80558955078125
-0.28755779296875,-0.12663953369140624,0.8638362353515625
-0.24914095703125,-0.18153976806640626,0.935845849609375
-0.2824517578125,-0.16340308349609375,1.1061621044921874
-0.3967296875,-0.08497417724609375,1.0953483740234375
-0.3189234375,-0.13791368896484374,0.993846767578125
-0.23260712890625002,-0.08007237060546875,0.8603955029296875
-0.2328502734375,-0.0396324658203125,0.86850580078125
-0.333512109375,-0.0612004150390625,0.9820499707031249
-0.35393625,-0.091101435546875,1.05332228515625
-0.302389609375,-0.0435539111328125,1.0629071826171874
-0.29363640625,0.06624655761718751,1.048406953125
-0.354908828125,-0.052867343750000004,0.93437125
-0.15042427734375,-0.13325697265625,0.8783364648437499
-0.22093619140625,-0.02664267822265625,1.037101689453125
-0.4818302734375,-0.23104801513671874,1.0614325830078124
-0.39016478515624997,-0.05752406005859375,1.1054248046875
-0.28318119140625,-0.02419177490234375,0.8692431005859375
-0.18106048828125,-0.30996710205078126,0.8616243359375
-0.2707808203125,-0.11879664306640625,1.0525849853515625
-0.31187224609374997,-0.20408807861328124,1.2162655419921875
-0.4458448828125,-0.0504164404296875,1.3300554785156251
-0.374360390625,0.026296833496093748,1.11230626953125
-0.20197091796875,-0.09624833251953124,0.980083837890625
-0.1355924609375,-0.1210024560546875,0.89209939453125
-0.29509527343749997,0.00472888427734375,0.943710380859375
-0.21996361328125,-0.0955130615234375,1.02972869140625
-0.2396583203125,-0.0945327001953125,1.078390478515625
-0.376305546875,-0.1116890234375,1.1862820166015624
-0.37071322265625,-0.3053103857421875,1.254359365234375
-0.38311359375,-0.2580079516601563,1.1867735498046874
-0.2571647265625,-0.28888933349609375,1.039067822265625
-0.2902323828125,-0.18252012939453124,0.9469053466796875
-0.249870390625,-0.1337471533203125,0.8984893261718749
-0.28512634765625,-0.10164031982421876,0.9481341796875
-0.34056330078125,-0.1278649853515625,1.028745625
-0.25108611328125,-0.04968116943359375,1.1071451708984374
-0.2411171875,-0.010711806640625,1.014491162109375
-0.232363984375,-0.06585713134765625,0.903404658203125
-0.17376615234375,-0.0170841552734375,0.918150654296875
-0.325731484375,-0.048455717773437504,1.027271025390625
-0.37606240234375,-0.089140712890625,1.0702801806640625
-0.40767119140625,-0.02419177490234375,0.9862280029296875
-0.38773333984375,-0.03644629150390625,0.8871840625
-0.45435494140625,-0.0960032421875,0.810996416015625
-0.33375525390625,-0.085219267578125,0.73480876953125
-0.21169669921875,-0.09134652587890625,0.6925369140625
-0.1307295703125,-0.1013952294921875,0.7869112890625
-0.22385392578125,-0.1680597998046875,0.9247863525390625
-0.32451576171875,-0.098944326171875,1.1145181689453125
-0.35661083984374997,-0.05899460205078125,1.2428083349609376
-0.09450103515625,-0.1023755908203125,1.2103671435546874
-0.1920019921875,-0.076396015625,1.145238994140625
-0.32889236328125,-0.1455114892578125,1.1946380810546875
-0.32743349609375,-0.128355166015625,1.1145181689453125
-0.36196001953125,-0.07762146728515625,1.0034316650390624
-0.3388612890625,-0.055808427734375,1.013508095703125
-0.34421046875,-0.1562954638671875,0.98942296875
-0.25084296875,-0.10948321044921874,0.942727314453125
-0.25643529296875,-0.15948163818359376,0.8662939013671875
-0.29047552734375,-0.14820748291015626,0.8510563720703125
-0.218747890625,-0.126394443359375,0.8530225048828125
-0.2411171875,-0.17467723876953126,0.8038691845703125
-0.1939471484375,-0.1121792041015625,0.8574463037109374
-0.21899103515625,-0.1347275146484375,0.863098935546875
-0.3515048046875,-0.14232531494140624,0.819844013671875
-0.24379177734375002,-0.12541408203125,0.8156659814453124
-0.33667298828125003,-0.01438816162109375,0.8520394384765625
-0.3291355078125,-0.0523771630859375,0.9208540869140625
-0.30798193359375,-0.07566074462890625,1.002694365234375
-0.4030514453125,-0.0494360791015625,1.0658563818359374
-0.29874244140625,-0.07222947998046875,0.970253173828125
-0.310170234375,-0.0543378857421875,0.8918536279296875
-0.26081189453125,-0.055808427734375,0.873912666015625
-0.234309140625,-0.1102184814453125,0.86457353515625
-0.3033621875,-0.06879821533203125,0.90193005859375
-0.26567478515625,-0.0876701708984375,0.942727314453125
-0.2153438671875,-0.10360104248046875,0.926015185546875
-0.28026345703125,-0.1062970361328125,0.927981318359375
-0.2464663671875,-0.059729873046875,0.9641090087890625
-0.2017277734375,-0.09085634521484375,0.9636174755859375
-0.32937865234375,-0.124433720703125,1.005643564453125
-0.30652306640625,-0.04821062744140625,1.0700344140625
-0.44171142578125,-0.0759058349609375,1.0457035205078125
-0.31746457031249997,-0.0999246875,1.0304659912109375
-0.2279873828125,-0.04477936279296875,0.9953213671875
-0.29169125,-0.130315888671875,0.9051250244140625
-0.2182616015625,-0.08423890625,0.946168046875
-0.1988100390625,-0.140119501953125,0.841471474609375
-0.2367405859375,-0.167569619140625,0.823776279296875
-0.23649744140625,-0.13007079833984375,0.830657744140625
-0.2649453515625,-0.13252170166015625,0.873912666015625
-0.2882872265625,-0.0710040283203125,0.9842618701171875
-0.33642984375,-0.05090662109375,0.9454307470703125
-0.3729015234375,-0.06781785400390625,0.914709921875
-0.337402421875,-0.07468038330078125,0.9041419580078125
-0.329621796875,-0.12663953369140624,0.8997181591796874
-0.32208431640625,-0.110708662109375,0.953541044921875
-0.3281629296875,-0.1092381201171875,0.96681244140625
-0.2532744140625,-0.11977700439453125,0.94518498046875
-0.3019033203125,-0.08227818359375,0.925032119140625
-0.25789416015625,-0.07835673828125,0.9867195361328125
-0.28318119140625,-0.05115171142578125,0.9717277734375
-0.24768208984375,-0.046004814453125,0.9442019140625
-0.27637314453125,-0.029338671875,0.9709904736328125
-0.19321771484375,-0.025662316894531252,1.01596576171875
-0.37460353515625,-0.02321141357421875,0.9763973388671875
-0.3651208984375,-0.012672529296875,0.9857364697265625
-0.28172232421875,-0.0523771630859375,0.9110234228515625
-0.29631099609375,-0.12614935302734376,0.832623876953125
-0.1871391015625,-0.046249904785156254,0.9090572900390625
-0.2678630859375,-0.144040947265625,0.9444476806640625
-0.29582470703125,-0.11487519775390626,1.0914161083984375
-0.3271903515625,-0.07958218994140626,1.0594664501953126
-0.2698082421875,-0.04723026611328125,0.9754142724609375
-0.26129818359375,-0.13546278564453124,0.8584293701171875
-0.27734572265625,-0.01046671630859375,0.959439443359375
-0.21607330078125,-0.0876701708984375,0.938303515625
-0.2338228515625,-0.0161037939453125,0.99630443359375
-0.315033125,-0.09526797119140624,1.01989802734375
-0.37606240234375,-0.05213207275390625,0.999745166015625
-0.244034921875,-0.022476142578125,0.95698177734375
-0.37752126953125,-0.06732767333984375,0.921099853515625
-0.3242726171875,-0.07124911865234375,0.9768888720703125
-0.2805066015625,-0.061690595703125004,1.0019570654296874
-0.32937865234375,-0.130315888671875,1.0444746875
-0.34980279296875,-0.0543378857421875,1.095594140625
-0.335457265625,-0.069533486328125,0.997779033203125
-0.203186640625,-0.12516899169921875,0.914218388671875
-0.2688356640625,-0.0415931884765625,0.906353857421875
-0.31576255859375,-0.0288484912109375,1.00416896484375
-0.2474389453125,-0.03987755615234375,0.9827872705078124
-0.3155194140625,0.032424091796875,0.9127437890625
-0.26324333984375,0.02776737548828125,1.033169423828125
-0.25303126953125,-0.069533486328125,1.03169482421875
-0.36390517578125,-0.0719843896484375,1.06511908203125
-0.26713365234374997,-0.10311086181640625,1.14671359375
-0.3096839453125,-0.05482806640625,1.03169482421875
-0.27977716796875,-0.09673851318359375,0.9191337207031249
-0.338375,-0.110708662109375,0.9311762841796875
-0.27613,-0.0719843896484375,0.893573994140625
-0.263486484375,-0.04306373046875,0.832623876953125
-0.1920019921875,-0.1210024560546875,0.86359046875
-0.2552195703125,-0.020515419921875,0.929947451171875
-0.1968648828125,-0.14502130859375,0.99433830078125
-0.31333111328125,-0.06095532470703125,1.0688055810546875
-0.2571647265625,-0.03154448486328125,1.00220283203125
-0.3835998828125,-0.091101435546875,0.9734481396484375
-0.30457791015625,-0.07222947998046875,1.038084755859375
-0.31284482421875,0.0015427099609375003,1.0584833837890626
-0.41302037109375,-0.05262225341796875,1.024813359375
-0.27053767578125,0.02237538818359375,0.9916348681640625
-0.30263275390625,-0.0406128271484375,0.9100403564453124
-0.259596171875,-0.04281864013671875,0.9626344091796875
-0.2639727734375,-0.08963089355468751,1.0088385302734375
-0.32548833984375003,-0.15359947021484374,1.033169423828125
-0.21315556640625,-0.02419177490234375,0.981066904296875
-0.3291355078125,-0.0411030078125,0.8572005371093749
-0.15917748046875,-0.10727739746093751,0.8849721630859375
-0.33667298828125003,-0.0170841552734375,1.01203349609375
-0.3670660546875,-0.0808076416015625,1.115747001953125
-0.2513292578125,-0.12516899169921875,1.0385762890625
-0.39502767578125,-0.060710234375,0.9311762841796875
-0.267376796875,0.0044837939453125,0.9154472216796875
-0.27296912109375,-0.05164189208984375,0.8358188427734374
-0.39259623046875003,-0.0175743359375,0.87637033203125
-0.23917203125,-0.048945898437499996,0.913235322265625
-0.224583359375,-0.077376376953125,0.91372685546875
-0.24768208984375,-0.011201987304687501,0.98450763671875
-0.25643529296875,-0.107767578125,1.0582376171875
-0.26372962890625,-0.128355166015625,1.0425085546875
-0.2989855859375,-0.08423890625,0.9557529443359375
-0.28901666015625,-0.0366913818359375,0.974185439453125
-0.3223274609375,-0.061690595703125004,0.958456376953125
-0.240144609375,0.00619942626953125,0.9670582080078125
-0.39648654296875,0.0427178857421875,0.9926179345703126
-0.3344846875,-0.00581,0.9183964208984375
-0.28512634765625,0.0003172583007812497,0.959439443359375
-0.27102396484375,-0.011201987304687501,0.9680412744140625
-0.1725504296875,-0.10458140380859375,0.9626344091796875
-0.31041337890625,-0.03448556884765625,0.9562444775390625
-0.3203823046875,-0.0376717431640625,0.9405154150390624
-0.26859251953125,-0.048945898437499996,0.9501003125
-0.2955815625,0.06747200927734374,1.03759322265625
-0.25449013671875,-0.03522083984375,0.997779033203125
-0.24087404296875,-0.042083369140625,0.9763973388671875
-0.3466419140625,-0.0494360791015625,0.89799779296875
-0.24622322265625,-0.0690433056640625,0.8343442431640625
-0.2746711328125,-0.13105115966796876,0.8510563720703125
-0.35393625,-0.0710040283203125,0.98843990234375
-0.34056330078125,-0.04036773681640625,1.0835515771484374
-0.31308796875,0.00987578125,1.085271943359375
-0.29874244140625,-0.01928996826171875,1.0162115283203126
-0.24379177734375002,-0.05556333740234375,0.9356000830078125
-0.294608984375,-0.0018885546875000003,0.994829833984375
-0.2163164453125,-0.05605351806640625,0.943710380859375
-0.1866528125,-0.11364974609375,0.86653966796875
-0.252788125,-0.0028689160156250004,0.9798380712890625
-0.2955815625,-0.053847705078125,0.9552614111328125
-0.310170234375,-0.00654527099609375,0.9429730810546875
-0.32111173828125,-0.0141430712890625,0.9188879541015624
-0.290718671875,-0.02149578125,0.9395323486328125
-0.314060546875,0.10202974609375,1.024813359375
-0.29339326171875,-0.0004180126953125,0.9975332666015625
-0.20294349609375,-0.0513968017578125,0.9820499707031249
-0.35417939453125,0.04712951171875,1.0599579833984376
-0.314060546875,-0.02615249755859375,0.9665666748046875
-0.11443888671875,-0.04085791748046875,0.9700074072265625
-0.4059691796875,0.01551285888671875,1.1027213720703124
-0.3155194140625,0.11845079833984375,1.277952958984375
-0.35393625,-0.0006631030273437505,1.18505318359375
-0.4390368359375,-0.0602200537109375,1.0968229736328126
-0.33181009765625,-0.118551552734375,0.8026403515625
-0.2435486328125,-0.055073156738281254,0.662553388671875
-0.21169669921875,-0.139139140625,0.5939845068359375
-0.10617197265625,-0.1038461328125,0.8038691845703125
-0.31478998046875,0.0436982470703125,1.0339067236328126
-0.44754689453125,-0.03840701416015625,1.23420650390625
-0.33132380859375,0.0525214990234375,1.3531575390625
-0.4633512890625,0.089285048828125,1.2403506689453125
-0.37119951171875,-0.055808427734375,1.0181776611328126
-0.30603677734375,-0.124433720703125,0.9233117529296875
-0.2435486328125,-0.1602169091796875,0.8154202148437499
-0.29485212890625,-0.0964934228515625,0.729401904296875
-0.2260422265625,-0.05556333740234375,0.706791376953125
-0.203186640625,-0.0337502978515625,0.8112421826171875
-0.3048210546875,-0.00777072265625,0.9407611816406249
-0.2878009375,0.0255615625,1.0914161083984375
-0.37533296875,0.01845394287109375,1.23027423828125
-0.3111428125,0.015022678222656249,1.1005094726562499
-0.26324333984375,-0.04968116943359375,0.9311762841796875
-0.24622322265625,-0.00507472900390625,0.8928366943359375
-0.22336763671875,-0.0327699365234375,0.9095488232421876
-0.25084296875,-0.06267095703125,0.943710380859375
-0.32281375,0.0294830078125,1.028254091796875
-0.32208431640625,-0.022476142578125,0.932896650390625
-0.222638203125,-0.0259074072265625,0.84786140625
-0.20586123046875,-0.04306373046875,0.7581565966796875
-0.2644590625,0.0270321044921875,0.817877880859375
-0.20464550781250002,-0.07370002197265625,0.87047193359375
-0.0237459765625,-0.08619962890625,1.122628466796875
-0.299471875,-0.025662316894531252,1.370852734375
-0.45386865234375,-0.12369844970703125,1.149171259765625
-0.22336763671875,0.0074248779296875,0.9626344091796875
-0.25059982421875,0.03217900146484375,0.69745224609375
-0.36730919921875,-0.08595453857421875,0.661570322265625
-0.13048642578125,0.04443351806640625,0.7596311962890625
-0.27272597656249997,0.069677822265625,0.9685328076171875
-0.33035123046875,0.01183650390625,1.111323203125
-0.3485870703125,0.1157548046875,1.1683410546875
-0.29679728515625,0.15300853515625001,1.2496897998046874
-0.12829812499999999,0.03413972412109375,1.2290454052734374
-0.24573693359375,0.1966346142578125,1.22044357421875
-0.24768208984375,0.04492369873046875,1.159001923828125
-0.32086859375,-0.0332601171875,1.073475146484375
-0.323786328125,-0.04085791748046875,0.98647376953125
-0.2566784375,-0.01389798095703125,1.0240760595703124
-0.3670660546875,-0.09918941650390625,0.993355234375
-0.3446967578125,-0.0327699365234375,0.897506259765625
-0.15966376953125,0.04541387939453125,0.9508376123046876
-0.23795630859375,0.028257556152343752,1.1990618798828125
-0.49982296875,0.08168724853515624,1.27254609375
-0.298499296875,-0.1038461328125,1.032186357421875
-0.179844765625,0.03462990478515625,0.930930517578125
-0.36730919921875,-0.0259074072265625,0.7743771923828124
-0.17084841796875,-0.09330724853515625,0.8058353173828126
-0.22944625,0.00521906494140625,0.9144641552734375
-0.44268400390625,0.04639424072265625,1.015474228515625
-0.29971501953125,-0.01561361328125,0.8677685009765626
-0.244034921875,-0.06487677001953125,0.7330884033203124
-0.1637972265625,0.021640117187500002,0.7930554541015625
-0.4049966015625,-0.112669384765625,0.90193005859375
-0.2114535546875,-0.0803174609375,1.0555341845703126
-0.33424154296874997,0.02678701416015625,1.1587561572265626
-0.510521328125,0.0270321044921875,0.8972604931640625
-0.2800203125,-0.00311400634765625,0.7119524755859374
-0.02885201171875,-0.0006631030273437505,0.645841259765625
-0.1939471484375,0.0780108935546875,0.875387265625
-0.2902323828125,0.08266760986328126,1.17915478515625
-0.37581925781250003,0.1162449853515625,1.3027753857421875
-0.26178447265625,0.10031411376953125,1.188493916015625
-0.29144810546875,0.095167216796875,1.0179318945312499
-0.23503857421875,0.06355056396484375,0.93928658203125
-0.2566784375,0.077520712890625,1.0575003173828126
-0.40669861328125,0.0446786083984375,1.1779259521484375
-0.37071322265625,-0.10065995849609374,1.0501273193359375
-0.31430369140625003,-0.0004180126953125,0.8903790283203125
-0.2289599609375,-0.1366882373046875,0.77216529296875
-0.18738224609375,-0.1357078759765625,0.796250419921875
-0.25108611328125,-0.0141430712890625,0.9316678173828125
-0.3019033203125,-0.03105430419921875,1.0638902490234374
-0.41691068359375,-0.0151234326171875,1.08084814453125
-0.23552486328125,0.07874616455078125,1.0211268603515624
-0.21850474609375,-0.044534272460937496,0.8694888671875
-0.26324333984375,-0.04723026611328125,0.8783364648437499
-0.2124261328125,0.0182088525390625,0.9798380712890625
-0.24136033203125,-0.1239435400390625,0.9616513427734374
-0.4356328125,-0.016593974609375,1.07298361328125
-0.304334765625,-0.0837487255859375,1.0506188525390625
-0.30992708984375,-0.01683906494140625,0.9768888720703125
-0.27296912109375,-0.01585870361328125,0.9591936767578125
-0.22701480468750002,0.04296297607421875,0.9980247998046875
-0.2566784375,-0.050661530761718754,1.00515203125
-0.2834243359375,0.020659755859375,1.0855177099609374
-0.3096839453125,-0.0180645166015625,1.016948828125
-0.15334201171875,0.00423870361328125,0.926015185546875
-0.28123603515625,0.0015427099609375003,0.93142205078125
-0.2707808203125,-0.010711806640625,0.9582106103515625
-0.26470220703125,0.03953171142578125,1.0235845263671874
-0.3408064453125,-0.01879978759765625,1.037101689453125
-0.28707150390625,-0.0308092138671875,0.9901602685546875
-0.27151025390625,-0.07222947998046875,0.894557060546875
-0.25303126953125,0.05619785400390625,0.9992536328125
-0.26154132812499997,-0.02321141357421875,1.0368559228515626
-0.33570041015625,-0.0082609033203125,1.18701931640625
-0.34153587890625,0.08854977783203125,1.1887396826171874
-0.31770771484375,-0.0001729223632812504,1.0825685107421874
-0.28391062499999997,0.08266760986328126,0.9837703369140625
-0.28804408203125,-0.0092412646484375,0.8613785693359375
-0.22944625,-0.04772044677734375,0.847369873046875
-0.284883203125,-0.05850442138671875,0.7994453857421875
-0.31284482421875,-0.0612004150390625,0.791335087890625
-0.30166017578125,0.0182088525390625,0.7979707861328125
-0.3515048046875,0.0289928271484375,0.8812856640625
-0.29582470703125,-0.00311400634765625,0.942727314453125
-0.31527626953125,0.10913736572265625,1.0444746875
-0.3033621875,0.0486000537109375,1.090187275390625
-0.29096181640625,-0.010221625976562499,1.0137538623046876
-0.28561263671875,0.021640117187500002,0.957473310546875
-0.2921775390625,-0.012672529296875,0.9621428759765625
-0.2503566796875,-0.00360418701171875,0.8854636962890625
-0.24768208984375,-0.042083369140625,0.875387265625
-0.23698373046875,-0.0915916162109375,0.950591845703125
-0.21583015625000002,0.0373258984375,1.1115689697265625
-0.28974609375,-0.036201201171875,1.1032129052734374
-0.23455228515625,0.03855135009765625,1.02088109375
-0.302389609375,0.0397768017578125,0.9429730810546875
-0.2464663671875,-0.09845414550781251,0.8989808593749999
-0.25205869140625,0.019434304199218752,0.89406552734375
-0.32305689453124997,0.01453249755859375,0.9206083203125
-0.24038775390625,-0.03105430419921875,0.9174133544921875
-0.31041337890625,-0.0200252392578125,0.852285205078125
-0.28950294921874997,-0.023456503906250002,0.8694888671875
-0.17911533203125,-0.03840701416015625,0.80853875
-0.2659179296875,-0.05164189208984375,0.8427003076171875
-0.27248283203125,-0.012672529296875,1.008592763671875
-0.3223274609375,0.02727719482421875,1.0594664501953126
-0.35612455078125,0.02580665283203125,1.027271025390625
-0.3038484765625,0.0927163134765625,1.0395593554687501
-0.310170234375,0.02482629150390625,1.01006736328125
-0.36244630859375,0.0809519775390625,1.0142453955078126
-0.209022109375,0.01992448486328125,0.941744248046875
-0.3145468359375,0.04884514404296875,0.922574453125
-0.38821962890625,0.00178780029296875,0.98450763671875
-0.27929087890625,-0.03938737548828125,0.946659580078125
-0.23309341796875,-0.0562986083984375,0.8992266259765624
-0.3184371484375,-0.01978014892578125,0.990897568359375
-0.30555048828125,-0.01046671630859375,1.026287958984375
-0.26640421875,-0.0259074072265625,1.0189149609375
-0.23552486328125,-0.051886982421875,1.03366095703125
-0.26372962890625,0.0221302978515625,0.9559987109375
-0.2513292578125,-0.02419177490234375,0.9685328076171875
-0.2416034765625,-0.03154448486328125,1.035135556640625
-0.3806821484375,0.00987578125,1.0471781201171875
-0.23892888671875,-0.01095689697265625,1.0147369287109376
-0.2746711328125,-0.0180645166015625,0.904387724609375
-0.30117388671875,-0.01781942626953125,0.885709462890625
-0.2318776953125,-0.03644629150390625,0.9124980224609375
-0.247925234375,-0.0141430712890625,0.90389619140625
-0.3656071875,-0.0033590966796874996,1.0117877294921875
-0.32694720703125,-0.0513968017578125,1.0464408203125
-0.32086859375,0.04100225341796875,1.0329236572265625
-0.2396583203125,-0.0876701708984375,0.903404658203125
-0.32451576171875,0.02090484619140625,0.9434646142578125
-0.294608984375,-0.0151234326171875,0.92552365234375
-0.28658521484375,-0.00605509033203125,0.8938197607421875
-0.30944080078125,0.014777587890624999,0.9400238818359374
-0.2668905078125,-0.01978014892578125,0.924049052734375
-0.28974609375,-0.03840701416015625,0.891607861328125
-0.25886673828125,0.00766996826171875,0.9528037451171875
-0.30895451171875,-0.03742665283203125,0.9808211376953125
-0.31916658203125,-0.0072805419921875,1.08084814453125
-0.30846822265625,-0.0190448779296875,1.0759328125
-0.304334765625,0.03806116943359375,1.0230929931640624
-0.2668905078125,0.04982550537109375,1.004660498046875
-0.28196546875,-0.03497574951171875,1.009084296875
-0.28561263671875,0.03168882080078125,1.0506188525390625
-0.24622322265625,-0.01830960693359375,1.022355693359375
-0.2464663671875,0.0436982470703125,1.024813359375
-0.24914095703125,-0.076396015625,0.977134638671875
-0.2639727734375,-0.0016434643554687498,1.0058893310546875
-0.25205869140625,0.03462990478515625,1.0078554638671875
-0.29436583984375,-0.08693489990234375,0.8952943603515625
-0.33035123046875,-0.024436865234375,0.9616513427734374
-0.2717533984375,0.03364954345703125,1.0407881884765624
-0.362689453125,0.024581201171875,1.039067822265625
-0.31697828125,-0.04772044677734375,1.037101689453125
-0.32159802734375,0.01992448486328125,0.97369390625
-0.25789416015625,-0.08056255126953125,0.9321593505859375
-0.22482650390625,-0.118551552734375,0.9223286865234375
-0.32937865234375,-0.0239466845703125,1.01006736328125
-0.27540056640625,-0.120512275390625,1.03366095703125
-0.33181009765625,-0.07222947998046875,0.90782845703125
-0.156502890625,-0.03301502685546875,0.8485987060546875
-0.34931650390625,-0.13325697265625,0.890624794921875
-0.15091056640625,-0.09796396484375,0.948625712890625
-0.267376796875,0.049090234375,1.0284998583984375
-0.39940427734375,-0.05409279541015625,1.097068740234375
-0.29047552734375,0.08560869384765625,0.8869382958984375
-0.28512634765625,0.05497240234375,0.845403740234375
-0.24962724609375,0.030708459472656248,0.87637033203125
-0.28707150390625,0.0231106591796875,0.93535431640625
-0.25108611328125,0.0721287255859375,1.0589749169921876
-0.3466419140625,-0.0999246875,1.0692971142578125
-0.4001337109375,0.04933532470703125,1.1233657666015624
-0.27418484375,-0.00213364501953125,1.0093300634765625
-0.30263275390625,0.0505607763671875,0.9284728515625
-0.2503566796875,0.04149243408203125,0.86653966796875
-0.25205869140625,-0.075415654296875,0.90586232421875
-0.22871681640625,-0.0788469189453125,1.027271025390625
-0.4088869140625,-0.0935523388671875,1.0658563818359374
-0.20026890625,-0.008996174316406251,1.1445016943359374
-0.32597462890625,-0.03448556884765625,1.00810123046875
-0.27029453125,-0.13595296630859374,0.9604225097656249
-0.2756437109375,-0.00703545166015625,1.01203349609375
-0.2503566796875,-0.03546593017578125,1.0216183935546874
-0.29728357421875,-0.112669384765625,1.057746083984375
-0.32402947265625,-0.067572763671875,1.0643817822265624
-0.3189234375,0.0358553564453125,0.944693447265625
-0.17084841796875,-0.1288453466796875,0.7768348583984375
-0.1788721875,-0.060710234375,0.7837163232421875
-0.27588685546875,-0.055808427734375,0.800182685546875
-0.2591098828125,-0.11046357177734376,0.9442019140625
-0.31333111328125,-0.0332601171875,1.01006736328125
-0.28074974609375003,0.00227798095703125,1.030220224609375
-0.2805066015625,0.07923634521484375,1.0294829248046875
-0.19662173828125,0.0731090869140625,1.0442289208984374
-0.3573402734375,0.15815543212890626,1.1253318994140624
-0.341292734375,0.1035002880859375,1.13000146484375
-0.28269490234375,0.0603643896484375,1.109848603515625
-0.2746711328125,0.09982393310546875,1.1386032958984376
-0.3660934765625,0.04051207275390625,0.9749227392578125
-0.2484115234375,0.0182088525390625,0.8992266259765624
-0.2435486328125,0.07237381591796875,0.876861865234375
-0.333512109375,-0.013407800292968751,0.9085657568359375
-0.27345541015625,-0.04968116943359375,1.0904330419921875
-0.30798193359375,-0.032279755859375,1.0975602734375
-0.312115390625,-0.00850599365234375,1.0309575244140625
-0.28026345703125,-0.02321141357421875,0.9208540869140625
-0.27929087890625,-0.06242586669921875,0.8785822314453124
-0.30311904296875003,0.00865032958984375,0.871455
-0.284883203125,0.00816014892578125,0.9193794873046874
-0.28464005859375,-0.06438658935546875,0.9179048876953125
-0.23941517578125,-0.04919098876953125,0.94911724609375
-0.247925234375,-0.09379742919921875,1.0543053515625
-0.347128203125,-0.026397587890625,1.0968229736328126
-0.2591098828125,-0.060710234375,1.071509013671875
-0.263486484375,-0.06683749267578125,0.9820499707031249
-0.2775888671875,-0.02615249755859375,0.9326508837890625
-0.2644590625,-0.07370002197265625,0.89799779296875
-0.2649453515625,-0.0719843896484375,0.87243806640625
-0.3203823046875,-0.01193725830078125,0.8569547705078124
-0.23892888671875,-0.010711806640625,0.8618701025390625
-0.2824517578125,-0.09869923583984375,0.797233486328125
-0.28512634765625,-0.030319033203124998,0.906845390625
-0.2678630859375,-0.00213364501953125,0.9759058056640625
-0.3476144921875,0.02433611083984375,0.994829833984375
-0.25692158203125,-0.0033590966796874996,1.0024485986328124
-0.33959072265625,0.0843832421875,1.0267794921875
-0.25084296875,0.03536517578125,1.0078554638671875
-0.304334765625,0.0093856005859375,1.05332228515625
-0.24695265625,0.026051743164062502,1.0818312109375
-0.3660934765625,-0.032279755859375,1.032186357421875
-0.26956509765625,0.0069346972656249995,0.9847534033203125
-0.29971501953125,-0.02468195556640625,0.8898874951171875
-0.3072525,-0.0999246875,0.8879213623046875
-0.28391062499999997,0.00325834228515625,0.9601767431640625
-0.29825615234375,-0.0778665576171875,0.9363373828125
-0.26154132812499997,-0.0425735498046875,0.945676513671875
-0.30311904296875003,0.06404074462890624,0.9631259423828125
-0.24306234375,-0.07370002197265625,0.9778719384765625
-0.284883203125,0.0172284912109375,1.011541962890625
-0.27880458984375,-0.013652890625,1.076424345703125
-0.331566953125,-0.0661022216796875,1.04349162109375
-0.290718671875,-0.05115171142578125,0.962388642578125
-0.30166017578125,-0.046740085449218746,0.9385492822265625
-0.20002576171875,-0.0749254736328125,0.8505648388671875
-0.2328502734375,-0.0092412646484375,0.8365561425781249
-0.27029453125,-0.09918941650390625,0.8984893261718749
-0.28269490234375,-0.01561361328125,1.031203291015625
-0.3427516015625,-0.06585713134765625,1.0049062646484375
-0.3111428125,-0.040122646484374996,0.9953213671875
-0.268349375,-0.00605509033203125,0.97467697265625
-0.34202216796875,-0.0651218603515625,0.9714820068359376
-0.29436583984375,-0.09281706787109376,0.984999169921875
-0.23552486328125,0.02360083984375,0.9965502001953125
-0.327676640625,-0.03693647216796875,0.98843990234375
-0.29193439453125003,-0.07909200927734375,0.9385492822265625
-0.3072525,0.0348749951171875,0.9385492822265625
-0.26810623046875,-0.0055649096679687505,0.9520664453125
-0.3116291015625,-0.0200252392578125,0.93732044921875
-0.3223274609375,-0.0371815625,0.9655836083984375
-0.27296912109375,-0.01830960693359375,1.0103131298828125
-0.35515197265625,-0.01389798095703125,1.031203291015625
-0.26664736328125,-0.02321141357421875,1.027271025390625
-0.28391062499999997,-0.04134809814453125,0.914218388671875
-0.2800203125,0.0250713818359375,0.941744248046875
-0.255705859375,-0.07958218994140626,0.9614055761718749
-0.2386857421875,-0.0700236669921875,0.9464138134765625
-0.2931501171875,-0.0170841552734375,0.9960586669921875
-0.29339326171875,-0.02125069091796875,1.020389560546875
-0.2581373046875,-0.02958376220703125,0.9498545458984375
-0.2931501171875,-0.03522083984375,1.009575830078125
-0.23309341796875,-0.01634888427734375,1.0737209130859375
-0.28585578125,-0.0229663232421875,0.9945840673828125
-0.30214646484375,-0.03987755615234375,1.039067822265625
-0.2644590625,-0.010221625976562499,1.0348897900390626
-0.34153587890625,-0.11634573974609375,0.9449392138671875
-0.2853694921875,-0.042083369140625,1.0167030615234376
-0.27272597656249997,-0.0739451123046875,0.9100403564453124
-0.26761994140625,-0.06585713134765625,0.8741584326171875
-0.24768208984375,-0.10213050048828125,0.925032119140625
-0.36779548828124997,-0.04379900146484375,0.9523122119140625
-0.216802734375,0.0250713818359375,1.0019570654296874
-0.2912049609375,-0.08840544189453126,0.943710380859375
-0.286828359375,-0.0190448779296875,0.983033037109375
-0.29776986328125,-0.0876701708984375,0.9262609521484375
-0.25303126953125,-0.0317895751953125,0.9665666748046875
-0.341292734375,-0.0366913818359375,0.949608779296875
-0.2921775390625,-0.0719843896484375,1.0221099267578124
-0.3028758984375,-0.03546593017578125,0.98254150390625
-0.22288134765625,-0.05752406005859375,0.9719735400390626
-0.323786328125,-0.02468195556640625,0.926015185546875
-0.28123603515625,0.04100225341796875,0.9604225097656249
-0.2668905078125,-0.03987755615234375,0.9822957373046874
-0.32305689453124997,-0.0097314453125,1.0417712548828124
-0.3330258203125,-0.0602200537109375,1.055779951171875
-0.25449013671875,-0.0023787353515625003,1.0503730859375
-0.29047552734375,-0.032279755859375,1.0049062646484375
-0.31478998046875,-0.07026875732421875,0.95894791015625
-0.28707150390625,0.0005623486328125002,1.0503730859375
-0.40669861328125,-0.0808076416015625,0.94715111328125
-0.27248283203125,-0.035711020507812496,0.9827872705078124
-0.27442798828125,-0.0161037939453125,0.9407611816406249
-0.30068759765624997,-0.0778665576171875,0.9375662158203125
-0.317950859375,-0.059729873046875,1.03562708984375
-0.31430369140625003,0.05031568603515625,1.0511103857421875
-0.26251390625,-0.07419020263671874,0.908319990234375
-0.26056875,-0.03938737548828125,0.91569298828125
-0.31235853515625,-0.0006631030273437505,1.0063808642578125
-0.21850474609375,-0.09281706787109376,0.9980247998046875
-0.335457265625,0.00227798095703125,1.0582376171875
-0.3291355078125,-0.05409279541015625,1.0722463134765625
-0.2834243359375,-0.0827683642578125,1.0019570654296874
-0.27418484375,-0.0366913818359375,0.916184521484375
-0.22190876953125,-0.08350363525390625,0.892590927734375
-0.2581373046875,-0.0308092138671875,0.925032119140625
-0.3184371484375,-0.0063001806640625,0.9950756005859375
-0.30555048828125,-0.11193411376953125,0.9454307470703125
-0.26810623046875,-0.0006631030273437505,0.9464138134765625
-0.2805066015625,-0.0788469189453125,0.8982435595703124
-0.27272597656249997,-0.0543378857421875,0.94518498046875
-0.18592337890625,-0.03252484619140625,0.9604225097656249
-0.31697828125,-0.01634888427734375,0.9709904736328125
-0.23114826171875,-0.03595611083984375,1.02186416015625
-0.34007701171875,-0.03546593017578125,0.987948369140625
-0.24379177734375002,-0.02174087158203125,1.0240760595703124
-0.33959072265625,-0.0175743359375,1.0162115283203126
-0.29971501953125,-0.0055649096679687505,1.0597122167968749
-0.3155194140625,-0.04870080810546875,0.99630443359375
-0.263486484375,-0.00777072265625,1.00416896484375
-0.28464005859375,-0.01781942626953125,0.925032119140625
-0.2970404296875,-0.05262225341796875,0.9614055761718749
-0.30944080078125,-0.03105430419921875,0.9975332666015625
-0.282938046875,-0.02223105224609375,0.961897109375
-0.271267109375,-0.077376376953125,0.9206083203125
-0.316005703125,0.0142874072265625,0.9523122119140625
-0.1968648828125,-0.06659240234375,1.024321826171875
-0.39818855468750003,-0.02076051025390625,1.05135615234375
-0.2999581640625,-0.03252484619140625,1.087238076171875
-0.282938046875,-0.012672529296875,1.0339067236328126
-0.247925234375,-0.10850284912109374,0.957473310546875
-0.3184371484375,-0.0582593310546875,0.9277355517578125
-0.21510072265625,-0.0151234326171875,0.966320908203125
-0.38481560546875,-0.079337099609375,0.9311762841796875
-0.3233000390625,-0.0337502978515625,0.9680412744140625
-0.2464663671875,-0.014633251953124999,0.9621428759765625
-0.240144609375,-0.00997653564453125,0.9186421875
-0.30798193359375,-0.12761989501953125,0.9321593505859375
-0.3213548828125,0.020659755859375,0.9835245703125
-0.2065906640625,0.0142874072265625,0.9754142724609375
-0.31916658203125,-0.10972830078125,0.8166490478515624
-0.190543125,0.04492369873046875,0.90586232421875
-0.27515742187500003,-0.051886982421875,0.9734481396484375
-0.286828359375,-0.03889719482421875,1.036118623046875
-0.30409162109375,-0.0288484912109375,1.075441279296875
-0.3553951171875,-0.014633251953124999,1.0835515771484374
-0.36390517578125,-0.06659240234375,0.93535431640625
-0.26567478515625,-0.02615249755859375,0.885709462890625
-0.29971501953125,0.00766996826171875,0.8903790283203125
-0.24865466796875,-0.093062158203125,0.94321884765625
-0.28804408203125,-0.071494208984375,1.0078554638671875
-0.2955815625,-0.0006631030273437505,0.9872110693359375
-0.29339326171875,-0.0371815625,0.99237216796875
-0.1949197265625,-0.073454931640625,0.9434646142578125
-0.26956509765625,0.015022678222656249,1.0516019189453125
-0.31746457031249997,-0.0396324658203125,1.051847685546875
-0.3680386328125,-0.02223105224609375,1.016948828125
-0.30117388671875,-0.01389798095703125,0.9827872705078124
-0.3344846875,-0.013162709960937501,0.9365831494140625
-0.27880458984375,-0.07419020263671874,0.965337841796875
-0.263486484375,-0.05311243408203125,0.9695158740234375
-0.255705859375,-0.081297822265625,0.956490244140625
-0.31989601562500003,-0.07713128662109375,0.96877857421875
-0.28269490234375,-0.03448556884765625,0.9724650732421874
-0.26567478515625,-0.07762146728515625,0.9326508837890625
-0.2571647265625,-0.06732767333984375,0.9218371533203125
-0.32937865234375,-0.05164189208984375,0.9872110693359375
-0.2411171875,-0.05899460205078125,1.035135556640625
-0.25059982421875,-0.07370002197265625,0.9488714794921875
-0.32500205078125,0.019679394531249998,0.9815584374999999
-0.27053767578125,-0.02713285888671875,1.060695283203125
-0.26518849609375,-0.0141430712890625,1.01989802734375
-0.36439146484375,-0.0033590966796874996,1.0221099267578124
-0.3252451953125,-0.0327699365234375,0.963371708984375
-0.17279357421875,-0.0063001806640625,0.909303056640625
-0.29387955078125,-0.05899460205078125,0.9223286865234375
-0.302389609375,-0.1116890234375,1.058729150390625
-0.22774423828125,-0.0925719775390625,1.08379734375
-0.31673513671875,-0.106787216796875,1.0280083251953125
-0.30360533203125,-0.12320826904296875,1.0206353271484374
-0.28318119140625,-0.028358310546875,1.02579642578125
-0.33642984375,-0.10360104248046875,0.9397781152343749
-0.24938410156250002,-0.09036616455078125,0.93338818359375
-0.2454937890625,-0.04919098876953125,0.9139726220703125
-0.312115390625,-0.06781785400390625,0.9601767431640625
-0.3485870703125,-0.00703545166015625,0.97664310546875
-0.19613544921875,0.014777587890624999,0.9591936767578125
-0.35077537109375,-0.12614935302734376,0.931913583984375
-0.333512109375,-0.04036773681640625,1.0137538623046876
-0.252788125,-0.03914228515625,0.938795048828125
-0.294608984375,-0.0906112548828125,0.9031588916015625
-0.33959072265625,-0.052867343750000004,0.9552614111328125
-0.24379177734375002,-0.00458454833984375,0.9803296044921875
-0.31138595703125,-0.01438816162109375,0.9709904736328125
-0.34250845703125,-0.0288484912109375,0.887675595703125
-0.2416034765625,0.008895419921875,0.941744248046875
-0.30895451171875,-0.0651218603515625,1.01989802734375
-0.2566784375,-0.02860340087890625,1.0425085546875
-0.29874244140625,0.00816014892578125,0.9734481396484375
-0.24087404296875,-0.00777072265625,1.02579642578125
-0.33861814453125,-0.05090662109375,1.0592206835937499
-0.32889236328125,-0.0915916162109375,1.0663479150390625
-0.21510072265625,-0.057278969726562504,1.0604495166015624
-0.36366203125,-0.09428760986328125,0.979100771484375
-0.24670951171875,-0.07419020263671874,0.9599309765625
-0.24184662109375,-0.0724745703125,0.8608870361328125
-0.33959072265625,-0.0759058349609375,0.892590927734375
-0.2328502734375,-0.12860025634765626,0.8712092333984375
-0.29679728515625,-0.060710234375,0.867031201171875
-0.25400384765625,-0.107767578125,0.9405154150390624
-0.31089966796875,-0.10850284912109374,0.957473310546875
-0.22385392578125,-0.07664110595703125,0.9994993994140625
-0.33035123046875,-0.18202994873046874,0.9749227392578125
-0.35904228515625003,-0.013162709960937501,1.0776531787109376
-0.27005138671875,-0.069533486328125,1.0457035205078125
-0.29242068359375,-0.057769150390625,0.904387724609375
-0.2736985546875,0.04884514404296875,0.9454307470703125
-0.27685943359375,-0.10801266845703125,1.0309575244140625
-0.384086171875,-0.0960032421875,1.015474228515625
-0.26640421875,0.016738310546875,0.9985163330078125
-0.18835482421875,-0.05556333740234375,0.860149736328125
-0.44560173828125,-0.0945327001953125,0.8279543115234375
-0.2406308984375,0.0515411376953125,1.0162115283203126
-0.34639876953125,-0.09796396484375,1.0289913916015625
-0.3797095703125,0.112813720703125,1.0668394482421875
-0.26032560546875,0.03315936279296875,1.0031858984375
-0.26056875,0.0299731884765625,0.954032578125
-0.26178447265625,-0.01291761962890625,1.0103131298828125
-0.205131796875,-0.1430605859375,1.0385762890625
-0.32208431640625,0.00619942626953125,1.048898486328125
-0.33083751953125,-0.09967959716796874,0.977626171875
-0.3787369921875,-0.092081796875,0.8948028271484375
-0.2279873828125,-0.04477936279296875,0.8476156396484374
-0.2299325390625,-0.0788469189453125,0.9218371533203125
-0.2902323828125,-0.079337099609375,1.04545775390625
-0.32937865234375,-0.0906112548828125,1.087729609375
-0.2843969140625,-0.1611972705078125,1.04349162109375
-0.23819945312500002,-0.0803174609375,0.9208540869140625
-0.22871681640625,-0.0739451123046875,0.9311762841796875
-0.28391062499999997,-0.0621807763671875,0.98647376953125
-0.34421046875,-0.093062158203125,0.9754142724609375
-0.34421046875,-0.0881603515625,1.0206353271484374
-0.3067662109375,-0.0180645166015625,1.0427543212890624
-0.22239505859375,-0.0582593310546875,1.0179318945312499
-0.34931650390625,0.04296297607421875,1.1093570703125
-0.3524773828125,-0.05115171142578125,0.975168505859375
-0.247925234375,0.009140510253906251,0.8928366943359375
-0.2318776953125,-0.044044091796875,0.8628531689453125
-0.19710802734375,-0.0964934228515625,0.9400238818359374
-0.191515703125,-0.23889090576171876,0.9940925341796875
-0.38432931640625,-0.07419020263671874,1.1282810986328125
-0.3116291015625,-0.18791211669921876,0.9994993994140625
-0.31576255859375,-0.17467723876953126,0.8574463037109374
-0.222638203125,-0.10556176513671875,0.855234404296875
-0.26859251953125,-0.0592396923828125,0.9272440185546875
-0.3242726171875,-0.10188541015625,0.891607861328125
-0.32281375,-0.04281864013671875,0.86850580078125
-0.33715927734375,-0.07909200927734375,0.8254966455078125
-0.214857578125,-0.10654212646484375,0.859658203125
-0.24670951171875,-0.0798272802734375,0.9557529443359375
-0.2892598046875,-0.095022880859375,1.009084296875
-0.2882872265625,-0.0945327001953125,0.983033037109375
-0.2989855859375,-0.06830803466796875,0.9007012255859375
-0.25400384765625,-0.0180645166015625,0.8820229638671875
-0.29290697265625,-0.07124911865234375,0.916184521484375
-0.27807515625,0.009140510253906251,0.9990078662109375
-0.25473328125,-0.0494360791015625,0.9822957373046874
-0.3476144921875,-0.008996174316406251,1.028254091796875
-0.23139140625,-0.01978014892578125,1.0464408203125
-0.33472783203125,-0.03105430419921875,1.0174403613281249
-0.265431640625,-0.06732767333984375,1.0825685107421874
-0.35417939453125,-0.01291761962890625,1.069542880859375
-0.3223274609375,-0.0808076416015625,1.0201437939453124
-0.26567478515625,-0.06879821533203125,0.9075826904296875
-0.28415376953125,-0.03448556884765625,0.84884447265625
-0.3057936328125,-0.09796396484375,0.858183603515625
-0.230418828125,-0.07835673828125,0.9144641552734375
-0.2736985546875,-0.1229631787109375,0.90389619140625
-0.32086859375,-0.076396015625,0.909303056640625
-0.30141703125,-0.044044091796875,0.9134810888671875
-0.3344846875,-0.06659240234375,0.9196252539062499
-0.29096181640625,-0.03546593017578125,0.9709904736328125
-0.39940427734375,-0.04772044677734375,0.977626171875
-0.2878009375,-0.04330882080078125,1.0565172509765626
-0.3267040625,-0.02125069091796875,0.98647376953125
-0.34299474609375,-0.09771887451171875,0.8702261669921875
-0.23066197265625,-0.0964934228515625,0.8559717041015625
-0.2882872265625,-0.1013952294921875,0.8380307421875
-0.20926525390625,-0.1249239013671875,0.8844806298828125
-0.26859251953125,-0.1553151025390625,0.8825144970703125
-0.2941226953125,-0.09404251953125001,0.9970417333984375
-0.300444453125,-0.08105273193359375,1.0398051220703124
-0.28998923828125,-0.00997653564453125,1.0520934521484375
-0.33472783203125,-0.02272123291015625,1.0653648486328124
-0.3242726171875,-0.048945898437499996,1.03562708984375
-0.30652306640625,-0.0376717431640625,1.0184234277343749
-0.3466419140625,-0.0229663232421875,0.9795923046875
-0.352963671875,-0.04919098876953125,0.96877857421875
-0.32257060546875,-0.03301502685546875,0.941744248046875
-0.2722396875,0.0059543359375,0.9518206787109375
-0.24573693359375,-0.09404251953125001,0.9385492822265625
-0.277102578125,-0.0009081933593750001,0.992863701171875
-0.28561263671875,-0.03987755615234375,0.98843990234375
-0.31041337890625,-0.02615249755859375,0.9729566064453125
-0.3028758984375,0.0142874072265625,0.9650920751953125
-0.35101851562499997,-0.028113220214843748,0.9940925341796875
-0.30506419921875,-0.025662316894531252,1.024813359375
-0.31868029296875,0.0231106591796875,0.9709904736328125
-0.26227076171875,-0.083258544921875,1.0368559228515626
-0.31746457031249997,0.016738310546875,1.083305810546875
-0.32889236328125,-0.0700236669921875,1.0307117578125
-0.34785763671875003,-0.12761989501953125,1.0307117578125
-0.2980130078125,-0.0001729223632812504,1.0516019189453125
-0.3057936328125,-0.18693175537109374,0.9097945898437501
-0.20780638671875,-0.1308060693359375,0.893573994140625
-0.20245720703125,-0.037916833496093746,0.995812900390625
-0.2834243359375,-0.1259042626953125,1.0565172509765626
-0.28974609375,-0.05752406005859375,1.1376202294921876
-0.321841171875,-0.0425735498046875,1.04152548828125
-0.27272597656249997,-0.15850127685546875,0.90389619140625
-0.2143712890625,-0.00850599365234375,0.8930824609375
-0.2561921484375,-0.1200220947265625,0.8830060302734375
-0.3223274609375,-0.10703230712890625,0.94125271484375
-0.32451576171875,-0.049926259765625,1.06118681640625
-0.3505322265625,-0.07443529296875,1.0759328125
-0.30214646484375,-0.02370159423828125,1.0324321240234375
-0.2299325390625,-0.0646316796875,0.9872110693359375
-0.25983931640625,-0.06267095703125,0.953541044921875
-0.2698082421875,-0.08889562255859375,0.954524111328125
-0.2668905078125,-0.00997653564453125,0.949608779296875
-0.2367405859375,-0.0018885546875000003,0.9365831494140625
-0.3038484765625,-0.03742665283203125,1.0228472265625
-0.32986494140625,-0.07051384765625,0.9901602685546875
-0.2795340234375,-0.04919098876953125,1.0383305224609374
-0.31819400390625,-0.048945898437499996,0.991880634765625
-0.28464005859375,-0.12958061767578125,0.93338818359375
-0.27005138671875,-0.06144550537109375,0.9198710205078124
-0.32986494140625,-0.051886982421875,0.9397781152343749
-0.292663828125,-0.10065995849609374,1.015474228515625
-0.30944080078125,-0.05409279541015625,0.96288017578125
-0.39478453125,-0.05850442138671875,0.8481071728515625
-0.16938955078125,0.013552136230468751,0.8987350927734374
-0.2722396875,0.0137972265625,0.86064126953125
-0.27929087890625,-0.03399538818359375,0.888658662109375
-0.15188314453125001,-0.047965537109375,0.934862783203125
-0.34810078125,-0.09918941650390625,0.9196252539062499
-0.3369161328125,-0.076396015625,1.0422627880859374
-0.2600824609375,-0.10409122314453124,0.9714820068359376
-0.38238416015625,-0.18031431640625,0.9822957373046874
-0.32402947265625,0.0407571630859375,1.111814736328125
-0.26275705078125,-0.0778665576171875,0.995812900390625
-0.331566953125,-0.07860182861328124,0.859166669921875
-0.2338228515625,0.077520712890625,0.841471474609375
-0.26470220703125,-0.0768861962890625,0.8365561425781249
-0.24670951171875,-0.06487677001953125,0.8702261669921875
-0.25205869140625,-0.045024453125,0.9080742236328125
-0.30749564453125,-0.0925719775390625,0.938795048828125
-0.24306234375,-0.06977857666015624,0.94321884765625
-0.27442798828125,-0.0523771630859375,0.976151572265625
-0.3339983984375,-0.06144550537109375,1.040050888671875
-0.288773515625,-0.0038492773437499997,1.120662333984375
-0.376305546875,-0.07222947998046875,1.02972869140625
-0.354908828125,-0.06389640869140625,0.9798380712890625
-0.284883203125,-0.04281864013671875,0.93535431640625
-0.3330258203125,-0.06487677001953125,0.9097945898437501
-0.27272597656249997,-0.0464949951171875,0.9567360107421875
-0.2955815625,-0.04698517578125,0.9410069482421874
-0.25205869140625,-0.0332601171875,0.9400238818359374
-0.30627992187499997,-0.0435539111328125,0.8741584326171875
-0.21023783203125002,-0.03987755615234375,0.9326508837890625
-0.26956509765625,-0.06193568603515625,0.9798380712890625
-0.3690112109375,-0.12958061767578125,0.9503460791015625
-0.296554140625,-0.03522083984375,1.0031858984375
-0.36487775390625,-0.0254172265625,0.88620099609375
-0.3301080859375,0.0280124658203125,0.9940925341796875
-0.2542469921875,-0.02713285888671875,0.9827872705078124
-0.43247193359375,-0.0504164404296875,1.02776255859375
-0.29776986328125,-0.02076051025390625,1.0014655322265624
-0.22774423828125,-0.0016434643554687498,0.8667854345703125
-0.2085358203125,-0.068553125,0.8358188427734374
-0.1910294140625,-0.0803174609375,0.8812856640625
-0.25594900390624997,-0.12075736572265625,1.0560257177734376
-0.335457265625,-0.0837487255859375,1.17718865234375
-0.37654869140625,-0.10262068115234375,1.1961126806640625
-0.27005138671875,-0.01953505859375,1.08871267578125
-0.3135742578125,-0.06659240234375,0.9614055761718749
-0.31527626953125,-0.010711806640625,0.9768888720703125
-0.31089966796875,-0.0455146337890625,0.9872110693359375
-0.37654869140625,-0.0582593310546875,0.8970147265625
-0.30798193359375,-0.023456503906250002,0.9009469921875
-0.26372962890625,-0.0739451123046875,0.875878798828125
-0.2357680078125,-0.089140712890625,0.897506259765625
-0.31041337890625,-0.0768861962890625,1.056271484375
-0.32791978515625,-0.13105115966796876,1.0820769775390624
-0.3437241796875,-0.048455717773437504,1.0343982568359376
-0.28585578125,-0.083258544921875,0.95894791015625
-0.31746457031249997,-0.10703230712890625,0.9144641552734375
-0.24914095703125,-0.0411030078125,0.9626344091796875
-0.3738741015625,-0.06977857666015624,0.989914501953125
-0.2746711328125,-0.024436865234375,1.0184234277343749
-0.34299474609375,-0.042328459472656246,0.9783634716796875
-0.30749564453125,-0.0768861962890625,1.0206353271484374
-0.314060546875,-0.018554697265625,1.026287958984375
-0.28464005859375,-0.061690595703125004,0.9763973388671875
-0.2756437109375,-0.04281864013671875,0.9852449365234375
-0.32889236328125,-0.01291761962890625,0.9292101513671875
-0.20002576171875,-0.04183827880859375,0.931913583984375
-0.22725794921875,-0.0651218603515625,0.9100403564453124
-0.2853694921875,-0.0411030078125,1.0117877294921875
-0.2639727734375,-0.04330882080078125,1.1228742333984374
-0.26810623046875,-0.01389798095703125,1.0599579833984376
-0.31138595703125,-0.0249270458984375,1.07494974609375
-0.352963671875,-0.0700236669921875,1.0425085546875
-0.3072525,-0.01732924560546875,1.012525029296875
-0.30360533203125,-0.075415654296875,0.92945591796875
-0.28512634765625,-0.10164031982421876,0.844420673828125
-0.23819945312500002,-0.06438658935546875,0.8087845166015625
-0.185680234375,-0.0724745703125,0.8525309716796875
-0.321841171875,-0.068553125,0.9685328076171875
-0.2878009375,-0.01095689697265625,1.1115689697265625
-0.34834392578125,-0.06267095703125,1.071509013671875
-0.32500205078125,-0.02419177490234375,1.0137538623046876
-0.298499296875,0.01894412353515625,0.948625712890625
-0.3033621875,-0.0621807763671875,0.85867513671875
-0.32281375,-0.012672529296875,0.9363373828125
-0.25254498046875,-0.01095689697265625,1.028254091796875
-0.41399294921875,-0.08007237060546875,0.98843990234375
-0.27272597656249997,0.042227705078125,1.006626630859375
-0.28804408203125,-0.04477936279296875,0.90782845703125
-0.33715927734375,-0.008996174316406251,0.900455458984375
-0.23357970703125,0.02237538818359375,0.9695158740234375
-0.286828359375,-0.07762146728515625,0.9267524853515625
-0.2960678515625,0.03119864013671875,1.01399962890625
-0.3213548828125,-0.034240478515625,1.0334151904296875
-0.26275705078125,-0.01830960693359375,1.0452119873046875
-0.25011353515625,-0.068553125,0.9867195361328125
-0.26518849609375,-0.0837487255859375,0.9714820068359376
-0.31308796875,-0.09575815185546875,0.9061080908203125
-0.2630001953125,-0.06977857666015624,0.899472392578125
-0.28998923828125,-0.1229631787109375,0.8259881787109375
-0.327676640625,-0.12467881103515625,0.8210728466796875
-0.2523018359375,-0.029338671875,0.84491220703125
-0.21655958984375,-0.10850284912109374,0.8451579736328125
-0.30020130859375,-0.01389798095703125,0.980083837890625
-0.26567478515625,-0.0018885546875000003,1.0309575244140625
-0.29436583984375,-0.05458297607421875,1.038084755859375
-0.3301080859375,-0.06830803466796875,1.015474228515625
-0.28196546875,-0.0474753564453125,0.928964384765625
-0.29339326171875,-0.09428760986328125,0.8230389794921875
-0.34639876953125,-0.0396324658203125,0.8446664404296875
-0.26664736328125,-0.05654369873046875,0.8146829150390625
-0.321841171875,-0.06683749267578125,0.8112421826171875
-0.32159802734375,0.02727719482421875,0.93928658203125
-0.31989601562500003,-0.012427438964843749,0.9641090087890625
-0.34493990234375,0.06306038330078124,0.9852449365234375
-0.2722396875,0.03928662109375,0.9881941357421875
-0.29363640625,-0.03129939453125,0.9562444775390625
-0.26251390625,0.02678701416015625,1.0014655322265624
-0.31138595703125,-0.04085791748046875,1.0176861279296876
-0.30506419921875,-0.013407800292968751,1.0865007763671874
-0.3972159765625,0.01110123291015625,1.02088109375
-0.2503566796875,-0.09869923583984375,0.8948028271484375
-0.327676640625,-0.02419177490234375,0.879811064453125
-0.21947732421875,-0.03742665283203125,0.93535431640625
-0.33253953125,-0.07222947998046875,0.9798380712890625
-0.29193439453125003,0.03928662109375,1.04939001953125
-0.28804408203125,-0.0366913818359375,0.975168505859375
-0.32597462890625,-0.059729873046875,0.90389619140625
-0.21558701171875,0.0054641552734375,0.9287186181640625
-0.25692158203125,-0.09036616455078125,0.9218371533203125
-0.23114826171875,-0.12222790771484375,1.00613509765625
-0.34591248046875,-0.05997496337890625,1.04939001953125
-0.2644590625,-0.0700236669921875,1.007609697265625
-0.3184371484375,-0.06487677001953125,0.9532952783203125
-0.323786328125,0.01649322021484375,0.9901602685546875
-0.23260712890625002,-0.05605351806640625,0.9609140429687499
-0.31916658203125,-0.050661530761718754,1.035135556640625
-0.3369161328125,-0.02149578125,1.123611533203125
-0.3009307421875,-0.02664267822265625,1.0334151904296875
-0.2902323828125,-0.00850599365234375,0.9614055761718749
-0.29509527343749997,0.0152677685546875,1.004660498046875
-0.27613,0.03855135009765625,1.0771616455078126
-0.33108066406250003,0.01159141357421875,1.117713134765625
-0.3641483203125,-0.04870080810546875,1.048406953125
-0.265431640625,0.030463369140625002,1.001711298828125
-0.27929087890625,-0.01169216796875,0.891116328125
-0.28804408203125,-0.11242429443359375,0.9115149560546875
-0.2172890234375,0.0054641552734375,1.0383305224609374
-0.36828177734375,0.05889384765625,1.066593681640625
-0.314060546875,-0.08154291259765625,1.0334151904296875
-0.32500205078125,0.0574233056640625,1.013508095703125
-0.308225078125,-0.05360261474609375,0.9756600390625
-0.24281919921875,-0.044534272460937496,1.0432458544921874
-0.31478998046875,0.0358553564453125,1.042017021484375
-0.23503857421875,-0.1121792041015625,0.9734481396484375
-0.3135742578125,-0.03742665283203125,0.983033037109375
-0.23795630859375,0.00276816162109375,1.0385762890625
-0.2678630859375,-0.07419020263671874,0.9508376123046876
-0.33570041015625,-0.09232688720703125,0.94715111328125
-0.2610550390625,0.03217900146484375,1.002694365234375
-0.28415376953125,-0.046249904785156254,0.9115149560546875
-0.28853037109375,-0.01683906494140625,0.9292101513671875
-0.26640421875,-0.010711806640625,1.009575830078125
-0.27807515625,0.0152677685546875,1.0575003173828126
-0.31527626953125,-0.013407800292968751,1.016457294921875
-0.34542619140624997,-0.04134809814453125,0.991880634765625
-0.242089765625,0.0231106591796875,1.0009739990234374
-0.28950294921874997,-0.0219859619140625,0.97271083984375
-0.280992890625,-0.05703387939453125,0.986965302734375
-0.26421591796875,0.04443351806640625,1.0324321240234375
-0.32864921874999997,-0.02762303955078125,0.999745166015625
-0.32111173828125,-0.042328459472656246,1.030220224609375
-0.29631099609375,-0.06193568603515625,0.9709904736328125
-0.2571647265625,-0.0847290869140625,0.9582106103515625
-0.27199654296875,-0.04526954345703125,0.988931435546875
-0.29169125,0.00717978759765625,0.972219306640625
-0.361716875,0.01306195556640625,0.9690243408203125
-0.31187224609374997,-0.0097314453125,0.9238032861328125
-0.30895451171875,0.07433453857421875,0.9193794873046874
-0.25473328125,-0.00213364501953125,0.86653966796875
-0.28950294921874997,-0.06659240234375,0.8589209033203125
-0.25108611328125,0.0280124658203125,0.97369390625
-0.31673513671875,-0.02860340087890625,0.986965302734375
-0.2678630859375,0.00717978759765625,0.9650920751953125
-0.3116291015625,0.0211499365234375,0.905370791015625
-0.27807515625,-0.020515419921875,0.8734211328125
-0.25011353515625,-0.01193725830078125,0.8962774267578125
-0.298499296875,0.0123266845703125,0.9985163330078125
-0.27151025390625,-0.057769150390625,1.0447204541015624
-0.33959072265625,0.0848734228515625,1.1005094726562499
