ax,ay,az
-0.31989601562500003,-0.03938737548828125,0.2528604638671875
-0.24281919921875,-0.10360104248046875,0.159223388671875
-0.12270580078125,-0.073454931640625,0.0881968408203125
-0.26154132812499997,-0.06242586669921875,0.2902169873046875
-0.3602580078125,-0.09232688720703125,0.3285565771484375
-0.50760359375,-0.09575815185546875,0.4376769482421875
-0.6014573828125,-0.1151202880859375,0.780521357421875
-0.62261095703125,-0.1023755908203125,0.638959794921875
-0.4555706640625,-0.02664267822265625,0.714164375
-0.2941226953125,-0.0298288525390625,0.6224934326171875
-0.18397822265625,0.04590406005859375,0.58145041015625
-0.2338228515625,0.126538779296875,0.4740504052734375
-0.36585033203125,0.15692998046875,0.7099863427734375
-0.5664445703125,0.0765403515625,0.655180390625
-0.6790204882812501,0.10619628173828125,0.8567090039062499
-0.722543359375,0.21305566650390625,1.1666206884765624
-0.72740625,0.3113368896484375,1.073475146484375
-0.63136416015625,0.48069430908203126,1.370852734375
-0.57592720703125,0.4358427783203125,1.4305740185546876
-0.58322154296875,0.5110855102539062,1.274020693359375
-0.55501677734375,0.51770294921875,1.340869208984375
-0.5139253515625,0.3824130859375,1.4988971337890624
-0.50590158203125,0.01575794921875,0.9677955078125
-0.55064017578125,0.07335417724609375,0.73480876953125
-0.5158705078125,-0.11046357177734376,0.6819689501953125
-0.44414287109375,-0.21438187255859376,0.4799488037109375
-0.4312562109375,-0.22173458251953124,0.8540055712890625
-0.6734281640625,-0.19281392333984376,1.11623853515625
-0.82053060546875,-0.04919098876953125,1.1823497509765626
-0.7162216015625,-0.01781942626953125,1.3312843115234374
-0.609724296875,0.0515411376953125,1.1553154248046875
-0.34542619140624997,0.02580665283203125,0.9503460791015625
-0.3835998828125,-0.2366850927734375,0.870963466796875
-0.37898013671874997,-0.17222633544921875,0.5988998388671875
-0.21704587890625,-0.1876670263671875,0.5964421728515625
-0.143859375,-0.1484525732421875,0.800182685546875
-0.2172890234375,-0.2896246044921875,1.024321826171875
-0.45338236328125,-0.257762861328125,1.2142994091796875
-0.8494648046875,0.03119864013671875,1.4295909521484376
-0.98684146484375,0.09443194580078125,1.65889119140625
-0.860649453125,0.1966346142578125,1.402802392578125
-0.5528284765625,0.353982607421875,1.3099026171875
-0.4993366796875,0.18903681396484376,0.8343442431640625
-0.2824517578125,-0.07443529296875,0.6175781005859375
-0.12513724609375,-0.0808076416015625,0.56768748046875
-0.16404037109375,-0.15408965087890625,0.4701181396484375
-0.38578818359375,-0.052867343750000004,0.3015222509765625
-0.49277177734375,-0.02370159423828125,0.3393703076171875
-0.50152498046875,-0.06242586669921875,0.3128275146484375
-0.5275414453125,-0.04428918212890625,0.3622266015625
-0.53896923828125,-0.0999246875,0.3334719091796875
-0.39016478515624997,-0.025662316894531252,0.512144228515625
-0.33715927734375,0.1358522119140625,0.641908994140625
-0.49957982421875,0.2083989501953125,0.9931094677734374
-0.72740625,0.20325205322265624,1.2949108544921875
-0.89639169921875,0.27824969482421874,1.4357351171875
-0.7813843359375,0.35300224609374997,1.2501813330078124
-0.45143720703125,0.1392834765625,1.3371827099609375
-0.32597462890625,0.0466393310546875,1.5431351220703124
-0.40572603515625,0.10399046875,1.6910866162109375
-0.58030380859375,0.16158669677734375,1.8749200341796874
-0.56036595703125,0.07335417724609375,1.6738829541015625
-0.4847480078125,0.1809488330078125,1.221426640625
-0.3408064453125,0.2574170166015625,0.8171405810546875
-0.4040240234375,0.23658433837890624,0.7239950390625
-0.47964197265624997,0.02139502685546875,0.821810146484375
-0.7950004296875,0.07482471923828125,1.015474228515625
-0.77481943359375,0.16599832275390625,1.1572815576171875
-0.65932578125,0.22580036376953125,1.3332504443359374
-0.4322287890625,0.10129447509765625,1.534533291015625
-0.216802734375,-0.0641414990234375,1.3342335107421874
-0.1501811328125,-0.0651218603515625,0.864082001953125
-0.1443456640625,-0.09134652587890625,0.5920183740234375
-0.1472633984375,-0.067572763671875,0.3703368994140625
-0.341292734375,-0.0200252392578125,0.3275735107421875
-0.44511544921875,-0.06536695068359374,0.342073740234375
-0.44511544921875,-0.09036616455078125,0.3472348388671875
-0.5644994140625,-0.16438344482421874,0.4887964013671875
-0.65470603515625,-0.2592334033203125,0.6755790185546875
-0.4400094140625,-0.15408965087890625,0.9262609521484375
-0.3806821484375,-0.2567825,1.16932412109375
-0.50103869140625,-0.26830174560546877,0.9646005419921875
-0.4555706640625,-0.17320669677734374,0.5227121923828125
-0.44171142578125,-0.17320669677734374,0.43448198242187497
-0.31576255859375,-0.0837487255859375,0.2717844921875
-0.25084296875,-0.00777072265625,0.3265904443359375
-0.26154132812499997,0.15692998046875,0.5875945751953124
-0.46286499999999997,0.238299970703125,0.8667854345703125
-0.5226785546875,0.3669723950195313,1.0727378466796875
-0.5927041796875,0.4799590380859375,1.4104211572265626
-0.56984859375,0.21403602783203124,1.4679305419921875
-0.09304216796875,0.167713955078125,1.1361456298828125
-0.07845349609375,0.0054641552734375,0.7279273046875
-0.09206958984375,-0.06585713134765625,0.7620888623046875
-0.228473671875,-0.2504101513671875,0.8186151806640625
-0.299471875,-0.3334957739257812,0.80755568359375
-0.5158705078125,-0.04772044677734375,0.8790737646484375
-0.51319591796875,0.295160927734375,1.0820769775390624
-0.52827087890625,0.28462204345703124,1.3071991845703126
-0.2892598046875,0.381432724609375,1.176697119140625
-0.09644619140624999,-0.07026875732421875,0.777572158203125
-0.199296328125,-0.351877548828125,0.73874103515625
-0.555259921875,-0.23129310546875,0.9936010009765625
-0.6043751171875,0.09737302978515625,0.7281730712890625
-0.14556138671875,0.1956542529296875,0.8970147265625
-0.2309051171875,0.36452149169921877,1.68936625
-0.79767501953125,0.4047163061523438,2.129718558349609
-0.93918513671875,0.49098810302734375,2.1221612353515624
-0.2338228515625,0.09933375244140626,1.53895708984375
-0.3612305859375,0.2250650927734375,0.8264797119140626
-0.43976626953125,0.29295511474609376,0.452177177734375
-0.44462916015625,0.17506666503906249,0.3634554345703125
-0.43830740234375,0.026051743164062502,0.1931391796875
-0.48304599609375,-0.0249270458984375,0.2027240771484375
-0.48815203125,-0.10262068115234375,0.2695725927734375
-0.37460353515625,-0.18693175537109374,0.302751083984375
-0.36098744140625,-0.230312744140625,0.5350005224609375
-0.6675926953125,-0.03546593017578125,0.938795048828125
-0.92751419921875,0.0201695751953125,1.254359365234375
-1.06951060546875,0.2093793115234375,1.581720478515625
-0.81761287109375,0.4132944677734375,1.401819326171875
-0.22336763671875,0.237319609375,1.224867373046875
-0.2333365625,0.044188427734375,1.048898486328125
-0.24816837890625,0.02776737548828125,0.7746229589843749
-0.22044990234375,-0.013162709960937501,0.8183694140625
-0.25886673828125,0.1348718505859375,0.6436293603515625
-0.38481560546875,0.11698025634765626,0.406956123046875
-0.43441708984375,0.09541230712890625,0.3329803759765625
-0.40815748046875,0.06257020263671875,0.356819736328125
-0.1346198828125,0.01551285888671875,0.540653154296875
0.01977689453125,0.01845394287109375,1.1356540966796875
-0.12829812499999999,0.128499501953125,2.129718558349609
-0.633066171875,0.3316793872070313,2.129718558349609
-1.033768359375,0.6358364892578126,2.129718558349609
-0.62601498046875,-0.7209835888671875,2.070304482421875
0.05527599609375,-0.41437558349609377,1.3248943798828126
-0.372415234375,-0.218548408203125,0.678773984375
-0.31284482421875,0.17384121337890626,0.135629794921875
-0.31576255859375,0.11698025634765626,0.010780361328124988
-0.18470765625,0.0191892138671875,0.12383299804687499
-0.11200744140625,-0.026397587890625,0.1879780810546875
-0.0869635546875,0.0505607763671875,0.31012408203124997
-0.17084841796875,0.30275872802734377,0.9186421875
-0.5907590234375,0.3806974536132812,1.4880834033203125
-0.847033359375,0.6426990185546875,2.0848047119140625
-0.94258916015625,0.6831389233398437,2.129718558349609
-0.471618203125,0.014777587890624999,1.205697578125
-0.137051328125,-0.0063001806640625,0.6834435498046875
-0.07869664062500001,0.02090484619140625,0.2651487939453125
-0.0850183984375,0.0123266845703125,0.1545538232421875
-0.092312734375,0.019434304199218752,0.29931035156249997
-0.100093359375,0.1025199267578125,0.5460600195312499
-0.20780638671875,0.0907555908203125,1.014491162109375
-0.53872609375,0.14590091552734374,1.69428158203125
-0.76363478515625,0.3253070385742188,2.04228708984375
-0.80253791015625,0.37922691162109373,1.9253021875
-0.32013916015625,0.1103628173828125,1.2491982666015624
-0.31430369140625003,0.0035034326171875,0.8154202148437499
-0.27199654296875,0.07923634521484375,0.5787469775390625
-0.2503566796875,0.21403602783203124,0.47601653808593747
-0.3339983984375,0.18462518798828126,0.4312870166015625
-0.36244630859375,0.238299970703125,0.543602353515625
-0.39940427734375,0.146146005859375,0.78494515625
-0.30627992187499997,0.25668174560546875,0.9631259423828125
-0.56960544921875,0.28854348876953123,1.0461950537109375
-0.664188671875,0.3164837866210938,0.999745166015625
-0.660298359375,0.2289865380859375,0.969761640625
-0.6034025390625,0.0035034326171875,0.8761245654296875
-0.14118478515625,0.04394333740234375,0.9614055761718749
-0.10082279296875,0.22776108642578125,0.8368019091796874
-0.21510072265625,0.237319609375,0.7257154052734375
-0.3544225390625,0.2270258154296875,0.7239950390625
-0.27248283203125,0.08707923583984375,0.6313410302734375
-0.3330258203125,-0.03399538818359375,0.6760705517578125
-0.5431026953125,-0.07664110595703125,0.823776279296875
-0.300444453125,-0.169530341796875,0.6067643701171875
-0.115654609375,-0.03693647216796875,0.6146289013671875
-0.111764296875,-0.0680629443359375,0.579975810546875
-0.1151683203125,-0.1425704052734375,0.4998558984375
-0.15164,0.0897752294921875,0.7529954980468749
-0.56425626953125,0.20790876953125,0.9832788037109375
-0.24865466796875,0.07261890625,1.328089345703125
-0.21655958984375,0.4946644580078125,2.0562957861328126
-0.31333111328125,0.6672080517578125,2.1139894958496095
-0.5508833203125,0.3118270703125,1.7559689990234375
-0.60850857421875,0.009140510253906251,1.3224367138671875
-0.5226785546875,0.03806116943359375,0.69351998046875
-0.37411724609375,-0.06879821533203125,0.251631630859375
-0.11857234375,-0.07419020263671874,0.2626911279296875
-0.046358417968749996,-0.04919098876953125,0.12112956542968749
-0.0461152734375,0.06747200927734374,0.260479228515625
-0.222638203125,0.19786006591796876,0.543602353515625
-0.46845732421874997,0.17482157470703125,0.7335799365234374
-0.6461959765625,0.2182025634765625,1.24108796875
-0.9029566015625,0.3554531494140625,1.8390381103515625
-0.736159453125,0.6201507080078125,1.5937630419921875
-0.29047552734375,0.1642826904296875,1.3497168066406249
-0.2143712890625,-0.11193411376953125,1.1007552392578126
-0.2795340234375,-0.0327699365234375,0.639451328125
-0.2386857421875,0.11011772705078125,0.755944697265625
-0.6393879296875,0.03708080810546875,0.772656826171875
-0.59829650390625,0.0858537841796875,0.8122252490234375
-0.6296621484375,0.19050735595703125,1.0737209130859375
-0.60559083984375,0.353982607421875,1.2113502099609375
-0.70041720703125,0.24442722900390626,1.0476696533203125
-0.58930015625,0.13854820556640626,0.8537598046875
-0.38432931640625,0.22236909912109376,0.7758517919921875
-0.310170234375,0.03266918212890625,0.80558955078125
-0.4059691796875,-0.02517213623046875,1.2354353369140625
-0.5158705078125,0.05423713134765625,1.175714052734375
-0.58613927734375,0.0436982470703125,0.8702261669921875
-0.42809533203125,-0.0724745703125,0.7232577392578124
-0.486206875,0.0299731884765625,0.44185498046875
-0.33132380859375,-0.0474753564453125,0.4214563525390625
-0.4667553125,-0.04281864013671875,0.635027529296875
-0.24938410156250002,-0.08423890625,0.593738740234375
0.03339298828125,0.06894255126953125,0.8549886376953125
0.10876779296875,0.2064382275390625,1.6126870703125
0.06305662109375,0.0495804150390625,1.4974225341796874
-0.61580291015625,0.02041466552734375,2.129718558349609
-1.2287702734375,0.0946770361328125,2.129718558349609
0.09320654296875,0.409863203125,2.129718558349609
-0.54918130859375,0.1549692578125,1.9068696923828126
-0.59197474609375,0.17384121337890626,1.000728232421875
-0.5985396484375,0.0883046875,0.7741314257812499
-0.47259078125,0.03708080810546875,0.4588128759765625
-0.40621232421875,-0.11046357177734376,0.09581560546875
-0.05316646484375,0.0427178857421875,0.30520875000000003
-0.00696900390625,0.116735166015625,0.5256613916015624
0.04117361328125,0.2299668994140625,0.8756330322265625
-0.33667298828125003,0.44295039794921875,1.4453200146484375
-0.77214484375,0.36893311767578124,1.5736101806640626
-0.96009556640625,0.14418528320312501,1.8065969189453126
-0.5839509765625,0.09296140380859375,1.234698037109375
-0.296554140625,0.046149150390625,1.04349162109375
-0.1851939453125,0.08658905517578125,0.862115869140625
-0.38578818359375,0.16354741943359374,0.7217831396484375
-0.41618125,0.026296833496093748,0.6932742138671875
-0.27029453125,-0.120512275390625,0.775606025390625
-0.29971501953125,0.09884357177734375,0.941744248046875
-0.52972974609375,0.10619628173828125,0.917167587890625
-0.284883203125,-0.10360104248046875,0.7822417236328125
-0.39648654296875,0.08168724853515624,0.7227662060546876
-0.61337146484375,-0.0063001806640625,0.8323781103515625
-0.36220316406249997,0.034384814453125,1.032186357421875
-0.49325806640625003,-0.05360261474609375,1.0575003173828126
-0.22968939453125,0.0985984814453125,1.1292641650390625
-0.26664736328125,-0.098944326171875,1.0186691943359376
-0.2610550390625,0.22580036376953125,1.1041959716796874
-0.59708078125,0.2485937646484375,1.0540595849609375
-0.3111428125,-0.05654369873046875,0.930930517578125
-0.13778076171875,0.2098694921875,0.9262609521484375
-0.14191421875,-0.0425735498046875,0.7129355419921874
-0.201241484375,-0.0028689160156250004,0.8210728466796875
-0.31770771484375,-0.03350520751953125,0.8009199853515625
-0.41642439453125,-0.06585713134765625,0.7625803955078125
-0.337402421875,-0.02076051025390625,0.951574912109375
-0.3106565234375,0.0985984814453125,0.9434646142578125
-0.3500459375,0.222614189453125,0.947642646484375
-0.26372962890625,0.21305566650390625,1.0373474560546876
-0.15091056640625,0.06060947998046875,0.7208000732421875
-0.07310431640625001,0.18511536865234374,0.8815314306640625
-0.252788125,0.259867919921875,1.2983515869140625
-0.564013125,0.032424091796875,1.197341513671875
-0.356853984375,0.13536203125,0.98057537109375
-0.21461443359375,0.11992134033203125,0.696960712890625
-0.199296328125,-0.063651318359375,0.4883048681640625
-0.11103486328125,-0.100905048828125,0.49641516601562496
-0.386031328125,0.0103659619140625,0.5455684863281249
-0.42177357421875,0.04541387939453125,0.4327616162109375
-0.329621796875,0.03659062744140625,0.6460870263671875
-0.300444453125,-0.0513968017578125,0.6060270703125
-0.16209521484375,-0.0612004150390625,0.7208000732421875
-0.17133470703125,0.05962911865234375,1.0761785791015626
-0.5353220703125,0.0642858349609375,1.16539185546875
-0.411318359375,0.00423870361328125,1.040542421875
-0.004051269531250002,0.153988896484375,1.208155244140625
-0.0850183984375,0.06109966064453125,1.19881611328125
-0.16841697265625,0.06281529296875,1.266156162109375
-0.11249373046875,0.10325519775390625,1.300071953125
-0.28269490234375,-0.015368522949218751,1.0289913916015625
-0.3344846875,-0.032279755859375,0.9090572900390625
-0.3135742578125,-0.04919098876953125,0.843929140625
-0.3223274609375,0.01575794921875,0.839505341796875
-0.1997826171875,-0.1484525732421875,0.8903790283203125
-0.282938046875,-0.12173772705078124,1.067576748046875
-0.1968648828125,-0.03914228515625,0.9407611816406249
-0.18786853515625002,-0.15065838623046876,0.90782845703125
-0.30555048828125,0.080461796875,0.9906518017578125
-0.245980078125,0.04345315673828125,0.7217831396484375
0.01369828125,-0.0219859619140625,0.686638515625
-0.01474962890625,-0.059484782714843754,0.989914501953125
-0.29047552734375,0.0682072802734375,1.1739936865234375
-0.31527626953125,0.24197632568359376,1.0417712548828124
-0.08574783203125,0.09541230712890625,1.1312302978515625
-0.34445361328125,0.2878082177734375,1.1835785839843749
-0.44025255859375,0.0137972265625,1.0860092431640624
-0.09425789062500001,-0.12271808837890624,1.2076637109375
-0.38432931640625,0.10325519775390625,1.3971497607421874
-0.34785763671875003,-0.0592396923828125,1.2430541015625
-0.26810623046875,0.02531647216796875,0.9945840673828125
-0.38457246093749997,-0.0768861962890625,0.8181236474609375
-0.13291787109375,0.019679394531249998,0.7350545361328125
-0.04271125,0.0054641552734375,0.6716467529296875
-0.007455292968749999,0.112813720703125,0.8692431005859375
-0.11200744140625,-0.05556333740234375,1.2000449462890626
-0.000890390625000001,0.0373258984375,1.501109033203125
-0.401592578125,0.1838899169921875,1.7107479443359375
-0.61264203125,0.04737460205078125,1.5539488525390626
-0.290718671875,-0.0964934228515625,0.9990078662109375
-0.197351171875,0.05276658935546875,0.822793212890625
-0.1560166015625,0.0309535498046875,0.74267330078125
-0.11468203125,0.171635400390625,1.0727378466796875
-0.463837578125,0.1084020947265625,1.20471451171875
-0.4312562109375,-0.04698517578125,1.0597122167968749
-0.1219763671875,-0.12320826904296875,0.8481071728515625
-0.15917748046875,-0.17026561279296876,0.6180696337890625
-0.13000013671875,-0.18153976806640626,0.57555201171875
-0.10276794921875,-0.10580685546875,0.633061396484375
-0.06240595703125,-0.144040947265625,0.8653108349609375
-0.41034578125,0.0103659619140625,1.090187275390625
-0.249870390625,0.19614443359375,1.1046875048828124
-0.26129818359375,0.08413815185546875,1.035135556640625
-0.2221519140625,0.295160927734375,0.9773804052734375
-0.066053125,0.2329079833984375,1.036118623046875
-0.33764556640625,-0.0268877685546875,0.861132802734375
-0.41010263671875,0.079481435546875,0.8812856640625
-0.3631757421875,-0.04036773681640625,0.80853875
-0.0315266015625,-0.0038492773437499997,0.7655295947265625
-0.0266637109375,0.1397736572265625,1.081339677734375
-0.06775513671875,0.14688127685546876,1.1592476904296876
-0.20780638671875,0.10423555908203125,1.2688595947265624
-0.28318119140625,0.22359455078125,1.3897767626953126
-0.263486484375,0.030463369140625002,1.1951296142578125
-0.24087404296875,-0.0013983740234375002,1.279919091796875
-0.52316484375,-0.12149263671875,1.1941465478515625
-0.209022109375,-0.04821062744140625,0.922574453125
-0.13340416015625,-0.1219828173828125,0.72694423828125
-0.1910294140625,-0.13742350830078126,0.8530225048828125
-0.1190586328125,-0.02321141357421875,0.9528037451171875
-0.20415921875,-0.07860182861328124,1.204222978515625
-0.30117388671875,0.127519140625,1.2998261865234375
-0.18932740234375,0.1005592041015625,1.0589749169921876
-0.159420625,-0.008996174316406251,0.8043607177734375
-0.27053767578125,-0.04698517578125,0.653705791015625
0.007376523437500001,-0.063651318359375,0.7861739892578125
-0.15577345703125,-0.17467723876953126,0.8254966455078125
-0.329621796875,-0.17418705810546875,0.7768348583984375
-0.04781728515625,0.063795654296875,0.7522581982421875
-0.1171134765625,-0.07566074462890625,0.609467802734375
-0.17303671874999998,0.12947986328125,0.994829833984375
-0.29533841796875,-0.0406128271484375,1.3661831689453126
-0.22190876953125,-0.1092381201171875,1.327106279296875
-0.005510136718749999,0.1628121484375,1.3774884326171875
-0.35588140625,0.1392834765625,1.1381117626953126
-0.16987583984375,0.05178622802734375,0.76626689453125
-0.117599765625,-0.09232688720703125,0.8648193017578125
-0.1317021484375,0.205948046875,0.8893959619140624
0.012239414062499999,0.13266603759765624,0.8053437841796875
0.04555021484375,0.0476196923828125,1.1277895654296874
0.020506328125,0.06943273193359376,1.257308564453125
-0.35612455078125,-0.0239466845703125,1.2489525
-0.09085386718749999,0.11771552734375,1.331530078125
-0.38141158203125003,-0.0504164404296875,1.085271943359375
0.018561171875,0.11501953369140624,1.0825685107421874
-0.17036212890625,-0.00360418701171875,1.1604765234375
-0.15480087890625,-0.18104958740234375,0.958456376953125
-0.12173322265625,-0.134237333984375,1.100017939453125
-0.15091056640625,0.0348749951171875,1.091170341796875
-0.3904079296875,-0.18815720703125,0.8751414990234375
-0.22093619140625,0.1000690234375,1.0157199951171876
-0.12221951171875,-0.13840386962890625,0.949608779296875
-0.10228166015625,-0.14526639892578125,0.7704449267578125
0.0384990234375,0.0015427099609375003,0.8780906982421874
0.0560054296875,-0.06830803466796875,0.9754142724609375
0.02172205078125,0.05497240234375,1.314326416015625
-0.36098744140625,0.2191829248046875,1.5092193310546875
-0.32305689453124997,0.12629368896484375,1.3489795068359376
-0.24233291015625,0.02678701416015625,1.545347021484375
-0.22142248046875002,0.299082373046875,1.447040380859375
-0.23698373046875,-0.14183513427734376,1.061678349609375
-0.065080546875,-0.0411030078125,0.95108337890625
-0.222638203125,-0.1484525732421875,1.0353813232421876
-0.138996484375,-0.14477621826171874,0.77019916015625
-0.02155767578125,-0.068553125,0.9886856689453125
-0.14021220703125,0.021885207519531248,0.9442019140625
-0.02544798828125,0.03364954345703125,0.6696806201171875
0.01929060546875,-0.023456503906250002,0.6569007568359375
-0.0091573046875,-0.053847705078125,0.7099863427734375
-0.15480087890625,-0.013652890625,0.8387680419921875
-0.1336473046875,0.13854820556640626,1.0353813232421876
-0.30992708984375,0.2571719262695312,1.174730986328125
-0.1842213671875,0.2446723193359375,1.1823497509765626
-0.02350283203125,0.23315307373046876,1.347750673828125
-0.15139685546875,0.21452620849609375,1.3794545654296875
-0.25400384765625,0.22236909912109376,1.40526005859375
-0.16695810546875,0.11845079833984375,1.123611533203125
-0.07845349609375,0.046149150390625,1.1005094726562499
-0.033714902343750006,-0.1357078759765625,1.119679267578125
-0.041495527343750005,-0.15359947021484374,1.0540595849609375
0.02026318359375,0.04345315673828125,1.03661015625
-0.01231818359375,0.03536517578125,1.2391218359375
-0.2668905078125,-0.14869766357421876,1.30498728515625
-0.1997826171875,-0.2082546142578125,1.4404046826171875
-0.244034921875,-0.05311243408203125,1.500125966796875
-0.510521328125,0.01698340087890625,1.3396403759765625
-0.341292734375,-0.15850127685546875,0.8360646093749999
-0.08526154296874999,-0.2033528076171875,0.49641516601562496
0.0039725,-0.08423890625,0.506245830078125
0.0034862109374999978,-0.12124754638671875,0.5753062451171875
0.01199626953125,-0.08448399658203125,0.7475886328125
0.04263248046875,-0.0719843896484375,0.98057537109375
0.07035095703125,-0.08227818359375,1.08281427734375
0.0934496875,0.09688284912109375,1.2273250390625
-0.0986344921875,0.118695888671875,1.3303012451171874
-0.25594900390624997,0.1446754638671875,1.2954023876953125
-0.20245720703125,0.05080586669921875,1.1990618798828125
-0.14580453125,0.00791505859375,0.7694618603515625
-0.142886796875,-0.12933552734375,0.62470533203125
-0.067025703125,-0.10409122314453124,0.69941837890625
-0.1783858984375,0.06355056396484375,0.7768348583984375
-0.18106048828125,0.04296297607421875,0.6927826806640625
0.034122421875,-0.0038492773437499997,0.760860029296875
0.0297458203125,0.04933532470703125,0.75840236328125
0.0404441796875,0.0848734228515625,0.8520394384765625
0.02707123046875,0.07433453857421875,1.0235845263671874
-0.054868476562500004,0.2505544873046875,1.1911973486328125
-0.06775513671875,0.263789365234375,1.3067076513671876
-0.1477496875,0.22482000244140626,1.4357351171875
-0.27880458984375,0.2882983984375,1.307444951171875
-0.2566784375,0.3564335107421875,1.1621968896484376
-0.0431975390625,0.1074217333984375,1.2167570751953125
-0.057299921875,-0.15114856689453124,1.2044687451171874
-0.086477265625,-0.0710040283203125,1.137374462890625
-0.10301109375,-0.2817817138671875,1.0766701123046876
-0.16987583984375,-0.2366850927734375,1.107882470703125
-0.38457246093749997,-0.149923115234375,1.3588101708984375
-0.3349709765625,-0.03129939453125,1.516838095703125
-0.26056875,0.0642858349609375,1.240596435546875
-0.15747546875,-0.0719843896484375,0.8805483642578125
-0.30555048828125,-0.07958218994140626,0.9144641552734375
-0.45168035156249997,0.026296833496093748,0.978117705078125
-0.321841171875,0.016738310546875,0.8930824609375
-0.113709453125,-0.07958218994140626,0.6711552197265624
-0.050491875000000006,0.08413815185546875,0.4578298095703125
-0.08623412109375,0.1314405859375,0.655671923828125
0.060382031249999996,0.04786478271484375,1.0162115283203126
-0.181789921875,0.183399736328125,1.2487067333984374
-0.3835998828125,0.138303115234375,1.276478359375
-0.3641483203125,-0.004829638671875,1.375276533203125
-0.45678638671875,0.021885207519531248,1.4467946142578125
-0.48547744140625,0.3054547216796875,1.5426435888671874
-0.1774133203125,0.04247279541015625,1.16342572265625
-0.1851939453125,-0.04036773681640625,0.918150654296875
-0.1944334375,0.0010525292968750002,0.7498005322265625
-0.34250845703125,-0.170510703125,0.7222746728515625
-0.315033125,0.06011929931640625,0.820827080078125
-0.12221951171875,-0.10311086181640625,0.7566819970703125
-0.047574140625,-0.1626678125,0.467906240234375
-0.127325546875,-0.035711020507812496,0.4251428515625
-0.29582470703125,0.05521749267578125,0.620281533203125
-0.16404037109375,0.1907524462890625,0.667468720703125
-0.056084199218750005,0.23413343505859374,0.7534870312499999
-0.07213173828125,0.27138716552734377,0.9756600390625
-0.14264365234375,0.228496357421875,1.528143359375
-0.28391062499999997,0.25079957763671873,1.909573125
-0.30798193359375,0.21844765380859374,1.8380550439453125
-0.26372962890625,0.21354584716796876,1.2791817919921875
-0.5382398046875,0.0809519775390625,1.0014655322265624
-0.36050115234375,0.02776737548828125,0.9970417333984375
-0.14167107421875,0.09296140380859375,0.9537868115234375
-0.15334201171875,-0.120512275390625,0.7881401220703125
-0.0247185546875,-0.142080224609375,0.625196865234375
-0.13607875,-0.10727739746093751,0.7370206689453125
-0.057543066406249996,-0.10752248779296875,0.7660211279296875
-0.0286088671875,-0.01585870361328125,1.1997991796875
-0.1015522265625,-0.083258544921875,1.4831680712890625
-0.16063634765625,0.15300853515625001,1.394937861328125
-0.07164544921875,0.03364954345703125,1.0503730859375
-0.26129818359375,0.0682072802734375,0.930438984375
-0.3344846875,0.011346323242187501,1.2349438037109375
-0.25838044921875,0.02139502685546875,1.348733740234375
-0.2878009375,-0.013407800292968751,1.1562984912109375
0.0010547656249999988,-0.04698517578125,0.824759345703125
0.0003253320312500002,-0.011201987304687501,0.7004014453125
-0.20294349609375,0.1103628173828125,0.9913891015625
-0.13510617187500001,0.04100225341796875,1.097068740234375
0.026341796875,-0.03522083984375,1.1096028369140625
-0.18057419921875,-0.03252484619140625,1.0840431103515624
-0.25838044921875,-0.10065995849609374,1.13000146484375
-0.4589746875,0.12727405029296876,1.1587561572265626
-0.09061072265625,-0.044044091796875,1.079373544921875
-0.0782103515625,0.011346323242187501,0.820827080078125
-0.24695265625,-0.01193725830078125,0.9577190771484375
-0.49131291015625,-0.1425704052734375,1.07888201171875
0.02609865234375,-0.0876701708984375,1.14769666015625
-0.033714902343750006,-0.01830960693359375,1.074458212890625
-0.25108611328125,-0.1210024560546875,1.0643817822265624
-0.1710915625,0.011346323242187501,1.1602307568359376
-0.50930560546875,0.3338852001953125,1.3209621142578125
-0.3690112109375,0.3525120654296875,1.1818582177734376
-0.16160892578125,0.02335574951171875,0.9631259423828125
-0.013533906250000002,0.07090327392578125,0.7483259326171875
-0.1501811328125,0.07237381591796875,0.6583753564453125
-0.16549923828125,-0.036201201171875,0.827708544921875
-0.02107138671875,0.04100225341796875,1.05528841796875
-0.39745912109375,0.07090327392578125,1.0280083251953125
-0.37168580078125,-0.00752563232421875,0.6195442333984374
-0.2406308984375,-0.047965537109375,0.655180390625
-0.0927990234375,-0.0631611376953125,0.8171405810546875
-0.03906408203125,0.05521749267578125,0.893573994140625
-0.1920019921875,-0.15359947021484374,0.6264256982421875
-0.1667149609375,-0.0254172265625,0.7040879443359375
-0.33108066406250003,0.0495804150390625,0.938795048828125
-0.2503566796875,0.0525214990234375,1.0963314404296876
-0.14458880859375,0.2240847314453125,1.1597392236328126
-0.1210037890625,0.2623188232421875,1.1651460888671874
-0.22239505859375,0.0123266845703125,1.1233657666015624
-0.33570041015625,0.14443037353515625,1.1125520361328125
-0.5110076171875,0.080461796875,1.0152284619140626
-0.06921400390625,-0.05850442138671875,0.8144371484375
0.030232109375,0.0750698095703125,0.730384970703125
-0.2668905078125,0.11501953369140624,0.784453623046875
-0.19516287109375,-0.11781628173828125,0.7050710107421875
-0.3320532421875,0.05423713134765625,0.969270107421875
-0.31308796875,-0.1337471533203125,0.98450763671875
-0.39867484375,-0.167569619140625,1.0437373876953124
0.0156434375,0.0054641552734375,0.926998251953125
-0.2542469921875,-0.1945295556640625,0.8082929833984375
-0.127325546875,-0.026397587890625,0.9803296044921875
-0.1589343359375,-0.04526954345703125,1.0152284619140626
-0.31965287109375,-0.17712814208984376,0.7908435546875
-0.0111024609375,0.0946770361328125,0.953541044921875
-0.28391062499999997,0.01992448486328125,0.958456376953125
-0.17133470703125,-0.048945898437499996,0.89013326171875
-0.03128345703125,0.08658905517578125,1.089204208984375
-0.022773398437500002,-0.1219828173828125,1.05528841796875
-0.06483740234375,0.07188363525390624,1.1135351025390625
-0.28318119140625,0.06011929931640625,1.281885224609375
-0.38189787109375,-0.01830960693359375,1.0840431103515624
-0.3656071875,0.15178308349609376,0.9324051171875
-0.1633109375,0.12237224365234375,0.8338527099609375
-0.121490078125,0.01159141357421875,0.55785681640625
-0.0030786914062500004,0.08658905517578125,0.595704873046875
-0.010129882812500001,-0.00605509033203125,0.7561904638671875
-0.08477525390625,-0.0386521044921875,0.734317236328125
-0.1355924609375,-0.01389798095703125,0.9351085498046875
-0.28220861328125,0.15717507080078125,1.079373544921875
-0.18300564453125,0.008895419921875,0.830657744140625
-0.14507509765624998,-0.055073156738281254,1.01203349609375
-0.13729447265625,0.06109966064453125,1.3283351123046876
-0.17911533203125,-0.00409436767578125,1.22044357421875
-0.27102396484375,0.05497240234375,1.286800556640625
-0.3680386328125,0.044188427734375,1.164900322265625
0.04944052734375,-0.14232531494140624,0.90193005859375
0.0939359765625,-0.1219828173828125,0.998762099609375
0.0511425390625,-0.09134652587890625,1.20274837890625
-0.1375376171875,-0.1710008837890625,1.11525546875
-0.10325423828125,0.01183650390625,1.275003759765625
-0.037848359375,-0.063651318359375,1.1872650830078124
-0.31746457031249997,-0.07909200927734375,1.2546051318359375
-0.0947441796875,0.02090484619140625,1.5062701318359375
-0.33278267578125,-0.042083369140625,1.275003759765625
-0.3194097265625,0.11747043701171875,1.2619781298828125
-0.27929087890625,0.01306195556640625,1.094119541015625
-0.04854671875,-0.00507472900390625,0.8889044287109376
-0.15334201171875,0.09345158447265625,1.1233657666015624
-0.129270703125,-0.1082577587890625,1.0181776611328126
0.05527599609375,-0.0254172265625,0.8761245654296875
-0.0577862109375,-0.18350049072265626,1.0759328125
-0.081614375,0.036345537109375,1.11034013671875
-0.172064140625,0.0020328906249999995,0.946168046875
-0.061676523437500005,0.04541387939453125,1.0444746875
-0.16695810546875,-0.02664267822265625,0.9559987109375
-0.16914640625,0.05227640869140625,1.0604495166015624
-0.21850474609375,-0.03938737548828125,1.0688055810546875
-0.07310431640625001,0.07188363525390624,0.90193005859375
-0.140941640625,0.22040837646484374,0.930930517578125
-0.15917748046875,0.1554594384765625,0.9572275439453125
-0.12513724609375,-0.0866898095703125,0.9407611816406249
0.0287732421875,-0.1710008837890625,1.2388760693359375
-0.0699434375,0.12188206298828125,1.362988203125
-0.2785614453125,0.07041309326171875,1.08084814453125
-0.10617197265625,0.0069346972656249995,1.005643564453125
-0.0879361328125,0.017718671875,1.107882470703125
-0.21218298828125,0.13805802490234376,1.0919076416015625
-0.27102396484375,0.03757098876953125,1.02776255859375
-0.06386482421875,0.03144373046875,0.94125271484375
-0.16598552734375,0.0074248779296875,0.7276815380859375
-0.0879361328125,0.0025230712890624996,0.701876044921875
-0.03128345703125,-0.11536537841796875,0.8498275390625
-0.0811280859375,-0.1484525732421875,0.930438984375
-0.05559791015625,-0.05654369873046875,1.008592763671875
-0.1229489453125,-0.08938580322265625,1.0206353271484374
0.03728330078125,-0.11561046875,1.04152548828125
-0.17571130859375,-0.13129625,1.10247560546875
-0.18835482421875,0.0922261328125,1.1469593603515624
-0.23941517578125,-0.1249239013671875,0.9665666748046875
-0.070916015625,0.07972652587890625,0.8161575146484374
-0.07164544921875,0.1299700439453125,0.7802755908203125
-0.13948277343749999,0.07188363525390624,0.803131884765625
-0.02107138671875,-0.03644629150390625,0.875387265625
-0.22093619140625,0.08315779052734375,0.8967689599609375
0.005674511718750001,0.01110123291015625,0.8766160986328125
0.027314375,-0.17418705810546875,0.9188879541015624
0.043848203125,-0.0612004150390625,1.1093570703125
-0.020341953125,0.06011929931640625,1.387073330078125
-0.2999581640625,0.1358522119140625,1.5544403857421876
-0.352963671875,0.267710810546875,1.341852275390625
-0.30627992187499997,0.2547210229492187,1.0594664501953126
-0.055354765624999996,0.128499501953125,0.8962774267578125
-0.1910294140625,0.1044806494140625,0.818860947265625
-0.024475410156250002,0.02972809814453125,0.8313950439453125
0.01953375,-0.11487519775390626,0.74463943359375
0.045793359374999995,-0.05874951171875,0.7153932080078125
-0.0363894921875,-0.0876701708984375,0.8441749072265625
-0.03663263671875,-0.006790361328125,1.0343982568359376
-0.04830357421875,-0.0028689160156250004,1.0943653076171875
-0.20197091796875,0.00178780029296875,1.1091113037109375
-0.21169669921875,0.130460224609375,1.144255927734375
-0.2892598046875,0.018699033203125,1.0933822412109375
-0.3495596484375,-0.0994345068359375,1.040542421875
-0.32305689453124997,-0.233253828125,0.9724650732421874
-0.3553951171875,-0.22345021484375,0.87440419921875
-0.232363984375,0.0054641552734375,0.689096181640625
0.078861015625,-0.069533486328125,0.5821877099609375
0.0934496875,-0.0960032421875,0.80362341796875
0.11411697265625,-0.09624833251953124,1.2378930029296875
-0.010616171875,-0.12860025634765626,1.5819662451171874
-0.1939471484375,-0.028113220214843748,1.4197602880859375
-0.15528716796875,0.14099910888671874,1.3234197802734375
-0.24330548828125,0.15668489013671874,1.194392314453125
-0.1910294140625,0.07286399658203124,1.1253318994140624
-0.08526154296874999,0.055462583007812497,0.983033037109375
-0.11249373046875,-0.0011532836914062497,0.9400238818359374
-0.1297569921875,-0.10997339111328125,0.9301932177734376
-0.14847912109375,-0.21536223388671874,0.79182662109375
-0.07553576171875,-0.118551552734375,0.7311222705078125
-0.002835546875000001,-0.008996174316406251,0.762826162109375
-0.08331638671875,0.16452778076171876,0.9992536328125
-0.01912623046875,0.09002031982421875,1.2246216064453126
-0.035173769531249996,0.09639266845703125,1.3986243603515625
-0.05559791015625,0.185360458984375,1.42098912109375
-0.08331638671875,0.120656611328125,1.3961666943359374
-0.14847912109375,0.0436982470703125,1.34824220703125
-0.33667298828125003,0.06649164794921875,1.222901240234375
-0.36196001953125,0.04933532470703125,0.99040603515625
-0.28220861328125,0.0123266845703125,0.7488174658203125
-0.08283009765625,0.02678701416015625,0.6406801611328125
-0.06751199218750001,0.0878145068359375,0.6775451513671875
0.032420410156249996,0.0103659619140625,0.666485654296875
0.0190474609375,-0.11977700439453125,0.7640549951171876
0.0384990234375,-0.118551552734375,1.04545775390625
0.071080390625,-0.1415900439453125,1.195375380859375
-0.056084199218750005,-0.17173615478515625,1.424429853515625
-0.28464005859375,-0.08252327392578125,1.243545634765625
-0.2678630859375,0.02482629150390625,1.0363643896484376
-0.1015522265625,-0.01169216796875,1.044966220703125
-0.24330548828125,-0.07762146728515625,1.09461107421875
-0.226528515625,-0.04306373046875,1.0751955126953125
-0.1813036328125,-0.1847259423828125,0.76626689453125
-0.0067258593750000005,-0.08742508056640624,0.69745224609375
0.0003253320312500002,0.0652661962890625,1.0206353271484374
-0.1433730859375,0.021885207519531248,1.1666206884765624
-0.03614634765625,0.04786478271484375,1.27549529296875
-0.041738671875,-0.046004814453125,1.3327589111328124
-0.20732009765625,0.0883046875,1.2949108544921875
-0.067025703125,-0.13987441162109376,1.204222978515625
-0.2022140625,-0.073454931640625,1.10640787109375
-0.25886673828125,0.07825598388671876,0.8540055712890625
-0.092312734375,-0.116590830078125,0.8599039697265625
-0.0850183984375,-0.21487205322265626,1.216019775390625
-0.27029453125,-0.073454931640625,1.3371827099609375
-0.17765646484375,-0.15359947021484374,1.1135351025390625
-0.12343523437500001,-0.018554697265625,0.969270107421875
-0.11468203125,0.0373258984375,0.971236240234375
-0.098148203125,0.0103659619140625,1.0353813232421876
-0.1599069140625,0.0054641552734375,1.11034013671875
-0.07261802734375,-0.16634416748046876,0.97664310546875
0.06597435546875,-0.053847705078125,1.063644482421875
-0.183735078125,-0.0631611376953125,1.217494375
-0.1599069140625,0.1211467919921875,1.3263689794921876
-0.19346085937500002,0.1495772705078125,1.1395863623046876
-0.23528171875,0.0985984814453125,0.9975332666015625
-0.17133470703125,-0.01634888427734375,0.8908705615234375
-0.011831894531250001,-0.0827683642578125,0.8913620947265625
0.01953375,-0.17614778076171875,0.97074470703125
-0.08039865234375,-0.13203152099609375,1.113780869140625
-0.014506484375,0.00423870361328125,1.18505318359375
-0.29290697265625,0.15325362548828125,1.1749767529296875
-0.26810623046875,0.28511222412109377,1.1361456298828125
-0.19808060546875,0.1152646240234375,1.0638902490234374
0.06013888671875,0.10178465576171875,0.9734481396484375
-0.0607039453125,0.0172284912109375,0.93338818359375
-0.084532109375,-0.20849970458984374,0.825742412109375
-0.072861171875,-0.26585084228515626,0.8028861181640625
-0.07407689453124999,-0.249919970703125,0.8205813134765625
-0.12270580078125,-0.2709977392578125,0.7161305078125
-0.19248828125,-0.29526168212890624,0.7633176953125
-0.12902755859375,-0.13497260498046876,0.84097994140625
-0.10033650390625,-0.12933552734375,0.874895732421875
-0.09547361328125001,-0.093062158203125,0.9562444775390625
-0.1064151171875,0.00717978759765625,1.02972869140625
-0.06580998046875,-0.0254172265625,0.9739396728515625
-0.022530253906250002,0.030708459472656248,0.7871570556640625
-0.0597313671875,-0.05874951171875,0.7129355419921874
-0.0714023046875,-0.0960032421875,0.751029365234375
-0.00016095703124999888,-0.0827683642578125,0.7869112890625
-0.00842787109375,-0.0170841552734375,0.9046334912109375
-0.05365275390625,-0.069533486328125,1.043983154296875
-0.049519296875,-0.02027032958984375,1.1223827001953124
-0.1501811328125,0.07261890625,1.0771616455078126
-0.1229489453125,0.06109966064453125,1.0058893310546875
-0.16987583984375,0.16256705810546876,1.0437373876953124
-0.2017277734375,0.21967310546875,1.1420440283203126
-0.06532369140625,0.0966377587890625,1.2575543310546875
-0.0568136328125,0.114774443359375,1.3720815673828124
-0.08428896484375001,0.1672237744140625,1.4160737890625
-0.1910294140625,0.08242251953125,1.3037584521484376
-0.13778076171875,0.0721287255859375,1.191443115234375
-0.30919765625,0.0535018603515625,1.1331964306640625
-0.21461443359375,-0.032279755859375,1.0648733154296874
-0.21850474609375,-0.00777072265625,0.9950756005859375
-0.061676523437500005,-0.092081796875,0.9874568359375
-0.04878986328125,-0.0876701708984375,1.123611533203125
-0.024232265625,-0.0641414990234375,1.2605035302734375
-0.1015522265625,-0.08056255126953125,1.3185044482421875
-0.2873146484375,-0.01781942626953125,1.304495751953125
-0.37703498046875,0.02531647216796875,1.15752732421875
-0.3641483203125,-0.0847290869140625,0.989914501953125
-0.12367837890625,-0.10703230712890625,0.9459222802734375
-0.16160892578125,-0.1621776318359375,0.98942296875
-0.0543821875,-0.15507001220703126,0.87931953125
-0.02009880859375,-0.16634416748046876,0.7788009912109375
-0.068970859375,-0.2121760595703125,0.8240220458984375
-0.13000013671875,-0.15359947021484374,0.9031588916015625
-0.18008791015625,-0.14477621826171874,0.9442019140625
-0.2095083984375,-0.05360261474609375,1.0191607275390624
-0.21996361328125,-0.06536695068359374,0.9985163330078125
-0.185680234375,-0.04698517578125,0.8387680419921875
-0.07359060546875,0.06453092529296875,0.7436563671875001
-0.0821006640625,0.13364639892578126,0.843929140625
-0.230418828125,0.10129447509765625,1.037101689453125
-0.27053767578125,0.15570452880859376,1.15752732421875
-0.19346085937500002,0.18952699462890624,1.159001923828125
-0.23892888671875,0.10595119140625,1.1685868212890624
-0.23260712890625002,0.12825441162109374,1.0697886474609375
-0.19273142578125,0.056933125,0.8810398974609375
-0.174009296875,-0.07124911865234375,0.831640810546875
-0.13583560546875,-0.11561046875,0.8844806298828125
-0.23114826171875,-0.08742508056640624,0.7561904638671875
-0.11103486328125,-0.19771572998046874,0.6986810791015625
-0.12367837890625,-0.2739388232421875,0.71711357421875
-0.19856689453125,-0.2756544555664063,0.821810146484375
-0.17717017578125,-0.2170778662109375,0.93437125
-0.16112263671875,-0.20604880126953126,0.865065068359375
-0.2231244921875,-0.1572758251953125,0.7424275341796875
-0.2878009375,-0.11193411376953125,0.7099863427734375
-0.277102578125,-0.0175743359375,0.755944697265625
-0.253760703125,-0.03154448486328125,0.7660211279296875
-0.1219763671875,0.09933375244140626,0.94518498046875
-0.22968939453125,0.17090012939453125,0.98942296875
-0.19273142578125,0.057913486328125,1.0149826953125
-0.1433730859375,0.128499501953125,1.056271484375
-0.1492085546875,0.0829127001953125,1.164900322265625
-0.33764556640625,0.0883046875,1.1958669140625
-0.39016478515624997,0.19246807861328125,1.1223827001953124
-0.44049570312499997,0.21011458251953125,1.0245675927734375
-0.446331171875,0.19344843994140626,0.89603166015625
-0.37752126953125,0.1985953369140625,0.8102591162109375
-0.11857234375,0.20006587890625,0.93437125
-0.1477496875,0.09737302978515625,1.193409248046875
-0.1482359765625,0.1358522119140625,1.4357351171875
-0.14629082031250001,0.10080429443359375,1.5183126953125
-0.15236943359375,0.09198104248046875,1.431311318359375
-0.1793584765625,0.21403602783203124,1.38756486328125
-0.19808060546875,0.01306195556640625,1.4177941552734374
-0.23844259765625,0.0037485229492187503,1.470633974609375
-0.3874901953125,0.0358553564453125,1.5269145263671875
-0.321841171875,-0.04772044677734375,1.4939818017578126
-0.30895451171875,-0.1798241357421875,1.39739552734375
-0.2955815625,-0.165608896484375,1.2688595947265624
-0.3213548828125,-0.20727425292968749,1.1405694287109376
-0.27442798828125,-0.29624204345703126,1.00613509765625
-0.26956509765625,-0.36658296875,1.0555341845703126
-0.2542469921875,-0.3312899609375,1.0506188525390625
-0.247925234375,-0.22712656982421875,0.953541044921875
-0.181789921875,-0.26241957763671875,0.8402426416015625
-0.15188314453125001,-0.28398752685546874,0.7974792529296875
-0.17571130859375,-0.29795767578125,0.8387680419921875
-0.25692158203125,-0.2768799072265625,0.9397781152343749
-0.30506419921875,-0.201882265625,0.923065986328125
-0.366579765625,-0.202862626953125,0.8183694140625
-0.341292734375,-0.1082577587890625,0.790352021484375
-0.242089765625,-0.00948635498046875,0.6569007568359375
-0.20804953125,0.05105095703125,0.592264140625
-0.12805498046875,0.0927163134765625,0.630112197265625
-0.1968648828125,0.09933375244140626,0.7429190673828125
-0.13923962890625,0.179478291015625,0.8127167822265625
-0.15285572265625,0.20398732421875,0.8702261669921875
-0.18154677734375,0.0760501708984375,0.899472392578125
-0.2279873828125,0.127519140625,0.9247863525390625
-0.20099833984375,0.10913736572265625,0.912252255859375
-0.36779548828124997,0.0623251123046875,0.812471015625
-0.2766162890625,0.07776580322265625,0.73677490234375
-0.2639727734375,0.1064413720703125,0.7350545361328125
-0.2644590625,0.0037485229492187503,0.7792925244140625
-0.13923962890625,0.00325834228515625,0.890624794921875
-0.17911533203125,-0.03301502685546875,0.863098935546875
-0.314060546875,0.022620478515625,0.749063232421875
-0.25594900390624997,-0.0219859619140625,0.663044921875
-0.1710915625,-0.08595453857421875,0.533771689453125
-0.14312994140625,-0.1357078759765625,0.6215103662109375
-0.18592337890625,-0.055073156738281254,0.8240220458984375
-0.22385392578125,-0.0876701708984375,0.9822957373046874
-0.1764407421875,-0.036201201171875,1.1014925390624999
-0.17765646484375,-0.03105430419921875,1.1882481494140624
-0.1676875390625,-0.0366913818359375,1.2329776708984375
-0.21315556640625,-0.00213364501953125,1.17325638671875
-0.2328502734375,0.03536517578125,1.2253589062499999
-0.26154132812499997,-0.0739451123046875,1.2457575341796876
-0.23747001953125,0.06453092529296875,1.2354353369140625
-0.3203823046875,0.14246965087890626,1.170798720703125
-0.2649453515625,0.04247279541015625,1.107882470703125
-0.1968648828125,0.08021670654296875,1.1730106201171875
-0.23139140625,0.09639266845703125,1.2408422021484375
-0.1676875390625,0.04835496337890625,1.30695341796875
-0.199296328125,0.17825283935546876,1.2688595947265624
-0.230418828125,0.165753232421875,1.0506188525390625
-0.30360533203125,0.04590406005859375,0.9363373828125
-0.22750109375,-0.155805283203125,0.9454307470703125
-0.25838044921875,-0.0739451123046875,0.9402696484374999
-0.2600824609375,-0.08007237060546875,1.016457294921875
-0.20488865234375,-0.051886982421875,1.14179826171875
-0.28585578125,-0.06879821533203125,1.24207103515625
-0.23844259765625,-0.0190448779296875,1.23224037109375
-0.23212083984375,0.05570767333984375,1.1297556982421875
-0.21023783203125002,-0.048945898437499996,1.053813818359375
-0.18446451171875,0.0064445166015625,1.0181776611328126
-0.1550440234375,-0.112669384765625,1.104933271484375
-0.09109701171875,-0.16046199951171874,1.237647236328125
-0.0879361328125,-0.26536066162109373,1.299580419921875
-0.06410796875,-0.181294677734375,1.2968769873046875
-0.232363984375,-0.075415654296875,1.2531305322265625
-0.331566953125,-0.17124597412109374,1.180629384765625
-0.40694175781249997,-0.23644000244140626,1.152120458984375
-0.41423609375,-0.304820205078125,1.0348897900390626
-0.3913805078125,-0.3337408642578125,0.9169218212890625
-0.3485870703125,-0.32663324462890625,0.7655295947265625
-0.2873146484375,-0.3033496630859375,0.6632906884765625
-0.2347954296875,-0.2729584619140625,0.542619287109375
-0.22750109375,-0.25457668701171876,0.49887283203125
-0.19953947265625,-0.2660959326171875,0.4696266064453125
-0.14458880859375,-0.2629097583007812,0.517059560546875
-0.0334717578125,-0.1935491943359375,0.5610517822265625
0.029502675781249998,-0.04870080810546875,0.698926845703125
0.0550328515625,0.0044837939453125,0.9798380712890625
-0.06143337890625,0.0878145068359375,1.2978600537109375
-0.46942990234375,0.16403760009765625,1.415582255859375
-0.51027818359375,0.2682009912109375,1.1961126806640625
-0.407428046875,0.27187734619140624,0.9999909326171875
-0.3388612890625,0.23511379638671875,0.71514744140625
-0.26178447265625,0.2603581005859375,0.5880861083984374
-0.12708240234375,0.24001560302734376,0.52639869140625
-0.04878986328125,0.193203349609375,0.5458142529296874
-0.02836572265625,0.14197947021484375,0.6269172314453125
-0.10544253906250001,0.13168567626953126,0.7016302783203126
-0.11249373046875,0.16477287109375,0.721537373046875
-0.0655668359375,0.20521277587890624,0.736283369140625
-0.10033650390625,0.25962282958984373,0.87440419921875
-0.096203046875,0.20178151123046875,1.1081282373046875
-0.25643529296875,0.16060633544921876,1.3275978125
-0.35272052734375,0.3025136376953125,1.34430994140625
-0.33108066406250003,0.10668646240234375,1.1764513525390625
-0.24719580078125,0.1628121484375,1.054796884765625
-0.10179537109375,0.12727405029296876,0.973202373046875
-0.02836572265625,0.0231106591796875,1.091170341796875
0.02853009765625,-0.0567887890625,1.127543798828125
0.01953375,-0.11977700439453125,1.227816572265625
-0.1472633984375,-0.20359789794921876,1.1538408251953125
-0.12562353515625,-0.25310614501953127,0.97467697265625
-0.068970859375,-0.2788406298828125,0.9365831494140625
-0.197351171875,-0.334231044921875,1.1518746923828125
-0.35417939453125,-0.264625390625,1.1381117626953126
-0.33253953125,-0.25359632568359375,0.996795966796875
-0.19467658203125,-0.1837455810546875,1.0174403613281249
-0.15139685546875,-0.1092381201171875,1.0358728564453126
-0.21972046875,-0.10164031982421876,1.110831669921875
-0.0772377734375,-0.15286419921875,1.1604765234375
-0.18106048828125,-0.1744321484375,1.2428083349609376
-0.2445212109375,-0.1621776318359375,1.1958669140625
-0.09693248046875,-0.146001669921875,1.05233921875
-0.0538958984375,-0.00507472900390625,1.05725455078125
-0.10106593750000001,-0.0239466845703125,1.1479424267578124
-0.14458880859375,-0.02125069091796875,1.1997991796875
-0.21850474609375,-0.042083369140625,1.0830600439453124
-0.27588685546875,-0.01781942626953125,0.998762099609375
-0.28974609375,0.064776015625,0.925032119140625
-0.17960162109375,-0.0063001806640625,0.8820229638671875
-0.226528515625,-0.091101435546875,0.9363373828125
-0.16549923828125,-0.0254172265625,0.9931094677734374
-0.2386857421875,-0.10262068115234375,0.9051250244140625
-0.23649744140625,-0.0612004150390625,0.765775361328125
-0.2717533984375,-0.0371815625,0.7704449267578125
-0.22385392578125,-0.01732924560546875,0.8972604931640625
-0.115654609375,-0.0175743359375,1.1489254931640625
-0.20440236328125,0.01110123291015625,1.281885224609375
-0.11200744140625,-0.02419177490234375,1.34430994140625
-0.16695810546875,-0.03644629150390625,1.21257904296875
-0.17619759765625,0.05423713134765625,1.1184504345703126
-0.2425760546875,0.053992041015625,1.139340595703125
-0.1783858984375,0.03168882080078125,1.2619781298828125
-0.0932853125,-0.2817817138671875,1.36200513671875
-0.1210037890625,-0.18521612304687501,1.5495250537109375
-0.312115390625,-0.19845100097656249,1.5883561767578125
-0.34202216796875,-0.2844777075195313,1.1454847607421874
-0.277102578125,-0.2580079516601563,0.9105318896484375
-0.2980130078125,-0.296977314453125,0.7876485888671875
-0.1949197265625,-0.3317801416015625,0.832623876953125
-0.16914640625,-0.3562891748046875,0.9174133544921875
-0.08988128906250001,-0.36584769775390624,0.87637033203125
-0.035173769531249996,-0.30972201171875,0.788877421875
-0.06921400390625,-0.29281077880859374,0.7640549951171876
-0.2177753125,-0.21095060791015624,0.735300302734375
-0.26227076171875,-0.0739451123046875,0.7090032763671875
-0.22361078125,-0.03938737548828125,0.7478343994140625
-0.32159802734375,-0.038161923828125,0.777080625
-0.3456693359375,-0.0016434643554687498,0.8340984765625
-0.24695265625,0.01306195556640625,0.751029365234375
-0.23503857421875,0.06600146728515625,0.61094240234375
-0.20294349609375,0.089285048828125,0.527873291015625
-0.1015522265625,0.11599989501953126,0.5640009814453125
-0.09255587890625,0.12482314697265626,0.5797300439453125
-0.04295439453125,0.14884199951171875,0.617332333984375
0.006403945312499999,0.033404453125,0.730384970703125
-0.18300564453125,0.06943273193359376,0.7901062548828125
-0.23844259765625,0.1152646240234375,0.7552073974609375
-0.23528171875,0.11501953369140624,0.717605107421875
-0.23309341796875,0.15129290283203126,0.8225474462890625
-0.26421591796875,0.15129290283203126,0.875878798828125
-0.3067662109375,0.18266446533203126,0.8387680419921875
-0.20780638671875,0.2054578662109375,0.7286646044921875
-0.1710915625,0.0505607763671875,0.5974252392578125
-0.06921400390625,0.03928662109375,0.562280615234375
-0.09741876953125,0.06060947998046875,0.558348349609375
-0.11443888671875,0.0123266845703125,0.5640009814453125
-0.115654609375,-0.02664267822265625,0.57555201171875
-0.05024873046875,0.03659062744140625,0.654688857421875
-0.15164,0.0211499365234375,0.7905977880859375
-0.16720125,0.03757098876953125,0.9326508837890625
-0.27345541015625,0.11550971435546875,1.0648733154296874
-0.33959072265625,0.20227169189453126,1.1100943701171875
-0.33083751953125,0.1387932958984375,1.1184504345703126
-0.26470220703125,0.06257020263671875,1.099034873046875
-0.23114826171875,0.1142842626953125,1.1223827001953124
-0.18592337890625,0.0074248779296875,1.1209081005859376
-0.1589343359375,0.0142874072265625,1.1852989501953124
-0.20391607421875,-0.03203466552734375,1.18603625
-0.25303126953125,7.216796875000007e-05,1.101984072265625
-0.2902323828125,-0.09404251953125001,0.9795923046875
-0.19029998046875,-0.10409122314453124,0.9931094677734374
-0.17717017578125,-0.13350206298828124,1.0402966552734374
-0.10301109375,-0.1504132958984375,1.130492998046875
-0.13291787109375,-0.07026875732421875,1.3361996435546875
-0.23649744140625,-0.0719843896484375,1.4472861474609375
-0.32451576171875,-0.035711020507812496,1.4305740185546876
-0.33424154296874997,-0.0229663232421875,1.31285181640625
-0.30895451171875,-0.03889719482421875,1.344801474609375
-0.26275705078125,-0.08007237060546875,1.38559873046875
-0.244034921875,-0.07173929931640625,1.493244501953125
-0.24306234375,-0.08987598388671875,1.563042216796875
-0.17765646484375,-0.1111988427734375,1.5170838623046876
-0.16647181640625,-0.155805283203125,1.4595744775390624
-0.16987583984375,-0.1249239013671875,1.4531845458984374
-0.1958923046875,-0.17173615478515625,1.4549049121093751
-0.19419029296875,-0.10899302978515625,1.4993886669921874
-0.174009296875,-0.14722712158203125,1.4404046826171875
-0.22944625,-0.1053166748046875,1.430328251953125
-0.21510072265625,-0.13497260498046876,1.437209716796875
-0.273212265625,-0.1151202880859375,1.358564404296875
-0.3631757421875,-0.09281706787109376,1.320224814453125
-0.3281629296875,-0.1131595654296875,1.2509186328125
-0.3135742578125,-0.089140712890625,1.220935107421875
-0.23649744140625,-0.05703387939453125,1.16244265625
-0.11054857421875,-0.07468038330078125,1.14671359375
-0.06921400390625,-0.1013952294921875,1.115747001953125
-0.068970859375,-0.1229631787109375,1.0938737744140625
-0.040766093749999996,-0.22957747314453125,1.106899404296875
-0.16258150390625,-0.1710008837890625,1.167849521484375
-0.234309140625,-0.23006765380859376,1.1617053564453126
-0.27442798828125,-0.27418391357421873,1.0786362451171876
-0.245980078125,-0.25898831298828123,1.016948828125
-0.1900568359375,-0.2317832861328125,0.944693447265625
-0.20683380859375,-0.26658611328125,0.9341254833984375
-0.17960162109375,-0.247959248046875,1.0289913916015625
-0.17084841796875,-0.2869286108398437,1.0712632470703125
-0.06824142578125,-0.2893795141601562,1.031203291015625
-0.035173769531249996,-0.2756544555664063,0.99237216796875
-0.08915185546875,-0.25310614501953127,0.93928658203125
-0.109819140625,-0.1945295556640625,0.827708544921875
-0.06143337890625,-0.21168587890625,0.7829790234375
-0.08769298828125,-0.204823349609375,0.7987080859375
-0.113709453125,-0.1798241357421875,0.86260740234375
-0.143859375,-0.1352176953125,0.8485987060546875
-0.06435111328125,-0.2092349755859375,0.811979482421875
-0.12440781249999999,-0.10065995849609374,0.7640549951171876
-0.096203046875,-0.04698517578125,0.7783094580078125
-0.09595990234375,-0.0808076416015625,0.7896147216796875
-0.024475410156250002,-0.05605351806640625,0.81738634765625
-0.003808124999999999,-0.01389798095703125,0.8382765087890625
-0.009886738281250002,-0.0210056005859375,0.8082929833984375
-0.011345605468749999,0.0530116796875,0.7871570556640625
-0.02593427734375,0.0564429443359375,0.718588173828125
-0.0016198242187499996,0.0848734228515625,0.660587255859375
0.00227048828125,0.0476196923828125,0.6544430908203125
0.001784199218750001,0.10766682373046875,0.620281533203125
-0.07213173828125,0.104970830078125,0.7394783349609375
-0.11322316406249999,0.118695888671875,0.7974792529296875
-0.168173828125,0.10374537841796876,0.823776279296875
-0.11322316406249999,0.11796061767578125,0.73087650390625
-0.04684470703125,0.03021827880859375,0.678282451171875
-0.02909515625,-0.0670825830078125,0.729401904296875
-0.01912623046875,0.01453249755859375,0.8166490478515624
-0.07164544921875,-0.01732924560546875,0.8436833740234375
-0.1472633984375,0.067717099609375,0.8333611767578125
-0.18640966796875,0.06502110595703126,0.7512751318359375
-0.0859909765625,0.12237224365234375,0.70924904296875
-0.09352845703125,0.0809519775390625,0.75447009765625
-0.037362070312499995,0.12335260498046875,0.7763433251953125
-0.098148203125,0.0427178857421875,0.8382765087890625
-0.07504947265625,0.0917359521484375,0.76921609375
-0.1190586328125,0.00987578125,0.7817501904296875
-0.1171134765625,-0.0729647509765625,0.805098017578125
-0.0451426953125,-0.085219267578125,0.9105318896484375
-0.07748091796875001,-0.04183827880859375,0.9454307470703125
-0.072861171875,-0.08840544189453126,1.0078554638671875
-0.0198556640625,-0.14526639892578125,0.9940925341796875
-0.0461152734375,-0.02737794921875,0.9650920751953125
-0.09523046875,-0.0464949951171875,0.9822957373046874
-0.035903203125000005,0.02531647216796875,0.9815584374999999
-0.08623412109375,0.0338946337890625,1.0179318945312499
-0.061190234375,0.00791505859375,1.0545511181640626
0.00956482421875,0.00399361328125,1.132459130859375
-0.008184726562500001,0.0182088525390625,1.15359505859375
0.023667207031249998,-0.027868129882812502,1.1351625634765625
0.02172205078125,-0.03350520751953125,1.1351625634765625
-0.033714902343750006,-0.04526954345703125,1.115747001953125
-0.01037302734375,-0.12271808837890624,1.0894499755859375
-0.044170117187499996,-0.10972830078125,1.0425085546875
0.02512607421875,-0.12173772705078124,1.0171945947265626
-0.057543066406249996,-0.17835359375,1.0702801806640625
-0.024475410156250002,-0.10556176513671875,1.1425355615234376
-0.043683828125000004,-0.0621807763671875,1.1543323583984375
-0.0310403125,-0.09845414550781251,1.0889584423828125
-0.02204396484375,-0.057278969726562504,1.03169482421875
0.04944052734375,-0.05360261474609375,1.124594599609375
-0.0030786914062500004,0.00423870361328125,1.2128248095703125
-0.024232265625,0.01208159423828125,1.2305200048828124
-0.063135390625,0.0966377587890625,1.2403506689453125
-0.10422681640625,0.173596123046875,1.2600119970703125
-0.10544253906250001,0.24491740966796874,1.280410625
-0.105928828125,0.2838867724609375,1.3347250439453124
-0.10179537109375,0.2378097900390625,1.47604083984375
-0.14361623046875,0.2152614794921875,1.5772966796875
-0.11395259765625,0.1633023291015625,1.4895580029296875
-0.08817927734375,0.0819323388671875,1.3470133740234376
-0.0451426953125,0.07727562255859374,1.3568440380859375
-0.12027435546875,0.06747200927734374,1.3514371728515624
-0.10568568359375,0.028257556152343752,1.3725731005859374
-0.10106593750000001,-0.060710234375,1.3828952978515625
-0.076751484375,-0.09673851318359375,1.3627424365234375
-0.1180860546875,-0.09673851318359375,1.25583396484375
-0.0850183984375,-0.14379585693359376,1.21847744140625
-0.06021765625,-0.17026561279296876,1.240596435546875
-0.10203851562499999,-0.171491064453125,1.257308564453125
-0.11930177734375,-0.20359789794921876,1.188493916015625
-0.0699434375,-0.236194912109375,1.11820466796875
-0.0363894921875,-0.261684306640625,1.1307387646484375
-0.04198181640625,-0.2445279833984375,1.1051790380859374
-0.063135390625,-0.2209993115234375,1.0663479150390625
-0.045872128906250004,-0.27761517822265624,1.082322744140625
-0.10325423828125,-0.2170778662109375,1.119679267578125
-0.10860341796875,-0.23496946044921874,1.043983154296875
-0.12221951171875,-0.22124440185546876,0.9955671337890625
-0.1307295703125,-0.20212735595703124,0.9994993994140625
-0.15139685546875,-0.16242272216796874,0.9709904736328125
-0.1686601171875,-0.13987441162109376,0.930438984375
-0.175954453125,-0.161687451171875,0.9481341796875
-0.1540714453125,-0.08154291259765625,0.9375662158203125
-0.191515703125,-0.08423890625,0.8893959619140624
-0.197351171875,-0.0651218603515625,0.89799779296875
-0.168173828125,-0.05458297607421875,0.918150654296875
-0.18884111328125,-0.03301502685546875,0.942727314453125
-0.17522501953125,-0.042083369140625,0.8830060302734375
-0.144831953125,-0.06095532470703125,0.8267254785156251
-0.1044699609375,-0.0190448779296875,0.883251796875
-0.12221951171875,-0.011201987304687501,0.8815314306640625
-0.13923962890625,-0.02321141357421875,0.8746499658203125
-0.16695810546875,-0.03301502685546875,0.9110234228515625
-0.168173828125,-0.03938737548828125,0.9009469921875
-0.15966376953125,-0.04698517578125,0.8572005371093749
-0.13510617187500001,-0.04526954345703125,0.8618701025390625
-0.1171134765625,-0.042083369140625,0.967303974609375
-0.14896541015625,-0.04772044677734375,0.978117705078125
-0.172064140625,-0.07419020263671874,0.9518206787109375
-0.1278118359375,-0.061690595703125004,0.908319990234375
-0.13510617187500001,-0.091101435546875,0.8417172412109375
-0.13389044921874999,-0.11340465576171875,0.8554801708984375
-0.12951384765625001,-0.10262068115234375,0.878827998046875
-0.16185207031249998,-0.09379742919921875,0.9009469921875
-0.1628246484375,-0.12467881103515625,0.8967689599609375
-0.13802390625,-0.11144393310546875,0.88620099609375
-0.13534931640625,-0.1043363134765625,0.8913620947265625
-0.14993798828125,-0.07443529296875,0.93437125
-0.15747546875,-0.0710040283203125,0.9419900146484375
-0.1686601171875,-0.09183670654296874,0.929947451171875
-0.1521262890625,-0.087179990234375,0.89996392578125
-0.15066742187499998,-0.092081796875,0.8721922998046875
-0.138996484375,-0.09281706787109376,0.8839890966796875
-0.16160892578125,-0.07958218994140626,0.9007012255859375
-0.1725504296875,-0.07835673828125,0.9046334912109375
-0.17765646484375,-0.073454931640625,0.9110234228515625
-0.16598552734375,-0.0651218603515625,0.8903790283203125
-0.17911533203125,-0.04821062744140625,0.90193005859375
-0.1949197265625,-0.023456503906250002,0.93535431640625
-0.19127255859375,-0.028113220214843748,0.9626344091796875
-0.19370400390625,-0.00997653564453125,0.968287041015625
-0.19832375,-0.0175743359375,0.9700074072265625
-0.1944334375,-0.013652890625,0.984016103515625
-0.19346085937500002,-0.0190448779296875,0.9931094677734374
-0.2027003515625,-0.0023787353515625003,1.025304892578125
-0.20488865234375,0.00816014892578125,1.0108046630859375
-0.2143712890625,0.00619942626953125,1.00023669921875
-0.1939471484375,0.024091020507812498,0.990897568359375
-0.220693046875,0.0211499365234375,0.980083837890625
-0.21023783203125002,0.016738310546875,0.9842618701171875
-0.228473671875,0.014777587890624999,1.0196522607421874
-0.24476435546875,0.040266982421875,0.99630443359375
-0.27613,0.02727719482421875,0.9621428759765625
-0.23357970703125,0.02041466552734375,1.0260421923828125
-0.2255559375,0.04835496337890625,1.030220224609375
-0.237226875,0.03561026611328125,1.0668394482421875
-0.20537494140625,0.04002189208984375,1.0850261767578124
-0.2182616015625,0.02752228515625,1.0575003173828126
-0.2255559375,0.02874773681640625,1.0388220556640624
-0.20877896484375,0.03144373046875,1.02579642578125
-0.19467658203125,0.0162481298828125,1.044966220703125
-0.19175884765625,0.011346323242187501,1.027271025390625
-0.18543708984375,0.024091020507812498,0.974185439453125
-0.18738224609375,0.0250713818359375,1.002694365234375
-0.19467658203125,0.0476196923828125,1.0019570654296874
-0.20197091796875,0.03806116943359375,1.0240760595703124
-0.21266927734375,0.053992041015625,1.0432458544921874
-0.21315556640625,0.04443351806640625,1.0196522607421874
-0.2240970703125,0.04541387939453125,1.0417712548828124
-0.21704587890625,0.04051207275390625,1.0806023779296874
-0.20245720703125,0.02752228515625,1.06118681640625
-0.2095083984375,0.0368357177734375,1.100017939453125
-0.18397822265625,0.0093856005859375,1.083305810546875
-0.16404037109375,-0.0016434643554687498,1.0896957421875
-0.18008791015625,-0.00507472900390625,1.03169482421875
-0.1783858984375,-0.00752563232421875,1.020389560546875
-0.17230728515625,-0.010221625976562499,1.054796884765625
-0.1657423828125,0.0010525292968750002,1.0245675927734375
-0.154557734375,-0.02272123291015625,1.0255506591796875
-0.16890326171875,-0.0180645166015625,1.003677431640625
-0.17230728515625,-0.012672529296875,0.9896687353515625
-0.17814275390625,-0.013652890625,1.0110504296875
-0.18106048828125,-0.02370159423828125,1.0368559228515626
-0.18203306640625,-0.02958376220703125,1.022355693359375
-0.18057419921875,-0.040122646484374996,1.0157199951171876
-0.1832487890625,-0.04036773681640625,0.991880634765625
-0.185680234375,-0.0298288525390625,0.96877857421875
-0.19564916015625,-0.0332601171875,0.9921264013671875
-0.19564916015625,-0.03840701416015625,1.013508095703125
-0.1968648828125,-0.03644629150390625,1.008592763671875
-0.19953947265625,-0.03105430419921875,0.98942296875
-0.20586123046875,-0.04428918212890625,0.985982236328125
-0.181789921875,-0.02958376220703125,1.0570087841796876
-0.20002576171875,-0.0055649096679687505,0.995812900390625
-0.22288134765625,-0.04330882080078125,0.980083837890625
-0.17036212890625,0.00472888427734375,0.968287041015625
-0.23212083984375,-0.046740085449218746,0.958456376953125
-0.1788721875,0.02580665283203125,0.969270107421875
-0.22628537109375,-0.0170841552734375,0.994829833984375
-0.205131796875,-0.0013983740234375002,0.9906518017578125
-0.20440236328125,-0.0121823486328125,0.9808211376953125
-0.21996361328125,0.0054641552734375,0.974185439453125
-0.1968648828125,-0.02762303955078125,0.9729566064453125
-0.21461443359375,-0.0038492773437499997,0.973202373046875
-0.20804953125,-0.010221625976562499,1.01006736328125
-0.221665625,-0.0013983740234375002,0.9990078662109375
-0.18203306640625,-0.0011532836914062497,0.984999169921875
-0.22725794921875,-0.05703387939453125,0.9587021435546875
-0.174009296875,0.0221302978515625,0.957473310546875
-0.230418828125,-0.057278969726562504,0.9655836083984375
-0.18081734375,0.0093856005859375,0.9754142724609375
-0.22093619140625,-0.06781785400390625,0.9419900146484375
-0.17862904296875,0.0020328906249999995,0.9321593505859375
-0.20488865234375,-0.0332601171875,0.96681244140625
-0.20537494140625,-0.0023787353515625003,0.9604225097656249
-0.206104375,-0.04379900146484375,1.000728232421875
-0.206104375,-0.0337502978515625,0.976151572265625
-0.183735078125,-0.0210056005859375,0.9874568359375
-0.19856689453125,-0.028358310546875,0.9650920751953125
-0.1696326953125,-0.00997653564453125,0.9874568359375
-0.214857578125,-0.04698517578125,0.969270107421875
-0.18008791015625,-0.0298288525390625,0.9975332666015625
-0.1900568359375,-0.03301502685546875,0.98254150390625
-0.18349193359375,-0.00850599365234375,0.98450763671875
-0.18470765625,-0.03595611083984375,0.969761640625
-0.17425244140625,7.216796875000007e-05,0.9921264013671875
-0.19346085937500002,-0.024436865234375,0.996795966796875
-0.21218298828125,-0.012427438964843749,1.0127707958984375
-0.15674603515625,0.00791505859375,0.9945840673828125
-0.1890842578125,-0.03840701416015625,0.9591936767578125
-0.16355408203125,0.0142874072265625,1.028745625
-0.21704587890625,-0.00605509033203125,1.036118623046875
-0.19029998046875,0.01575794921875,1.023338759765625
-0.23698373046875,-0.0023787353515625003,1.0162115283203126
-0.22968939453125,0.0221302978515625,1.01596576171875
-0.259596171875,0.02923791748046875,0.97074470703125
-0.282938046875,0.02874773681640625,0.9680412744140625
-0.29485212890625,-0.0006631030273437505,0.9874568359375
-0.31965287109375,0.0373258984375,0.9980247998046875
-0.346155625,0.04712951171875,0.98057537109375
-0.36341888671875,0.06796218994140625,0.924049052734375
-0.40037685546875,0.0358553564453125,0.9009469921875
-0.40378087890625003,0.0407571630859375,0.9208540869140625
-0.4127772265625,0.0466393310546875,0.9257694189453125
-0.44608802734374997,0.04443351806640625,0.894557060546875
-0.4565432421875,0.01404231689453125,0.8913620947265625
-0.43052677734375,0.056933125,0.9911433349609375
-0.43636224609375,0.05913893798828125,0.92355751953125
-0.459947265625,0.0270321044921875,0.87440419921875
-0.4536255078125,0.026541923828125,0.9292101513671875
-0.461892421875,0.069677822265625,0.9365831494140625
-0.4633512890625,0.04198261474609375,0.8677685009765626
-0.47575166015625,0.028502646484374998,0.885709462890625
-0.46797103515625,0.0711483642578125,0.928964384765625
-0.47186134765625,0.062080021972656246,0.9061080908203125
-0.46481015625,0.018699033203125,0.8557259375
-0.43004048828125,0.02678701416015625,0.911269189453125
-0.46116298828125,0.0584036669921875,0.9193794873046874
-0.47721052734375,0.05570767333984375,0.889641728515625
-0.46286499999999997,0.0008074389648437498,0.8741584326171875
-0.43393080078125,0.03855135009765625,0.9292101513671875
-0.4643238671875,0.053992041015625,0.91569298828125
-0.48037140625,0.03364954345703125,0.8613785693359375
-0.446331171875,0.01600303955078125,0.903404658203125
-0.4434134375,0.0387964404296875,0.9410069482421874
-0.455084375,0.05178622802734375,0.9169218212890625
-0.4361191015625,0.02433611083984375,0.884726396484375
-0.387976484375,0.03315936279296875,0.9277355517578125
-0.4108320703125,0.05031568603515625,0.9454307470703125
-0.4438997265625,0.05031568603515625,0.91765912109375
-0.4040240234375,0.018699033203125,0.926015185546875
-0.3787369921875,0.04712951171875,0.9481341796875
-0.41058892578125,0.0613447509765625,0.9046334912109375
-0.41034578125,0.012816865234374999,0.89406552734375
-0.38311359375,0.01306195556640625,0.9414984814453125
-0.38700390625000003,0.03168882080078125,0.9577190771484375
-0.408400625,0.012816865234374999,0.8893959619140624
-0.36633662109375,0.0044837939453125,0.89013326171875
-0.347128203125,0.02923791748046875,0.944693447265625
-0.3748466796875,0.02580665283203125,0.9481341796875
-0.384086171875,0.008405239257812499,0.9179048876953125
-0.35806970703125,0.0005623486328125002,0.920116787109375
-0.35199109375,0.028257556152343752,0.9316678173828125
-0.39016478515624997,0.01698340087890625,0.8893959619140624
-0.39989056640625,0.00399361328125,0.9115149560546875
-0.36925435546875,0.008405239257812499,0.9380577490234375
-0.397702265625,0.022620478515625,0.9188879541015624
-0.41107521484375,0.013552136230468751,0.9100403564453124
-0.37338781249999997,0.018699033203125,0.9075826904296875
-0.38457246093749997,0.034384814453125,0.9306847509765624
-0.428824765625,0.03217900146484375,0.9481341796875
-0.38700390625000003,0.0309535498046875,0.9311762841796875
-0.3972159765625,0.0280124658203125,0.9287186181640625
-0.39843169921875,0.010611052246093749,0.9075826904296875
-0.3894353515625,0.03561026611328125,0.9154472216796875
-0.424934453125,0.04124734375,0.935845849609375
-0.413263515625,0.0368357177734375,0.9380577490234375
-0.403537734375,0.0309535498046875,0.9238032861328125
-0.42225986328125,0.03757098876953125,0.9097945898437501
-0.41618125,0.0486000537109375,0.9228202197265625
-0.4030514453125,0.04051207275390625,0.92159138671875
-0.43247193359375,0.026051743164062502,0.9385492822265625
-0.40937320312500003,0.02874773681640625,0.9444476806640625
-0.38530189453125,0.0299731884765625,0.9134810888671875
-0.41618125,0.0407571630859375,0.916184521484375
-0.40280830078125,0.030463369140625002,0.932896650390625
-0.4001337109375,0.02874773681640625,0.914709921875
-0.40426716796875,0.02752228515625,0.9324051171875
-0.3894353515625,0.0231106591796875,0.9188879541015624
-0.39745912109375,0.0280124658203125,0.9115149560546875
-0.3962433984375,0.04051207275390625,0.917167587890625
-0.39940427734375,0.0309535498046875,0.9193794873046874
-0.40086314453125,0.030708459472656248,0.924049052734375
-0.40475345703125,0.02286556884765625,0.9284728515625
-0.38676076171875,0.0319339111328125,0.9095488232421876
-0.38773333984375,0.03119864013671875,0.9331424169921875
-0.3952708203125,0.03413972412109375,0.9247863525390625
-0.40062,0.0294830078125,0.9311762841796875
-0.39405509765625,0.0329142724609375,0.948625712890625
-0.38724705078125,0.0294830078125,0.9311762841796875
-0.38870591796875,0.03217900146484375,0.912252255859375
-0.39867484375,0.03806116943359375,0.926015185546875
-0.39940427734375,0.0289928271484375,0.9297016845703125
-0.389921640625,0.032424091796875,0.947642646484375
-0.39016478515624997,0.03757098876953125,0.9127437890625
-0.39113736328125,0.03904153076171875,0.9007012255859375
-0.3884627734375,0.030708459472656248,0.9262609521484375
-0.40645546875,0.0294830078125,0.888658662109375
-0.43247193359375,0.00766996826171875,0.9513291455078126
-0.386031328125,0.034384814453125,0.9936010009765625
-0.389921640625,0.05178622802734375,0.9641090087890625
-0.38432931640625,0.01575794921875,0.92355751953125
-0.377278125,0.033404453125,0.9306847509765624
-0.41399294921875,0.018699033203125,0.8859552294921875
-0.40815748046875,0.011346323242187501,0.9284728515625
-0.38481560546875,0.0338946337890625,0.9009469921875
-0.3942982421875,0.026296833496093748,0.8844806298828125
-0.41204779296875,0.03561026611328125,0.916184521484375
-0.428824765625,0.030463369140625002,0.9041419580078125
-0.42274615234375,0.021640117187500002,0.9582106103515625
-0.419098984375,0.0387964404296875,0.974185439453125
-0.40280830078125,0.03315936279296875,0.9395323486328125
-0.40378087890625003,0.04541387939453125,0.9636174755859375
-0.40669861328125,0.03021827880859375,0.9665666748046875
-0.391866796875,0.018699033203125,0.9685328076171875
-0.39648654296875,0.013552136230468751,0.943710380859375
-0.40037685546875,0.0152677685546875,0.9011927587890625
-0.3787369921875,0.02580665283203125,0.86457353515625
-0.4059691796875,0.0250713818359375,0.885709462890625
-0.39113736328125,0.02360083984375,0.89209939453125
-0.40864376953125,0.020659755859375,0.9129895556640625
-0.4147223828125,0.026051743164062502,0.8992266259765624
-0.39259623046875003,0.03708080810546875,0.897506259765625
-0.419098984375,0.017718671875,0.906353857421875
-0.41982841796875,0.01894412353515625,0.9242948193359375
-0.41642439453125,0.015022678222656249,0.93928658203125
-0.4088869140625,0.0182088525390625,0.9419900146484375
-0.3923530859375,0.024091020507812498,0.93535431640625
-0.3913805078125,0.0319339111328125,0.929947451171875
-0.387976484375,0.02874773681640625,0.93928658203125
-0.39162365234375,0.02531647216796875,0.935845849609375
-0.39745912109375,0.021885207519531248,0.9134810888671875
-0.39308251953125,0.03806116943359375,0.904387724609375
-0.40037685546875,0.04051207275390625,0.9056165576171875
-0.40378087890625003,0.022620478515625,0.9183964208984375
-0.40767119140625,0.03512008544921875,0.9311762841796875
-0.40937320312500003,0.0103659619140625,0.9228202197265625
-0.3967296875,0.0182088525390625,0.921099853515625
-0.39478453125,0.0255615625,0.9247863525390625
-0.38189787109375,0.0358553564453125,0.8889044287109376
-0.4059691796875,0.021885207519531248,0.92650671875
-0.38967849609375,0.05472731201171875,0.946168046875
-0.41302037109375,0.0397768017578125,0.9191337207031249
-0.3811684375,0.05105095703125,0.9301932177734376
-0.39600025390625,0.0221302978515625,0.9166760546875
-0.41593810546875,0.04100225341796875,0.91765912109375
-0.39818855468750003,0.03266918212890625,0.9360916162109375
-0.41593810546875,0.03512008544921875,0.946168046875
-0.380195859375,0.03757098876953125,0.9218371533203125
-0.39502767578125,0.01575794921875,0.9070911572265625
-0.3797095703125,0.03512008544921875,0.924049052734375
-0.43101306640625,0.01208159423828125,0.9242948193359375
-0.38043900390625,0.05521749267578125,0.9287186181640625
-0.4137498046875,0.0010525292968750002,0.9169218212890625
-0.38238416015625,0.04712951171875,0.9179048876953125
-0.42517759765625,0.00570924560546875,0.9144641552734375
-0.39697283203125,0.042227705078125,0.9282270849609375
-0.41253408203124997,0.02041466552734375,0.9316678173828125
-0.39843169921875,0.03413972412109375,0.933879716796875
-0.39843169921875,0.021640117187500002,0.9284728515625
-0.4001337109375,0.0201695751953125,0.9095488232421876
-0.3884627734375,0.0387964404296875,0.9186421875
-0.41010263671875,0.00987578125,0.9311762841796875
-0.38773333984375,0.05325677001953125,0.93437125
-0.41302037109375,0.02237538818359375,0.9120064892578125
-0.38821962890625,0.04394333740234375,0.9159387548828125
-0.4088869140625,0.01575794921875,0.9097945898437501
-0.39867484375,0.0348749951171875,0.908319990234375
-0.40645546875,0.03217900146484375,0.92748978515625
-0.41618125,0.02752228515625,0.9292101513671875
-0.389921640625,0.03413972412109375,0.9272440185546875
-0.40426716796875,0.03315936279296875,0.9186421875
-0.405482890625,0.03757098876953125,0.933879716796875
-0.401592578125,0.02678701416015625,0.9257694189453125
-0.40475345703125,0.0417375244140625,0.93338818359375
-0.3913805078125,0.0123266845703125,0.9186421875
-0.3855450390625,0.04100225341796875,0.9193794873046874
-0.38967849609375,0.0221302978515625,0.909303056640625
-0.40815748046875,0.0427178857421875,0.9056165576171875
-0.39308251953125,0.0289928271484375,0.9282270849609375
-0.4108320703125,0.0289928271484375,0.927981318359375
-0.387976484375,0.03315936279296875,0.93437125
-0.4030514453125,0.03119864013671875,0.9097945898437501
-0.4108320703125,0.0294830078125,0.9242948193359375
-0.40426716796875,0.04394333740234375,0.9206083203125
-0.403537734375,0.032424091796875,0.9159387548828125
-0.40572603515625,0.013552136230468751,0.93142205078125
-0.37363095703125,0.03928662109375,0.9402696484374999
-0.392839375,0.0495804150390625,0.9331424169921875
-0.4118046484375,0.0172284912109375,0.90586232421875
-0.38335673828125,0.03928662109375,0.9375662158203125
-0.39259623046875003,0.0564429443359375,0.9380577490234375
-0.41399294921875,0.0182088525390625,0.916184521484375
-0.39843169921875,0.01600303955078125,0.899472392578125
-0.38481560546875,0.04639424072265625,0.9419900146484375
-0.424934453125,0.0451687890625,0.92355751953125
-0.41739697265625,0.02678701416015625,0.90782845703125
-0.39162365234375,0.0123266845703125,0.93437125
-0.39016478515624997,0.030708459472656248,0.9208540869140625
-0.415208671875,0.024581201171875,0.8992266259765624
-0.40256515625,0.019434304199218752,0.910286123046875
-0.39113736328125,0.022620478515625,0.9442019140625
-0.40086314453125,0.0397768017578125,0.9267524853515625
-0.4045103125,0.01894412353515625,0.9191337207031249
-0.40086314453125,0.01159141357421875,0.91077765625
-0.377278125,0.040266982421875,0.9193794873046874
-0.4156949609375,0.02923791748046875,0.903404658203125
-0.42469130859375,0.02286556884765625,0.9120064892578125
-0.40062,0.022620478515625,0.9414984814453125
-0.392839375,0.02923791748046875,0.9196252539062499
-0.40134943359374997,0.026051743164062502,0.9110234228515625
-0.38578818359375,0.02776737548828125,0.905370791015625
-0.39454138671875,0.03168882080078125,0.93437125
-0.40183572265625,0.0338946337890625,0.9213456201171875
-0.40256515625,0.02335574951171875,0.90782845703125
-0.39502767578125,0.0137972265625,0.92552365234375
-0.392839375,0.0338946337890625,0.9400238818359374
-0.407428046875,0.04590406005859375,0.9292101513671875
-0.401592578125,0.02923791748046875,0.915201455078125
-0.4001337109375,0.02678701416015625,0.93338818359375
-0.39697283203125,0.02972809814453125,0.9390408154296875
-0.40621232421875,0.0299731884765625,0.9115149560546875
-0.39089421875,0.0231106591796875,0.914218388671875
-0.3855450390625,0.03659062744140625,0.9439561474609375
-0.40426716796875,0.03561026611328125,0.9360916162109375
-0.415208671875,0.01453249755859375,0.933879716796875
-0.38578818359375,0.01404231689453125,0.9262609521484375
-0.391866796875,0.03855135009765625,0.926998251953125
-0.40134943359374997,0.03855135009765625,0.9223286865234375
-0.40669861328125,0.0201695751953125,0.9206083203125
-0.38578818359375,0.03364954345703125,0.9439561474609375
-0.40280830078125,0.03536517578125,0.9292101513671875
-0.4011062890625,0.02090484619140625,0.8879213623046875
-0.40134943359374997,0.03266918212890625,0.9198710205078124
-0.39478453125,0.0397768017578125,0.9203625537109374
-0.4122909375,0.0280124658203125,0.93535431640625
-0.4030514453125,0.0299731884765625,0.929947451171875
-0.3962433984375,0.030708459472656248,0.9262609521484375
-0.39818855468750003,0.03928662109375,0.921099853515625
-0.4001337109375,0.03119864013671875,0.908319990234375
-0.40815748046875,0.0319339111328125,0.926015185546875
-0.40523974609375,0.0373258984375,0.948625712890625
-0.38724705078125,0.02580665283203125,0.9297016845703125
-0.39697283203125,0.0201695751953125,0.9186421875
-0.40426716796875,0.0280124658203125,0.930930517578125
-0.393811953125,0.03659062744140625,0.9257694189453125
-0.41399294921875,0.02874773681640625,0.9277355517578125
-0.40815748046875,0.02874773681640625,0.9301932177734376
-0.403537734375,0.020659755859375,0.923065986328125
-0.41253408203124997,0.03806116943359375,0.922574453125
-0.39478453125,0.02678701416015625,0.93142205078125
-0.4001337109375,0.0358553564453125,0.9196252539062499
-0.407428046875,0.0338946337890625,0.9166760546875
-0.40669861328125,0.038306259765625,0.928964384765625
-0.40572603515625,0.030708459472656248,0.9341254833984375
-0.403537734375,0.026541923828125,0.92650671875
-0.38627447265625,0.028502646484374998,0.9169218212890625
-0.407428046875,0.0280124658203125,0.9166760546875
-0.3991611328125,0.030708459472656248,0.9267524853515625
-0.40062,0.028502646484374998,0.9223286865234375
-0.39989056640625,0.01453249755859375,0.926015185546875
-0.3952708203125,0.02090484619140625,0.9247863525390625
-0.40134943359374997,0.032424091796875,0.9203625537109374
-0.40523974609375,0.02727719482421875,0.9233117529296875
-0.40815748046875,0.030463369140625002,0.9272440185546875
-0.40864376953125,0.02972809814453125,0.9292101513671875
-0.40523974609375,0.02531647216796875,0.9252778857421875
-0.3972159765625,0.024581201171875,0.915201455078125
-0.39648654296875,0.03168882080078125,0.9120064892578125
-0.3967296875,0.03168882080078125,0.9186421875
-0.39891798828125,0.02678701416015625,0.93437125
-0.39843169921875,0.02580665283203125,0.926998251953125
-0.40134943359374997,0.03561026611328125,0.9242948193359375
-0.39575710937499997,0.03168882080078125,0.920116787109375
-0.40037685546875,0.0348749951171875,0.90782845703125
-0.40475345703125,0.02752228515625,0.91765912109375
-0.4108320703125,0.011346323242187501,0.9218371533203125
-0.41034578125,0.0270321044921875,0.931913583984375
-0.40134943359374997,0.028502646484374998,0.944693447265625
