ax,ay,az
-0.32864921874999997,-0.31192782470703123,0.937811982421875
-0.4468174609375,-0.2337440087890625,1.0228472265625
-0.45970412109375003,-0.289134423828125,0.9537868115234375
-0.3797095703125,-0.29085005615234377,0.9183964208984375
-0.377278125,-0.33447613525390624,0.903404658203125
-0.3578265625,-0.32540779296875,1.060695283203125
-0.45338236328125,-0.40604251220703125,1.066593681640625
-0.36779548828124997,-0.296977314453125,1.024321826171875
-0.42177357421875,-0.37074950439453125,0.9061080908203125
-0.36779548828124997,-0.28153662353515624,0.9493630126953125
-0.37752126953125,-0.375406220703125,0.9056165576171875
-0.3699837890625,-0.32761360595703126,0.9048792578125
-0.28074974609375003,-0.338152490234375,0.983033037109375
-0.397702265625,-0.4102090478515625,0.976151572265625
-0.36390517578125,-0.2788406298828125,0.9837703369140625
-0.39016478515624997,-0.30383984375,0.962388642578125
-0.426879609375,-0.26977228759765626,0.947642646484375
-0.40280830078125,-0.26830174560546877,0.9877026025390625
-0.41350666015625,-0.2631548486328125,1.03169482421875
-0.35174794921875,-0.1886473876953125,1.0545511181640626
-0.41836955078125,-0.21952876953125,0.97271083984375
-0.3408064453125,-0.2170778662109375,0.902421591796875
-0.35709712890625,-0.324427431640625,0.8223016796875
-0.31527626953125,-0.26634102294921874,0.8672769677734375
-0.39259623046875003,-0.3374172192382813,0.9065996240234375
-0.3967296875,-0.33325068359375,0.9002096923828125
-0.33278267578125,-0.3638869750976563,0.786419755859375
-0.358799140625,-0.363641884765625,0.78002982421875
-0.36244630859375,-0.39182727294921876,0.7891231884765625
-0.38432931640625,-0.3626615234375,0.769707626953125
-0.34980279296875,-0.32075107666015623,0.7709364599609375
-0.31576255859375,-0.34084848388671873,0.74267330078125
-0.308225078125,-0.3021242114257813,0.780521357421875
-0.34202216796875,-0.2298225634765625,0.864082001953125
-0.32548833984375003,-0.22075422119140625,0.8658023681640625
-0.38092529296875,-0.242077080078125,0.8677685009765626
-0.39989056640625,-0.1857063037109375,0.872929599609375
-0.35588140625,-0.1798241357421875,0.839996875
-0.3729015234375,-0.1406096826171875,0.9144641552734375
-0.35028908203125,-0.1817848583984375,0.9105318896484375
-0.43538966796875,-0.22859711181640624,0.868014267578125
-0.31770771484375,-0.14502130859375,0.868997333984375
-0.417153828125,-0.24085162841796875,0.8065726171875
-0.3767918359375,-0.13350206298828124,0.9532952783203125
-0.43636224609375,-0.2160975048828125,0.9267524853515625
-0.4507077734375,-0.22957747314453125,0.8970147265625
-0.34810078125,-0.177373232421875,0.8889044287109376
-0.3067662109375,-0.22859711181640624,0.9100403564453124
-0.40645546875,-0.17761832275390624,0.9596852099609375
-0.417153828125,-0.12663953369140624,1.006626630859375
-0.329621796875,-0.20604880126953126,0.9896687353515625
-0.49374435546875,-0.22663638916015624,0.955507177734375
-0.35952857421875,-0.18791211669921876,0.955507177734375
-0.33035123046875,-0.30359475341796877,0.8930824609375
-0.3826273046875,-0.22345021484375,0.990897568359375
-0.403537734375,-0.3249176123046875,1.0385762890625
-0.36585033203125,-0.2450181640625,1.0648733154296874
-0.41302037109375,-0.22345021484375,1.0412797216796874
-0.42979734375,-0.287173701171875,0.97271083984375
-0.30700935546875,-0.21560732421875,1.023338759765625
-0.42031470703125,-0.311682734375,0.9493630126953125
-0.3515048046875,-0.31633945068359376,0.9483799462890625
-0.3446967578125,-0.2214894921875,0.914709921875
-0.43927998046875,-0.2611941259765625,0.8485987060546875
-0.3578265625,-0.26781156494140623,0.8338527099609375
-0.436605390625,-0.22124440185546876,0.8574463037109374
-0.37898013671874997,-0.21242114990234376,0.893573994140625
-0.4137498046875,-0.25506686767578124,0.9442019140625
-0.4477900390625,-0.2004117236328125,0.9867195361328125
-0.35393625,-0.23300873779296874,0.9193794873046874
-0.3811684375,-0.2464887060546875,0.912252255859375
-0.40621232421875,-0.23398909912109375,0.9754142724609375
-0.37314466796875,-0.2925656884765625,1.00810123046875
-0.38530189453125,-0.2692821069335937,1.0388220556640624
-0.3904079296875,-0.26339993896484376,1.058729150390625
-0.3967296875,-0.2293323828125,1.056271484375
-0.36439146484375,-0.2994282177734375,1.012525029296875
-0.41982841796875,-0.27418391357421873,1.0098215966796875
-0.45046462890625,-0.238155634765625,1.0280083251953125
-0.4419545703125,-0.3288390576171875,0.9896687353515625
-0.44049570312499997,-0.25457668701171876,0.989914501953125
-0.37363095703125,-0.27075264892578127,0.954032578125
-0.40329458984375,-0.33937794189453124,0.9026673583984375
-0.45313921875,-0.19771572998046874,0.8530225048828125
-0.38530189453125,-0.31045728271484374,0.7724110595703125
-0.39794541015625,-0.27614463623046875,0.7606142626953125
-0.35320681640625,-0.2366850927734375,0.7960046533203124
-0.37217208984375,-0.29085005615234377,0.8928366943359375
-0.41545181640625,-0.253841416015625,0.9690243408203125
-0.43393080078125,-0.277370087890625,0.962388642578125
-0.38481560546875,-0.226391298828125,0.910286123046875
-0.4079143359375,-0.2692821069335937,0.9193794873046874
-0.40280830078125,-0.26536066162109373,0.9670582080078125
-0.475508515625,-0.220509130859375,1.0167030615234376
-0.46651216796875,-0.3004085791015625,0.9638632421875
-0.42760904296875,-0.2043331689453125,0.9174133544921875
-0.294608984375,-0.23644000244140626,0.85867513671875
-0.44292714843750003,-0.2082546142578125,0.8903790283203125
-0.3904079296875,-0.23006765380859376,0.850319072265625
-0.39162365234375,-0.20849970458984374,0.8230389794921875
-0.384086171875,-0.16438344482421874,0.8655566015625
-0.40645546875,-0.2582530419921875,0.8930824609375
-0.37338781249999997,-0.22565602783203126,0.928964384765625
-0.4108320703125,-0.27859553955078126,0.9036504248046875
-0.47234763671875,-0.25996867431640625,0.9048792578125
-0.3388612890625,-0.2357047314453125,1.0019570654296874
-0.42615017578125003,-0.28741879150390626,1.0761785791015626
-0.40621232421875,-0.19036302001953126,1.115747001953125
-0.40767119140625,-0.224430576171875,1.05725455078125
-0.455084375,-0.3158492700195312,0.93142205078125
-0.35515197265625,-0.21340151123046874,0.9051250244140625
-0.405482890625,-0.277370087890625,0.9532952783203125
-0.49277177734375,-0.2837424365234375,0.971236240234375
-0.41885583984375,-0.30408493408203124,0.899472392578125
-0.3913805078125,-0.2504101513671875,0.8535140380859375
-0.44414287109375,-0.3386426708984375,0.80165728515625
-0.40694175781249997,-0.30580056640625,0.8141913818359375
-0.3077387890625,-0.311682734375,0.89603166015625
-0.520247109375,-0.35677935546875,0.9169218212890625
-0.3077387890625,-0.328348876953125,0.91372685546875
-0.42955419921875,-0.3504070068359375,0.902421591796875
-0.43879369140625,-0.2955067724609375,1.0034316650390624
-0.3602580078125,-0.3817785693359375,1.01596576171875
-0.30895451171875,-0.312663095703125,1.0353813232421876
-0.4468174609375,-0.22075422119140625,1.0727378466796875
-0.4312562109375,-0.2602137646484375,0.9999909326171875
-0.38967849609375,-0.22418548583984374,0.9075826904296875
-0.39356880859375,-0.24232217041015625,0.9193794873046874
-0.38821962890625,-0.2709977392578125,0.93535431640625
-0.3369161328125,-0.2170778662109375,1.011541962890625
-0.4526529296875,-0.1435507666015625,0.964354775390625
-0.4118046484375,-0.16928525146484374,0.9375662158203125
-0.41496552734375003,-0.16732452880859375,0.908319990234375
-0.36244630859375,-0.18153976806640626,0.9188879541015624
-0.41642439453125,-0.18840229736328126,0.93928658203125
-0.33083751953125,-0.20653898193359374,1.0083469970703125
-0.42080099609375,-0.17810850341796874,1.0270252587890625
-0.43830740234375,-0.2082546142578125,1.027271025390625
-0.33861814453125,-0.196980458984375,1.0678225146484375
-0.44025255859375,-0.2668312036132813,0.9847534033203125
-0.393811953125,-0.23594982177734375,1.0157199951171876
-0.4059691796875,-0.3229568896484375,0.9292101513671875
-0.39478453125,-0.32516270263671876,0.9410069482421874
-0.376305546875,-0.2756544555664063,0.9464138134765625
-0.35977171875,-0.3977094409179687,0.916184521484375
-0.3694975,-0.285212978515625,0.9282270849609375
-0.4215304296875,-0.34133866455078127,0.9169218212890625
-0.3797095703125,-0.36486733642578123,0.9188879541015624
-0.46797103515625,-0.26536066162109373,0.9238032861328125
-0.4030514453125,-0.27418391357421873,0.98450763671875
-0.4059691796875,-0.28496788818359375,0.975168505859375
-0.4195852734375,-0.24771415771484376,0.974185439453125
-0.40232201171875,-0.19379428466796875,0.9542783447265625
-0.44292714843750003,-0.2763897265625,0.9166760546875
-0.44560173828125,-0.1778634130859375,0.925032119140625
-0.40475345703125,-0.22957747314453125,0.784453623046875
-0.31527626953125,-0.23300873779296874,0.7556989306640625
-0.392839375,-0.257762861328125,0.72301197265625
-0.28853037109375,-0.217568046875,0.764792294921875
-0.391866796875,-0.27222319091796876,0.834590009765625
-0.48693630859375,-0.18791211669921876,0.9174133544921875
-0.397702265625,-0.1445311279296875,0.8871840625
-0.35758341796875,-0.1611972705078125,0.947642646484375
-0.4166675390625,-0.087179990234375,0.9872110693359375
-0.35952857421875,-0.191098291015625,1.00613509765625
-0.3028758984375,-0.16242272216796874,1.1005094726562499
-0.407428046875,-0.12811007568359375,1.140323662109375
-0.45168035156249997,-0.10556176513671875,1.1703071875
-0.467727890625,-0.13129625,1.043983154296875
-0.38967849609375,-0.07075893798828126,0.95108337890625
-0.40037685546875,-0.1533543798828125,0.906845390625
-0.4186126953125,-0.11781628173828125,0.8687515673828125
-0.39745912109375,-0.095022880859375,0.824759345703125
-0.44365658203125,-0.159726728515625,0.8144371484375
-0.36828177734375,-0.0847290869140625,0.824759345703125
-0.42031470703125,-0.2023724462890625,0.764792294921875
-0.33326896484375,-0.1626678125,0.8245135791015625
-0.38700390625000003,-0.108747939453125,0.98057537109375
-0.354908828125,-0.24624361572265624,0.9724650732421874
-0.4263933203125,-0.15286419921875,1.091170341796875
-0.40913005859375,-0.1278649853515625,1.0894499755859375
-0.3884627734375,-0.2611941259765625,0.97369390625
-0.41034578125,-0.08497417724609375,1.055779951171875
-0.46116298828125,-0.122472998046875,0.9872110693359375
-0.4302836328125,-0.11757119140625,0.968287041015625
-0.45775896484375,-0.11193411376953125,1.01203349609375
-0.45873154296875,-0.17810850341796874,0.9282270849609375
-0.34931650390625,-0.1749223291015625,0.82328474609375
-0.35855599609375,-0.201882265625,0.6962234130859375
-0.31527626953125,-0.1798241357421875,0.665502587890625
-0.41982841796875,-0.2555570483398438,0.744147900390625
-0.3437241796875,-0.22957747314453125,0.8279543115234375
-0.343237890625,-0.2058037109375,0.8898874951171875
-0.38919220703125,-0.21879349853515626,0.9881941357421875
-0.446331171875,-0.22222476318359374,1.0614325830078124
-0.452166640625,-0.13448242431640625,1.0179318945312499
-0.41545181640625,-0.118551552734375,0.9326508837890625
-0.37995271484375,-0.134237333984375,0.827708544921875
-0.29922873046875,-0.18202994873046874,0.8105048828125
-0.2912049609375,-0.20972515625,0.90782845703125
-0.3972159765625,-0.13325697265625,1.0179318945312499
-0.47842625,-0.124433720703125,0.999745166015625
-0.35126166015625,-0.1259042626953125,0.97271083984375
-0.45143720703125,-0.057278969726562504,0.959439443359375
-0.3553951171875,-0.0072805419921875,0.974185439453125
-0.366579765625,-0.12369844970703125,0.951574912109375
-0.4828028515625,0.02360083984375,1.0653648486328124
-0.35952857421875,-0.040122646484374996,1.024321826171875
-0.33229638671875,-0.0964934228515625,0.971236240234375
-0.42615017578125003,-0.01978014892578125,0.9638632421875
-0.3748466796875,-0.08399381591796876,0.9134810888671875
-0.3466419140625,-0.1062970361328125,0.9363373828125
-0.42177357421875,-0.03644629150390625,1.012525029296875
-0.42663646484375,-0.01389798095703125,1.1327048974609375
-0.3952708203125,-0.15654055419921875,1.0378389892578126
-0.4273658984375,-0.0788469189453125,0.953541044921875
-0.4088869140625,-0.03987755615234375,0.84491220703125
-0.31576255859375,-0.1901179296875,0.79772501953125
-0.3194097265625,-0.20702916259765625,0.8284458447265625
-0.35855599609375,-0.15457983154296875,1.0373474560546876
-0.36730919921875,-0.24722397705078125,1.168832587890625
-0.514411640625,-0.1298257080078125,1.1703071875
-0.317950859375,-0.14232531494140624,1.039067822265625
-0.33083751953125,-0.1641383544921875,0.931913583984375
-0.4137498046875,-0.1195319140625,0.9788550048828125
-0.4589746875,-0.27442900390625,0.9316678173828125
-0.300444453125,-0.2700173779296875,0.9208540869140625
-0.3991611328125,-0.20555862060546876,0.827708544921875
-0.3680386328125,-0.31780999267578125,0.766758427734375
-0.24768208984375,-0.30261439208984375,0.798216552734375
-0.358799140625,-0.238155634765625,0.9233117529296875
-0.450221484375,-0.261684306640625,1.0088385302734375
-0.37606240234375,-0.18840229736328126,1.0073639306640625
-0.4438997265625,-0.2043331689453125,0.96288017578125
-0.41423609375,-0.05409279541015625,0.9815584374999999
-0.38457246093749997,-0.23938108642578126,0.8559717041015625
-0.32451576171875,-0.03105430419921875,0.859658203125
-0.3767918359375,-0.169530341796875,0.7807671240234375
-0.3573402734375,-0.08546435791015625,0.782487490234375
-0.290718671875,-0.07811164794921875,0.8569547705078124
-0.366579765625,-0.0925719775390625,0.9287186181640625
-0.3602580078125,0.00276816162109375,0.9945840673828125
-0.2970404296875,-0.0523771630859375,0.97271083984375
-0.50954875,-0.07075893798828126,0.9813126708984374
-0.39478453125,0.04345315673828125,0.9852449365234375
-0.3106565234375,-0.05605351806640625,0.8967689599609375
-0.299471875,0.05178622802734375,0.9857364697265625
-0.35466568359375,0.03315936279296875,1.1014925390624999
-0.496905234375,-0.047965537109375,1.0427543212890624
-0.35612455078125,0.06453092529296875,1.047915419921875
-0.356853984375,0.0231106591796875,0.9223286865234375
-0.4643238671875,-0.06585713134765625,0.87440419921875
-0.2746711328125,-0.01879978759765625,0.916184521484375
-0.34299474609375,-0.044534272460937496,0.8112421826171875
-0.392839375,-0.029338671875,0.7515208984375
-0.36755234375,-0.13056097900390626,0.7436563671875001
-0.3242726171875,-0.059484782714843754,0.7846993896484376
-0.4234755859375,-0.0680629443359375,0.8751414990234375
-0.4127772265625,-0.023456503906250002,0.91372685546875
-0.302389609375,-0.11757119140625,0.8849721630859375
-0.55744822265625,-0.0621807763671875,0.9577190771484375
-0.39016478515624997,-0.0366913818359375,1.0117877294921875
-0.346155625,-0.12516899169921875,0.8559717041015625
-0.4497351953125,-0.0317895751953125,0.7960046533203124
-0.300444453125,-0.15212892822265625,0.7851909228515626
-0.29752671875000003,-0.0592396923828125,0.871946533203125
-0.5000661132812501,-0.1062970361328125,0.8756330322265625
-0.37119951171875,-0.11928682373046876,0.8780906982421874
-0.44025255859375,-0.1337471533203125,0.9159387548828125
-0.41010263671875,-0.16928525146484374,0.8166490478515624
-0.3213548828125,-0.0808076416015625,0.8736668994140625
-0.48353228515625,-0.13889405029296875,0.86260740234375
-0.43344451171875,-0.1474722119140625,0.8775991650390624
-0.33861814453125,-0.03129939453125,0.94715111328125
-0.477453671875,-0.065612041015625,0.8948028271484375
-0.31284482421875,-0.12124754638671875,0.9395323486328125
-0.2566784375,-0.029338671875,1.0221099267578124
-0.44560173828125,-0.04723026611328125,1.032186357421875
-0.26640421875,0.0868341455078125,1.11623853515625
-0.4589746875,0.01575794921875,1.021372626953125
-0.5411575390625,-0.0719843896484375,0.9992536328125
-0.456056953125,0.055462583007812497,1.0899415087890625
-0.34104958984375,-0.00801581298828125,0.9134810888671875
-0.36390517578125,0.009140510253906251,0.9257694189453125
-0.3894353515625,-0.06977857666015624,0.8825144970703125
-0.3884627734375,-0.010221625976562499,0.8844806298828125
-0.38700390625000003,0.0358553564453125,0.8778449316406249
-0.26372962890625,-0.01046671630859375,0.8773533984374999
-0.32840607421875,-0.08840544189453126,0.8707177001953125
-0.3427516015625,0.07482471923828125,0.910286123046875
-0.470645625,-0.04085791748046875,0.833606943359375
-0.25205869140625,0.02433611083984375,0.8166490478515624
-0.3116291015625,-0.01438816162109375,0.885709462890625
-0.4370916796875,-0.0180645166015625,0.9798380712890625
-0.37557611328125,0.05497240234375,1.0582376171875
-0.35588140625,-0.008996174316406251,0.9282270849609375
-0.40037685546875,0.0495804150390625,0.951574912109375
-0.30020130859375,0.057913486328125,1.0464408203125
-0.3641483203125,-0.0072805419921875,0.93732044921875
-0.32281375,0.07090327392578125,0.8918536279296875
-0.22531279296875,-0.01487834228515625,0.9016842919921875
-0.41691068359375,-0.085219267578125,0.819844013671875
-0.1540714453125,0.04394333740234375,0.9591936767578125
-0.38092529296875,-0.13203152099609375,0.98647376953125
-0.27977716796875,-0.0180645166015625,1.1422897949218749
-0.3884627734375,-0.0053198193359375,1.1533492919921875
-0.415208671875,-0.083258544921875,0.9953213671875
-0.2411171875,0.01453249755859375,0.8982435595703124
-0.442440859375,-0.0317895751953125,0.93338818359375
-0.31381740234375,0.11501953369140624,1.007609697265625
-0.321841171875,-0.040122646484374996,1.028745625
-0.3884627734375,0.15692998046875,1.158510390625
-0.41302037109375,0.0995788427734375,1.06806828125
-0.31041337890625,0.0799716162109375,1.0678225146484375
-0.34737134765625,0.049090234375,1.047915419921875
-0.40913005859375,-0.07075893798828126,0.999745166015625
-0.4127772265625,0.0883046875,0.998762099609375
-0.4390368359375,0.00276816162109375,0.9223286865234375
-0.3855450390625,-0.03987755615234375,0.974185439453125
-0.5664445703125,0.08364797119140625,1.00220283203125
-0.46481015625,0.02972809814453125,0.89209939453125
-0.3349709765625,-0.1415900439453125,0.8372934423828124
-0.477453671875,-0.0180645166015625,0.8692431005859375
-0.35904228515625003,-0.012427438964843749,0.7751144921875
-0.24938410156250002,-0.18521612304687501,0.7758517919921875
-0.43830740234375,0.028257556152343752,0.9149556884765625
-0.44171142578125,0.033404453125,0.94911724609375
-0.33229638671875,-0.120512275390625,0.9542783447265625
-0.518301953125,0.010856142578125,0.9759058056640625
-0.382141015625,0.0069346972656249995,1.0235845263671874
-0.4565432421875,0.048109873046875,0.991880634765625
-0.42906791015625,0.05570767333984375,0.9139726220703125
-0.2955815625,-0.06144550537109375,0.8834975634765625
-0.49957982421875,-0.0121823486328125,0.83114927734375
-0.2561921484375,-0.030319033203124998,0.8058353173828126
-0.35904228515625003,-0.16193254150390626,0.7345630029296875
-0.3291355078125,-0.08227818359375,0.8923451611328125
-0.28609892578125,0.06502110595703126,0.9953213671875
-0.5878412890625,-0.03693647216796875,0.843929140625
-0.2921775390625,0.053992041015625,0.8176321142578125
-0.27783201171875,0.1201664306640625,0.8048522509765625
-0.47818310546875,0.0495804150390625,0.840488408203125
-0.19029998046875,0.0593840283203125,0.9756600390625
-0.28464005859375,-0.010221625976562499,1.082322744140625
-0.5392123828125,0.077520712890625,1.2098756103515624
-0.370470078125,0.05031568603515625,1.128526865234375
-0.52316484375,0.015022678222656249,0.9528037451171875
-0.42128728515625,0.075559990234375,0.85277673828125
-0.27613,-0.006790361328125,0.7188339404296875
-0.3072525,0.033404453125,0.6092220361328125
-0.31041337890625,0.0574233056640625,0.60307787109375
-0.191515703125,-0.0249270458984375,0.6165950341796875
-0.2260422265625,0.11109808837890625,0.7286646044921875
-0.3787369921875,0.12090170166015625,0.95796484375
-0.491069765625,0.17580193603515626,1.0894499755859375
-0.48110083984375,0.21403602783203124,1.1194335009765626
-0.4351465234375,0.2240847314453125,1.097068740234375
-0.41982841796875,0.030708459472656248,1.1287726318359375
-0.34785763671875003,-0.12712971435546874,1.130492998046875
-0.28998923828125,-0.01683906494140625,1.03562708984375
-0.35661083984374997,0.03119864013671875,1.003677431640625
-0.3291355078125,-0.07958218994140626,1.0363643896484376
-0.34834392578125,-0.0788469189453125,1.103950205078125
-0.38141158203125003,-0.0729647509765625,1.01596576171875
-0.424934453125,-0.09379742919921875,0.87047193359375
-0.3408064453125,-0.0817880029296875,0.810996416015625
-0.3057936328125,-0.0092412646484375,0.7746229589843749
-0.393811953125,0.010856142578125,0.8761245654296875
-0.42615017578125003,0.1152646240234375,1.0835515771484374
-0.44511544921875,0.11967625,1.211104443359375
-0.386031328125,0.10202974609375,1.19291771484375
-0.3500459375,0.03217900146484375,1.1390948291015626
-0.30846822265625,0.130460224609375,1.1803836181640626
-0.3116291015625,0.1466361865234375,1.186527783203125
-0.35199109375,0.12188206298828125,1.1995534130859375
-0.37654869140625,0.0936966748046875,1.12017080078125
-0.33132380859375,0.00816014892578125,0.9867195361328125
-0.31381740234375,0.0417375244140625,1.0629071826171874
-0.40256515625,-0.01683906494140625,1.1427813281249999
-0.47769681640625,-0.057278969726562504,1.0464408203125
-0.39089421875,-0.01928996826171875,0.954524111328125
-0.26275705078125,0.10987263671875,0.9002096923828125
-0.44900576171875,-0.00409436767578125,0.817877880859375
-0.214857578125,-0.00948635498046875,0.9080742236328125
-0.1589343359375,-0.06487677001953125,1.0383305224609374
-0.32548833984375003,-0.046004814453125,1.1061621044921874
-0.2255559375,-0.0719843896484375,0.9609140429687499
-0.3242726171875,-0.130315888671875,0.7817501904296875
-0.34396732421875,0.05497240234375,0.7556989306640625
-0.29582470703125,0.0294830078125,0.68368931640625
-0.3495596484375,0.1338914892578125,0.7711822265625
-0.37119951171875,0.15864561279296874,0.8520394384765625
-0.327676640625,0.16893940673828126,0.80165728515625
-0.36925435546875,0.18462518798828126,0.8397511083984375
-0.43149935546875,0.18854663330078125,0.93535431640625
-0.31819400390625,0.24344686767578125,0.9385492822265625
-0.146777109375,0.1878113623046875,1.0953483740234375
-0.20099833984375,-0.00507472900390625,1.077407412109375
-0.33861814453125,0.11403917236328125,1.0624156494140624
-0.42663646484375,-0.01193725830078125,1.1010010058593749
-0.47429279296875,0.1054610107421875,1.1012467724609376
-0.48596373046875,0.122617333984375,0.94715111328125
-0.31235853515625,-0.034240478515625,0.8893959619140624
-0.35855599609375,0.04884514404296875,0.89996392578125
-0.45824525390625,-0.0411030078125,0.809030283203125
-0.3563676953125,-0.17026561279296876,0.863098935546875
-0.26907880859375,-0.1513936572265625,0.823776279296875
-0.21801845703125,0.00865032958984375,0.7699533935546875
-0.11638404296875,-0.0268877685546875,0.908319990234375
-0.269321953125,0.03168882080078125,1.0346440234375
-0.4667553125,0.1309504052734375,1.1010010058593749
-0.49423064453125,0.09394176513671874,1.056271484375
-0.4108320703125,0.079481435546875,1.0245675927734375
-0.39551396484375,0.152028173828125,1.1073909375
-0.4302836328125,-0.046740085449218746,1.079865078125
-0.36828177734375,-0.03644629150390625,0.8903790283203125
-0.38481560546875,-0.0641414990234375,0.62077306640625
-0.288773515625,-0.1131595654296875,0.4199817529296875
-0.1637972265625,-0.0945327001953125,0.4094137890625
-0.21850474609375,-0.00997653564453125,0.5526957177734375
-0.29144810546875,0.0672269189453125,0.7011387451171875
-0.315033125,0.0035034326171875,1.0174403613281249
-0.4477900390625,0.05570767333984375,1.23224037109375
-0.50833302734375,0.126538779296875,1.2157740087890625
-0.323786328125,0.17678229736328124,1.003677431640625
-0.42055785156250003,0.11354899169921875,0.81148794921875
-0.31576255859375,0.16673359375,0.7276815380859375
-0.32402947265625,0.15129290283203126,0.780521357421875
-0.444386015625,0.122617333984375,0.8643277685546875
-0.41836955078125,0.07482471923828125,0.985982236328125
-0.30895451171875,0.22972180908203124,1.091661875
-0.33253953125,0.17286085205078125,1.1562984912109375
-0.40475345703125,0.197124794921875,1.2378930029296875
-0.4487626171875,0.2172222021484375,1.1744852197265625
-0.452166640625,0.12727405029296876,1.0751955126953125
-0.4701593359375,-0.03448556884765625,1.033169423828125
-0.22336763671875,-0.0023787353515625003,0.911269189453125
-0.244034921875,-0.0435539111328125,0.842454541015625
-0.34542619140624997,-0.10997339111328125,0.878827998046875
-0.35344996093750003,-0.060710234375,1.0658563818359374
-0.40134943359374997,-0.02737794921875,1.1612138232421876
-0.415208671875,-0.069533486328125,1.300071953125
-0.43004048828125,0.013552136230468751,1.3649543359375
-0.42809533203125,-0.08889562255859375,1.1204165673828126
-0.362689453125,-0.046004814453125,0.910286123046875
-0.3339983984375,-0.11879664306640625,0.651248125
-0.22774423828125,-0.1376685986328125,0.51263576171875
-0.06580998046875,-0.12958061767578125,0.565229814453125
-0.22190876953125,-0.08497417724609375,0.7384952685546875
-0.37800755859375,0.08903995849609375,0.872929599609375
-0.38141158203125003,0.03315936279296875,0.9621428759765625
-0.2824517578125,0.0995788427734375,1.1548238916015625
-0.3369161328125,0.2329079833984375,1.3806833984375
-0.3281629296875,0.33707137451171876,1.5485419873046875
-0.53751037109375,0.277514423828125,1.5500165869140625
-0.57349576171875,0.0956573974609375,1.2142994091796875
-0.33861814453125,0.0417375244140625,0.95894791015625
-0.3072525,0.01012087158203125,0.747097099609375
-0.23844259765625,-0.0229663232421875,0.5600687158203125
-0.04878986328125,0.0221302978515625,0.5605602490234375
-0.20926525390625,0.04982550537109375,0.7709364599609375
-0.3573402734375,0.127519140625,0.9677955078125
-0.405482890625,0.23952542236328125,1.2863090234375
-0.50492900390625,0.22334946044921875,1.563042216796875
-0.50103869140625,0.22089855712890624,1.4703882080078126
-0.45873154296875,0.11649007568359375,1.27746142578125
-0.35661083984374997,0.07629526123046874,1.1631799560546874
-0.249870390625,-0.08546435791015625,1.1194335009765626
-0.28609892578125,-0.0523771630859375,1.025304892578125
-0.19419029296875,-0.1376685986328125,1.04152548828125
-0.27831830078124997,-0.13938423095703126,1.0776531787109376
-0.41788326171875,-0.029338671875,1.043000087890625
-0.3106565234375,-0.053847705078125,0.9501003125
-0.34883021484375,-0.083258544921875,0.8058353173828126
-0.32062544921875,-0.03546593017578125,0.7286646044921875
-0.2007551953125,-0.02762303955078125,0.676316318359375
-0.26567478515625,-0.03914228515625,0.702859111328125
-0.37363095703125,0.0740894482421875,0.8377849755859375
-0.31041337890625,0.0003172583007812497,0.9026673583984375
-0.27491427734375,0.00399361328125,0.9488714794921875
-0.2591098828125,0.05178622802734375,0.852285205078125
-0.1813036328125,0.09198104248046875,0.782487490234375
-0.24573693359375,0.0711483642578125,0.73480876953125
-0.2649453515625,0.01012087158203125,0.65419732421875
-0.25838044921875,0.053992041015625,0.6249510986328125
-0.24136033203125,0.0829127001953125,0.7397241015625
-0.32548833984375003,0.132420947265625,0.9075826904296875
-0.391866796875,0.2044775048828125,0.8790737646484375
-0.214857578125,0.216732021484375,0.8132083154296875
-0.28464005859375,0.2451625,1.08871267578125
-0.304334765625,0.2882983984375,1.3116229833984374
-0.23528171875,0.21967310546875,1.3661831689453126
-0.448276328125,0.20325205322265624,1.2757410595703125
-0.3631757421875,-0.030073942871093752,0.9218371533203125
-0.21266927734375,-0.06046514404296875,0.8023945849609375
-0.29776986328125,0.05178622802734375,0.8662939013671875
-0.345183046875,-0.0425735498046875,0.9385492822265625
-0.39162365234375,0.0848734228515625,1.0228472265625
-0.417153828125,0.1093824560546875,0.8810398974609375
-0.21023783203125002,0.1314405859375,0.91569298828125
-0.286828359375,-0.0474753564453125,0.9704989404296875
-0.27831830078124997,0.03462990478515625,1.15752732421875
-0.36098744140625,0.0201695751953125,1.035135556640625
-0.30992708984375,0.03364954345703125,0.7783094580078125
-0.3349709765625,-0.01781942626953125,0.71121517578125
-0.2386857421875,-0.09085634521484375,0.8343442431640625
-0.34226531250000003,-0.04821062744140625,1.042017021484375
-0.3894353515625,-0.00654527099609375,1.0697886474609375
-0.3359435546875,-0.0151234326171875,1.0857634765625
-0.31308796875,-0.048945898437499996,0.9065996240234375
-0.28658521484375,0.103010107421875,0.869980400390625
-0.302389609375,0.22947671875,0.95894791015625
-0.42955419921875,-0.04477936279296875,0.98942296875
-0.2386857421875,0.11698025634765626,1.0009739990234374
-0.42517759765625,0.055952763671875,0.8618701025390625
-0.35272052734375,-0.02860340087890625,0.78396208984375
-0.32281375,-0.01561361328125,0.6087305029296874
-0.34032015625,-0.02321141357421875,0.4902710009765625
-0.14507509765624998,0.05962911865234375,0.44455841308593746
-0.06751199218750001,0.10962754638671875,0.6335529296875
-0.22190876953125,0.17874302001953124,0.996795966796875
-0.32111173828125,0.17825283935546876,1.25976623046875
-0.4487626171875,0.279475146484375,1.586635810546875
-0.6457096875,0.15815543212890626,1.6768321533203125
-0.56182482421875,0.10668646240234375,1.4121415234375
-0.31697828125,0.104970830078125,0.9818042041015624
-0.27248283203125,0.00987578125,0.6728755859375
-0.15091056640625,-0.11340465576171875,0.636993662109375
-0.0286088671875,-0.1513936572265625,0.6893419482421875
-0.11322316406249999,-0.11928682373046876,0.846386806640625
-0.40475345703125,0.03953171142578125,0.9906518017578125
-0.55258533203125,0.05913893798828125,1.0850261767578124
-0.4973915234375,0.069677822265625,1.0275167919921875
-0.214857578125,0.08854977783203125,1.111323203125
-0.37581925781250003,0.09418685546875,1.20962984375
-0.32986494140625,0.00276816162109375,1.119679267578125
-0.2260422265625,0.021640117187500002,0.7807671240234375
-0.1268392578125,-0.06830803466796875,0.6964691796875
-0.29436583984375,-0.06659240234375,0.7203085400390625
-0.2873146484375,-0.134237333984375,0.781504423828125
-0.2099946875,0.0608545703125,0.973202373046875
-0.323786328125,0.0917359521484375,0.952557978515625
-0.20245720703125,0.07457962890625,0.958456376953125
-0.257651015625,0.1711452197265625,1.190460048828125
-0.24695265625,0.16011615478515626,1.3027753857421875
-0.52389427734375,0.24295668701171874,1.3160467822265625
-0.32694720703125,0.11894097900390625,1.2364184033203125
-0.20415921875,-0.00311400634765625,0.9980247998046875
-0.26956509765625,0.22531018310546874,0.8967689599609375
-0.18981369140625,-0.0817880029296875,0.87931953125
-0.23309341796875,0.11256863037109376,1.1703071875
-0.3631757421875,0.0574233056640625,1.37576806640625
-0.479398828125,-0.13301188232421876,1.213562109375
-0.41739697265625,0.181439013671875,0.9075826904296875
-0.280992890625,-0.00581,0.6854096826171875
0.0433619140625,-0.05115171142578125,0.6374851953125
-0.10082279296875,0.1760470263671875,0.9311762841796875
-0.10301109375,0.0103659619140625,1.186527783203125
-0.053409609375,-0.01953505859375,1.426395986328125
-0.557205078125,0.1721255810546875,1.4526930126953124
-0.44219771484375,0.00963069091796875,1.1548238916015625
-0.23552486328125,-0.114630107421875,1.098051806640625
-0.3826273046875,0.07384435791015626,1.1336879638671875
-0.3106565234375,0.00816014892578125,0.92748978515625
-0.22336763671875,-0.0018885546875000003,0.7276815380859375
-0.1754681640625,0.00865032958984375,0.6392055615234375
-0.18008791015625,0.00178780029296875,0.622247666015625
-0.08331638671875,-0.0009081933593750001,0.741690234375
-0.0752926171875,-0.046249904785156254,0.87440419921875
-0.17084841796875,0.17923320068359375,0.9503460791015625
-0.25740787109375,0.15031254150390624,1.010558896484375
-0.27053767578125,0.1270289599609375,1.1051790380859374
-0.4507077734375,0.24001560302734376,1.1010010058593749
-0.32986494140625,0.226535634765625,0.926998251953125
-0.4361191015625,0.140263837890625,0.8756330322265625
-0.2411171875,0.12678386962890625,0.9424815478515625
-0.3048210546875,0.06551128662109375,0.91176072265625
-0.28366748046875,0.00717978759765625,0.8301662109375
-0.13923962890625,0.14345001220703124,0.791335087890625
-0.113709453125,0.1123235400390625,0.762826162109375
-0.0879361328125,0.1260485986328125,0.9813126708984374
-0.2571647265625,0.12923477294921876,1.3381657763671875
-0.35272052734375,0.16550814208984374,1.353649072265625
-0.494960078125,0.07237381591796875,1.035135556640625
-0.38432931640625,0.04835496337890625,0.8259881787109375
-0.1706052734375,-0.087179990234375,0.6711552197265624
-0.22093619140625,-0.01389798095703125,0.7276815380859375
-0.28196546875,-0.0239466845703125,0.87440419921875
-0.2338228515625,-0.09771887451171875,0.86359046875
-0.035173769531249996,0.00791505859375,0.8377849755859375
-0.10665826171875001,-0.09232688720703125,0.85867513671875
-0.19710802734375,0.03168882080078125,1.151137392578125
-0.31478998046875,0.07482471923828125,1.32071634765625
-0.3203823046875,0.0133070458984375,1.2784444921875
-0.36341888671875,0.1446754638671875,1.0712632470703125
-0.25838044921875,0.00276816162109375,0.775606025390625
-0.17814275390625,0.0878145068359375,0.7291561376953125
-0.27783201171875,0.171635400390625,0.8301662109375
-0.36147373046875,0.03217900146484375,0.9115149560546875
-0.3019033203125,0.1005592041015625,0.9061080908203125
-0.21412814453125,0.13732275390625,0.819844013671875
-0.1579617578125,0.0319339111328125,0.7227662060546876
-0.15334201171875,0.1476165478515625,0.8387680419921875
-0.32451576171875,0.07065818359375,0.8977520263671875
-0.206104375,0.08903995849609375,0.9965502001953125
-0.341292734375,0.1471263671875,1.0174403613281249
-0.21607330078125,0.08511851318359374,1.0727378466796875
-0.31965287109375,0.10913736572265625,1.1911973486328125
-0.27734572265625,0.16550814208984374,1.247477900390625
-0.2912049609375,0.20080114990234374,1.2516559326171874
-0.29242068359375,0.03928662109375,1.1951296142578125
-0.27515742187500003,0.00865032958984375,1.0973145068359376
-0.21972046875,0.00791505859375,1.0638902490234374
-0.2299325390625,-0.07443529296875,0.990897568359375
-0.236254296875,-0.0411030078125,0.871455
-0.10665826171875001,-0.0038492773437499997,0.8544971044921875
-0.23552486328125,-0.0533575244140625,0.924049052734375
-0.2873146484375,-0.012427438964843749,1.14573052734375
-0.259596171875,-0.00507472900390625,1.2037314453125
-0.3544225390625,-0.01095689697265625,1.154578125
-0.33132380859375,0.08511851318359374,0.993355234375
-0.23260712890625002,-0.03154448486328125,0.8107506494140625
-0.105928828125,-0.08227818359375,0.7198170068359375
-0.2454937890625,-0.03301502685546875,0.8544971044921875
-0.28561263671875,0.14688127685546876,0.8820229638671875
-0.24914095703125,0.05472731201171875,0.7345630029296875
-0.11322316406249999,0.061834931640625,0.667468720703125
-0.08623412109375,0.09688284912109375,0.7498005322265625
-0.20683380859375,0.14443037353515625,0.8852179296875
-0.21461443359375,0.20766367919921874,1.0511103857421875
-0.3500459375,0.13560712158203125,1.1277895654296874
-0.30117388671875,0.19933060791015625,1.1228742333984374
-0.162338359375,0.12923477294921876,1.103458671875
-0.166228671875,0.03536517578125,1.1091113037109375
-0.33642984375,0.1897720849609375,1.260749296875
-0.358799140625,0.00570924560546875,1.2560797314453125
-0.32013916015625,0.1025199267578125,1.084288876953125
-0.28658521484375,0.05080586669921875,0.94125271484375
-0.17084841796875,-0.05115171142578125,0.8262339453125
-0.2620276171875,0.0829127001953125,0.7802755908203125
-0.13729447265625,0.03659062744140625,0.8490902392578125
-0.2211793359375,-0.0651218603515625,0.9414984814453125
-0.29193439453125003,0.13609730224609376,0.964354775390625
-0.23819945312500002,0.06355056396484375,0.8992266259765624
-0.2445212109375,0.10766682373046875,1.0358728564453126
-0.2411171875,0.1329111279296875,1.13786599609375
-0.24306234375,0.057668395996093746,1.0683140478515625
-0.29582470703125,-0.0631611376953125,0.9228202197265625
-0.1944334375,0.06453092529296875,0.9606682763671874
-0.16160892578125,0.0319339111328125,0.9677955078125
-0.31819400390625,-0.0425735498046875,1.0486527197265625
-0.3612305859375,0.1574201611328125,1.0860092431640624
-0.23163455078125,-0.01046671630859375,0.9604225097656249
-0.2805066015625,0.09345158447265625,0.9287186181640625
-0.27151025390625,0.00178780029296875,0.841471474609375
-0.28026345703125,0.05031568603515625,0.87243806640625
-0.27102396484375,0.111833359375,0.8210728466796875
-0.29339326171875,-0.013652890625,0.748080166015625
-0.3748466796875,0.11550971435546875,0.800182685546875
-0.304334765625,0.14295983154296876,0.8461410400390625
-0.25594900390624997,0.04933532470703125,0.832623876953125
-0.33983386718749997,0.16060633544921876,0.9326508837890625
-0.361716875,0.17727247802734375,1.01596576171875
-0.32475890625,0.0770305322265625,0.9739396728515625
-0.34396732421875,0.1819291943359375,0.9257694189453125
-0.2688356640625,0.08364797119140625,0.8712092333984375
-0.30214646484375,0.05227640869140625,0.8446664404296875
-0.27248283203125,0.11011772705078125,0.961897109375
-0.35344996093750003,0.018699033203125,0.954524111328125
-0.23747001953125,0.096147578125,0.997779033203125
-0.34104958984375,0.11011772705078125,1.0503730859375
-0.2989855859375,0.06698182861328125,1.009084296875
-0.30117388671875,-0.00262382568359375,0.8368019091796874
-0.22701480468750002,0.073599267578125,0.8903790283203125
-0.164283515625,-0.01683906494140625,0.8159117480468749
-0.26713365234374997,0.04149243408203125,0.949608779296875
-0.27734572265625,0.06502110595703126,1.0953483740234375
-0.28196546875,0.03266918212890625,1.127543798828125
-0.284883203125,0.10202974609375,1.048406953125
-0.24476435546875,0.061834931640625,0.991880634765625
-0.13340416015625,0.12139188232421876,1.0309575244140625
-0.32646091796875,-0.00703545166015625,1.0444746875
-0.1871391015625,0.09982393310546875,1.1054248046875
-0.26081189453125,0.0373258984375,0.9193794873046874
-0.24184662109375,0.057913486328125,0.96484630859375
-0.18640966796875,0.04198261474609375,0.9508376123046876
-0.335457265625,0.02752228515625,0.9405154150390624
-0.33424154296874997,0.0887948681640625,0.9537868115234375
-0.20488865234375,0.0946770361328125,1.0063808642578125
-0.2649453515625,0.21991819580078126,1.08871267578125
-0.3631757421875,-0.05360261474609375,0.979100771484375
-0.2299325390625,0.1731059423828125,1.1228742333984374
-0.39697283203125,0.21403602783203124,1.049881552734375
-0.3164919921875,-0.0072805419921875,0.992863701171875
-0.27929087890625,0.177517568359375,1.1005094726562499
-0.384086171875,0.13315621826171875,1.1027213720703124
-0.23260712890625002,-0.022476142578125,1.075441279296875
-0.393811953125,0.07825598388671876,1.0058893310546875
-0.34226531250000003,0.05521749267578125,0.956490244140625
-0.3690112109375,-0.01095689697265625,0.8726838330078125
-0.30166017578125,0.097127939453125,0.922082919921875
-0.39745912109375,-0.0759058349609375,0.9400238818359374
-0.35466568359375,0.0035034326171875,0.99630443359375
-0.3281629296875,0.11207844970703125,1.0614325830078124
-0.36633662109375,0.021885207519531248,0.9397781152343749
-0.26761994140625,0.1084020947265625,0.9906518017578125
-0.31989601562500003,-0.07026875732421875,0.943710380859375
-0.26859251953125,0.0280124658203125,0.9783634716796875
-0.29776986328125,-0.0028689160156250004,0.8301662109375
-0.29290697265625,-0.032279755859375,0.786419755859375
-0.277102578125,0.016738310546875,0.8908705615234375
-0.30311904296875003,0.03364954345703125,0.96681244140625
-0.3495596484375,0.00472888427734375,0.9513291455078126
-0.38530189453125,0.08903995849609375,0.980083837890625
-0.282938046875,0.05913893798828125,0.89013326171875
-0.2333365625,-0.01046671630859375,0.902913125
-0.36147373046875,0.12947986328125,1.02972869140625
-0.28853037109375,0.08266760986328126,0.984999169921875
-0.18154677734375,0.10472573974609375,0.902913125
-0.3446967578125,0.106931552734375,0.8751414990234375
-0.20732009765625,0.0711483642578125,0.9881941357421875
-0.30117388671875,0.0819323388671875,1.048898486328125
-0.366579765625,0.08070688720703124,1.0697886474609375
-0.27515742187500003,0.03953171142578125,1.008592763671875
-0.33521412109375,0.111833359375,1.1376202294921876
-0.41034578125,0.05864875732421875,1.087729609375
-0.1579617578125,0.01453249755859375,1.054796884765625
-0.3271903515625,0.12776423095703124,1.133442197265625
-0.29290697265625,0.0015427099609375003,1.0997721728515626
-0.2488978125,0.1093824560546875,1.1317218310546875
-0.46456701171875,0.10717664306640624,1.1213996337890624
-0.1890842578125,-0.0190448779296875,1.120662333984375
-0.3865176171875,0.07286399658203124,1.0619241162109374
-0.26859251953125,-0.0298288525390625,1.0516019189453125
-0.3067662109375,0.01992448486328125,1.0385762890625
-0.2523018359375,-0.00850599365234375,1.024813359375
-0.397702265625,-0.05458297607421875,0.902421591796875
-0.2600824609375,0.065756376953125,0.8648193017578125
-0.1881116796875,-0.02419177490234375,0.863098935546875
-0.3267040625,-0.022476142578125,0.9454307470703125
-0.3602580078125,0.148106728515625,1.108865537109375
-0.31308796875,-0.04306373046875,1.001711298828125
-0.41302037109375,-0.01193725830078125,0.8977520263671875
-0.28658521484375,0.06453092529296875,0.915201455078125
-0.23892888671875,-0.05458297607421875,0.8495817724609375
-0.33083751953125,0.08805959716796875,0.85277673828125
-0.28464005859375,0.0358553564453125,0.840488408203125
-0.2800203125,-0.012672529296875,0.8304119775390625
-0.19029998046875,0.09443194580078125,0.8884128955078126
-0.36755234375,0.03413972412109375,0.7842078564453125
-0.1735230078125,0.00178780029296875,0.7950215869140624
-0.3612305859375,0.11796061767578125,0.918150654296875
-0.29679728515625,0.06011929931640625,1.0058893310546875
-0.23309341796875,0.0765403515625,0.8736668994140625
-0.41423609375,0.0750698095703125,0.97664310546875
-0.19321771484375,0.20227169189453126,1.111323203125
-0.34737134765625,0.0010525292968750002,0.98450763671875
-0.3500459375,0.1471263671875,0.9837703369140625
-0.251815546875,0.02286556884765625,0.82131861328125
-0.1399690625,0.00865032958984375,0.8628531689453125
-0.3271903515625,0.085363603515625,0.9478884130859375
-0.245980078125,0.0255615625,0.9397781152343749
-0.35855599609375,0.14197947021484375,0.9596852099609375
-0.25205869140625,0.065756376953125,0.9095488232421876
-0.11492517578125,0.17482157470703125,0.98057537109375
-0.392839375,0.09884357177734375,1.044966220703125
-0.2834243359375,0.0137972265625,1.0943653076171875
-0.26178447265625,0.1956542529296875,1.133442197265625
-0.35393625,-0.0602200537109375,1.072000546875
-0.32694720703125,0.03757098876953125,1.048898486328125
-0.236254296875,0.02531647216796875,1.0068723974609375
-0.47186134765625,-0.0641414990234375,0.9520664453125
-0.24938410156250002,0.13340130859375,0.9370746826171875
-0.20732009765625,-0.01487834228515625,0.7149016748046875
-0.22968939453125,-0.029338671875,0.696960712890625
-0.25643529296875,0.1000690234375,0.8156659814453124
-0.24136033203125,-0.06095532470703125,0.853268271484375
-0.33983386718749997,-0.048945898437499996,0.8726838330078125
-0.137051328125,0.03659062744140625,1.028254091796875
-0.45678638671875,-0.183255400390625,0.891116328125
-0.30895451171875,0.020659755859375,0.8952943603515625
-0.2299325390625,0.09296140380859375,0.7955131201171874
-0.34202216796875,-0.0964934228515625,0.765283828125
-0.22142248046875002,0.10521592041015625,0.9655836083984375
-0.35320681640625,-0.03644629150390625,0.9080742236328125
-0.2445212109375,0.106931552734375,0.9783634716796875
-0.24038775390625,0.19246807861328125,0.917167587890625
-0.23917203125,0.11698025634765626,0.9572275439453125
-0.32257060546875,0.11698025634765626,1.0982975732421876
-0.3816547265625,0.22432982177734376,1.18112091796875
-0.439523125,0.146146005859375,1.0039231982421875
-0.255705859375,0.114774443359375,0.9105318896484375
-0.32062544921875,0.17237067138671874,0.9186421875
-0.30749564453125,0.04639424072265625,0.8844806298828125
-0.2746711328125,0.0182088525390625,0.920116787109375
-0.34810078125,0.16550814208984374,0.977626171875
-0.18884111328125,0.10987263671875,1.028254091796875
-0.35612455078125,0.05521749267578125,1.150645859375
-0.38627447265625,0.17923320068359375,1.221426640625
-0.269321953125,0.2083989501953125,1.1764513525390625
-0.30409162109375,0.21599675048828126,1.04349162109375
-0.3349709765625,0.02678701416015625,1.0427543212890624
-0.3349709765625,0.05570767333984375,1.0582376171875
-0.3826273046875,-0.0945327001953125,0.9970417333984375
-0.279047734375,-0.060710234375,0.8269712451171874
-0.22093619140625,-0.08644471923828125,0.71711357421875
-0.144831953125,-0.17075579345703126,0.7935469873046875
-0.3515048046875,-0.1553151025390625,0.9616513427734374
-0.39162365234375,0.0059543359375,0.9704989404296875
-0.19321771484375,-0.11095375244140625,0.94911724609375
-0.29047552734375,-0.034240478515625,0.965829375
-0.42517759765625,-0.049926259765625,0.926015185546875
-0.08428896484375001,-0.01046671630859375,0.9532952783203125
-0.3524773828125,0.030463369140625002,0.921099853515625
-0.33229638671875,-0.05213207275390625,0.964354775390625
-0.1569891796875,0.03806116943359375,0.8918536279296875
-0.28658521484375,-0.0043394580078125,0.7837163232421875
-0.2824517578125,0.0721287255859375,0.8687515673828125
-0.3155194140625,0.16256705810546876,0.89209939453125
-0.34591248046875,0.110852998046875,0.9297016845703125
-0.39405509765625,0.23119235107421876,0.9990078662109375
-0.35612455078125,0.24295668701171874,0.978117705078125
-0.16744439453124998,0.1838899169921875,0.9768888720703125
-0.310170234375,0.259867919921875,1.0791277783203126
-0.370470078125,0.1211467919921875,1.1538408251953125
-0.1949197265625,0.05374695068359375,1.1975872802734375
-0.50444271484375,0.067717099609375,1.08478041015625
-0.28585578125,0.024091020507812498,1.0275167919921875
-0.1725504296875,0.09100068115234375,1.079865078125
-0.4147223828125,-0.05360261474609375,1.2432998681640626
-0.29290697265625,0.0593840283203125,1.2973685205078125
-0.39405509765625,0.04786478271484375,1.076424345703125
-0.29387955078125,-0.12222790771484375,1.0661021484375
-0.29509527343749997,-0.00311400634765625,1.187510849609375
-0.26129818359375,-0.04306373046875,1.17129025390625
-0.18397822265625,-0.069533486328125,1.0968229736328126
-0.42615017578125003,-0.0759058349609375,1.0127707958984375
-0.5071173046875,-0.05115171142578125,0.9690243408203125
-0.33132380859375,-0.15261910888671876,0.9599309765625
-0.50881931640625,-0.01561361328125,0.907336923828125
-0.22190876953125,-0.110708662109375,0.7699533935546875
-0.06678255859375,-0.14575657958984375,0.7043337109375
-0.24768208984375,-0.06242586669921875,0.7905977880859375
-0.24695265625,0.0515411376953125,0.840488408203125
-0.15066742187499998,-0.077376376953125,0.9174133544921875
-0.39308251953125,0.21501638916015625,1.048898486328125
-0.44268400390625,0.28021041748046877,1.2324861376953125
-0.28658521484375,0.0672269189453125,1.1919346484375
-0.43149935546875,0.2211436474609375,1.0599579833984376
-0.26567478515625,0.0686974609375,0.8063268505859374
-0.18446451171875,-0.07958218994140626,0.754961630859375
-0.24622322265625,0.01257177490234375,0.79969115234375
-0.2717533984375,0.0451687890625,0.8783364648437499
-0.23917203125,-0.006790361328125,0.9646005419921875
-0.34007701171875,0.07041309326171875,1.06511908203125
-0.2766162890625,0.06551128662109375,0.996795966796875
-0.19953947265625,-0.0621807763671875,0.9206083203125
-0.2333365625,0.11379408203125,1.0437373876953124
-0.36001486328125,0.17482157470703125,1.0437373876953124
-0.329621796875,0.01159141357421875,1.052830751953125
-0.44462916015625,0.11256863037109376,0.977134638671875
-0.2800203125,0.01404231689453125,0.9405154150390624
-0.1900568359375,-0.048945898437499996,0.9360916162109375
-0.3135742578125,0.0819323388671875,1.0692971142578125
-0.3680386328125,0.01110123291015625,1.1071451708984374
-0.34348103515625,0.083402880859375,0.89209939453125
-0.1375376171875,0.05423713134765625,0.7414444677734375
-0.08234380859375,-0.06242586669921875,0.764792294921875
-0.1997826171875,-0.0210056005859375,0.97664310546875
-0.1851939453125,0.015022678222656249,1.2133163427734375
-0.2104809765625,0.0387964404296875,1.4868545703125
-0.61580291015625,0.08462833251953125,1.518804228515625
-0.4536255078125,0.04296297607421875,1.263206962890625
-0.28172232421875,0.05276658935546875,1.0267794921875
-0.36147373046875,-0.04772044677734375,0.8726838330078125
-0.19662173828125,0.00619942626953125,0.73087650390625
-0.098148203125,-0.036201201171875,0.720554306640625
-0.3033621875,-0.07860182861328124,0.8191067138671875
-0.38432931640625,-0.09477779052734375,0.783470556640625
-0.2406308984375,-0.0055649096679687505,0.6711552197265624
-0.18081734375,-0.0415931884765625,0.617332333984375
-0.13729447265625,0.02580665283203125,0.6224934326171875
-0.18470765625,0.11992134033203125,0.770690693359375
-0.24525064453125,0.09345158447265625,1.048406953125
-0.38505875,0.07923634521484375,1.2442829345703126
-0.38481560546875,0.0633054736328125,1.3062161181640626
-0.28561263671875,0.02237538818359375,1.19291771484375
-0.31235853515625,-0.02125069091796875,0.9759058056640625
-0.2114535546875,0.1211467919921875,0.92650671875
-0.25497642578125,-0.04306373046875,0.863098935546875
-0.33861814453125,-0.00581,1.009575830078125
-0.237226875,0.024581201171875,0.998762099609375
-0.25473328125,-0.05090662109375,0.902421591796875
-0.15528716796875,0.032424091796875,0.7790467578125
-0.143859375,0.0231106591796875,0.673367119140625
-0.12610982421875,0.18045865234375,0.7456225
-0.30141703125,0.09100068115234375,0.9483799462890625
-0.39113736328125,0.1392834765625,1.074458212890625
-0.27807515625,0.17923320068359375,1.0668394482421875
-0.37460353515625,0.1182057080078125,0.977134638671875
-0.298499296875,0.096147578125,0.9213456201171875
-0.33618669921875,0.0574233056640625,0.8569547705078124
-0.18835482421875,0.03806116943359375,0.8053437841796875
-0.242089765625,-0.02860340087890625,0.7645465283203124
-0.138996484375,0.01894412353515625,0.893573994140625
-0.27102396484375,-0.00654527099609375,0.98647376953125
-0.29679728515625,-0.07713128662109375,1.1010010058593749
-0.290718671875,0.03953171142578125,1.1135351025390625
-0.2610550390625,0.0819323388671875,1.0874838427734375
-0.310170234375,0.018699033203125,0.9154472216796875
-0.11079171875,0.0280124658203125,1.0147369287109376
-0.29752671875000003,0.0299731884765625,1.1073909375
-0.42906791015625,-0.02909358154296875,1.156052724609375
-0.31235853515625,0.03168882080078125,1.085271943359375
-0.3038484765625,-0.0210056005859375,0.9815584374999999
-0.2095083984375,0.06257020263671875,1.0216183935546874
-0.316005703125,0.053992041015625,0.9857364697265625
-0.2017277734375,0.063795654296875,0.9906518017578125
-0.30166017578125,0.1564397998046875,0.9547698779296875
-0.21193984375,0.050070595703125,0.8889044287109376
-0.23503857421875,-0.0018885546875000003,0.9124980224609375
-0.21704587890625,-0.010221625976562499,1.0130165625
-0.20051205078125,-0.06683749267578125,1.0304659912109375
-0.30992708984375,-0.0474753564453125,0.965829375
-0.2892598046875,0.0451687890625,1.016948828125
-0.3349709765625,-0.0494360791015625,0.96877857421875
-0.18495080078125,0.06502110595703126,0.9547698779296875
-0.30846822265625,0.03855135009765625,0.933879716796875
-0.23066197265625,-0.01095689697265625,0.8662939013671875
-0.05559791015625,0.09541230712890625,1.0383305224609374
-0.341292734375,0.12531332763671876,1.3047415185546876
-0.2878009375,0.04345315673828125,1.198324580078125
-0.2036729296875,0.0731090869140625,1.0368559228515626
-0.16647181640625,0.0995788427734375,0.947642646484375
-0.2532744140625,-0.0016434643554687498,1.0112961962890625
-0.2416034765625,0.1221271533203125,1.1327048974609375
-0.25084296875,-0.022476142578125,1.1268064990234374
-0.38092529296875,0.013552136230468751,0.9680412744140625
-0.14410251953125,0.087324326171875,0.9174133544921875
-0.25449013671875,-0.02076051025390625,0.942727314453125
-0.28974609375,0.032424091796875,1.06708521484375
-0.23649744140625,0.0711483642578125,1.08674654296875
-0.18227621093750002,0.05889384765625,1.10444173828125
-0.288773515625,-0.0582593310546875,1.074458212890625
-0.17911533203125,0.05619785400390625,1.0786362451171876
-0.17765646484375,-0.01291761962890625,0.9857364697265625
-0.24914095703125,-0.044044091796875,1.0201437939453124
-0.13948277343749999,0.0946770361328125,1.08379734375
-0.1608794921875,-0.00581,0.947642646484375
-0.2630001953125,0.00472888427734375,0.9557529443359375
-0.15236943359375,0.08658905517578125,0.9257694189453125
-0.181789921875,-0.01732924560546875,0.8599039697265625
-0.21655958984375,0.06992291259765625,1.0621698828125
-0.337402421875,0.01600303955078125,1.1037044384765624
-0.19516287109375,0.0378160791015625,1.066593681640625
-0.29874244140625,0.00865032958984375,1.066593681640625
-0.30530734375,0.0348749951171875,0.996795966796875
-0.16914640625,-0.0151234326171875,0.8520394384765625
-0.1866528125,0.06109966064453125,0.8908705615234375
-0.252788125,0.08707923583984375,0.954032578125
-0.3213548828125,-0.03203466552734375,0.9080742236328125
-0.20148462890625,0.0378160791015625,0.929947451171875
-0.2367405859375,0.0368357177734375,0.8778449316406249
-0.172064140625,0.0608545703125,0.91176072265625
-0.28609892578125,-0.01046671630859375,0.9124980224609375
-0.321841171875,0.0760501708984375,0.9813126708984374
-0.22750109375,0.075559990234375,0.9478884130859375
-0.3446967578125,-0.02272123291015625,0.843929140625
-0.19419029296875,0.1211467919921875,0.9655836083984375
-0.26470220703125,-0.00213364501953125,0.8989808593749999
-0.212912421875,0.0922261328125,1.0157199951171876
-0.22482650390625,0.127519140625,1.0284998583984375
-0.23066197265625,0.03757098876953125,1.0004824658203124
-0.2143712890625,0.0868341455078125,1.028745625
-0.247925234375,0.067717099609375,1.00023669921875
-0.2022140625,0.052031318359375,1.02579642578125
-0.43101306640625,-0.02664267822265625,0.9351085498046875
-0.16598552734375,-0.01095689697265625,0.9405154150390624
-0.259596171875,-0.06879821533203125,0.8242678125
-0.26664736328125,-0.1111988427734375,0.88226873046875
-0.20586123046875,-0.0621807763671875,0.95108337890625
-0.26859251953125,-0.0371815625,0.8859552294921875
-0.27272597656249997,-0.10727739746093751,0.80362341796875
-0.14361623046875,0.0711483642578125,0.868014267578125
-0.20148462890625,0.05815857666015625,0.899472392578125
-0.2396583203125,0.12947986328125,1.0471781201171875
-0.2328502734375,0.0495804150390625,1.089204208984375
-0.24719580078125,0.04320806640625,1.12803533203125
-0.32597462890625,0.12433296630859375,1.1159927685546875
-0.2912049609375,-0.00213364501953125,0.9950756005859375
-0.3067662109375,0.0765403515625,0.95894791015625
-0.35758341796875,0.0191892138671875,0.98942296875
-0.268349375,0.01159141357421875,0.969761640625
-0.25059982421875,0.12384278564453124,0.9316678173828125
-0.18592337890625,0.021885207519531248,0.932896650390625
-0.30627992187499997,0.021885207519531248,0.953541044921875
-0.18154677734375,0.0123266845703125,0.99237216796875
-0.1385101953125,-0.045024453125,1.001219765625
-0.2912049609375,-0.040122646484374996,1.0579918505859376
-0.2221519140625,0.0515411376953125,1.13393373046875
-0.30530734375,-0.08007237060546875,0.9559987109375
-0.30895451171875,0.049090234375,0.8476156396484374
-0.2878009375,0.13119549560546875,0.8778449316406249
-0.26713365234374997,0.15864561279296874,0.900455458984375
-0.279047734375,0.00399361328125,0.9719735400390626
-0.23017568359375,0.15692998046875,1.103458671875
-0.2172890234375,-0.04281864013671875,0.9911433349609375
-0.28391062499999997,0.1152646240234375,0.930930517578125
-0.226528515625,0.0309535498046875,0.8210728466796875
-0.23260712890625002,-0.10065995849609374,0.8466325732421875
-0.27783201171875,0.0417375244140625,1.040050888671875
-0.3884627734375,-0.0175743359375,1.0621698828125
-0.12829812499999999,0.01992448486328125,1.189476982421875
-0.267376796875,0.02531647216796875,1.2108586767578124
-0.323786328125,0.04712951171875,1.2280623388671874
-0.25692158203125,-0.01830960693359375,1.001219765625
-0.370470078125,0.11550971435546875,0.8151744482421874
-0.3111428125,0.030708459472656248,0.6964691796875
-0.07942607421875,-0.0327699365234375,0.7488174658203125
-0.08963814453125,0.0897752294921875,0.90193005859375
-0.27637314453125,0.063795654296875,0.8903790283203125
-0.1832487890625,0.08364797119140625,0.9306847509765624
-0.21899103515625,0.038306259765625,0.8928366943359375
-0.2114535546875,0.07850107421875,1.01989802734375
-0.32937865234375,-0.0141430712890625,1.1685868212890624
-0.26664736328125,0.03413972412109375,1.32464861328125
-0.38773333984375,0.12825441162109374,1.1801378515625
-0.3189234375,0.07090327392578125,0.9011927587890625
-0.2104809765625,0.0770305322265625,0.777080625
-0.24136033203125,0.11501953369140624,0.75250396484375
-0.16063634765625,0.0250713818359375,0.77609755859375
-0.00842787109375,-0.03987755615234375,0.89799779296875
-0.2338228515625,0.08903995849609375,1.15949345703125
-0.25084296875,0.1427147412109375,1.2548508984375
-0.2717533984375,0.13732275390625,1.30105501953125
-0.38043900390625,0.114774443359375,1.159984990234375
-0.30992708984375,0.127519140625,1.1997991796875
-0.331566953125,0.14345001220703124,1.08379734375
-0.31430369140625003,0.10423555908203125,0.9351085498046875
-0.2488978125,0.16697868408203126,0.881777197265625
-0.28658521484375,0.0486000537109375,0.9129895556640625
-0.25935302734375,0.00766996826171875,0.935845849609375
-0.190543125,-0.0190448779296875,0.9680412744140625
-0.18835482421875,-0.08301345458984374,0.8736668994140625
-0.1550440234375,-0.0553182470703125,0.802148818359375
-0.2649453515625,-0.08791526123046875,0.8913620947265625
-0.33910443359375,0.052031318359375,1.084288876953125
-0.28172232421875,0.0064445166015625,1.08084814453125
-0.41885583984375,0.12874459228515625,1.048406953125
-0.190543125,0.0985984814453125,1.0265337255859375
-0.21753216796875,-0.0016434643554687498,0.949608779296875
-0.3164919921875,0.0878145068359375,0.9638632421875
-0.11735662109375,0.111833359375,0.9670582080078125
-0.268349375,0.05668803466796875,0.9154472216796875
-0.33618669921875,0.1152646240234375,0.99433830078125
-0.29776986328125,0.03168882080078125,1.033169423828125
-0.27005138671875,0.03462990478515625,0.906353857421875
-0.30457791015625,-0.0055649096679687505,0.8225474462890625
-0.1555303125,0.0505607763671875,0.79772501953125
-0.237226875,0.064776015625,0.814928681640625
-0.2085358203125,0.10423555908203125,0.9397781152343749
-0.273212265625,0.16673359375,1.0307117578125
-0.28318119140625,0.13511694091796875,1.046932353515625
-0.30141703125,0.1392834765625,1.1150097021484375
-0.31333111328125,0.13854820556640626,1.1172216015625
-0.2561921484375,0.16256705810546876,1.0147369287109376
-0.3233000390625,0.14541073486328124,0.9442019140625
-0.32208431640625,0.10570610107421875,0.9670582080078125
-0.25303126953125,0.1113431787109375,0.9582106103515625
-0.22044990234375,0.0191892138671875,0.8928366943359375
-0.23406599609375,0.0593840283203125,0.9454307470703125
-0.24865466796875,-0.038161923828125,0.9002096923828125
-0.27442798828125,-0.0033590966796874996,0.875387265625
-0.25400384765625,0.0358553564453125,0.9520664453125
-0.2620276171875,-0.02174087158203125,0.9749227392578125
-0.28974609375,0.0123266845703125,1.0599579833984376
-0.28512634765625,-0.02419177490234375,1.0395593554687501
-0.2795340234375,-0.040122646484374996,1.06905134765625
-0.218747890625,-0.10360104248046875,1.1484339599609374
-0.269321953125,-0.13105115966796876,1.148188193359375
-0.335457265625,0.05570767333984375,1.1641630224609374
-0.3116291015625,-0.0700236669921875,1.1366371630859375
-0.32646091796875,0.04982550537109375,1.09461107421875
-0.3573402734375,0.0172284912109375,1.1051790380859374
-0.35369310546875,-0.044044091796875,1.005643564453125
-0.17036212890625,0.022620478515625,0.9090572900390625
-0.201241484375,-0.00703545166015625,0.765775361328125
-0.076751484375,0.0152677685546875,0.8023945849609375
-0.177899609375,0.0603643896484375,0.92650671875
-0.35661083984374997,0.013552136230468751,1.03661015625
-0.304334765625,0.03806116943359375,1.083305810546875
-0.3631757421875,0.026296833496093748,1.050864619140625
-0.32864921874999997,-0.0023787353515625003,0.89406552734375
-0.292663828125,-0.008751083984375,0.7534870312499999
-0.23357970703125,-0.0013983740234375002,0.7158847412109375
-0.20440236328125,0.02360083984375,0.6610787890625
-0.14629082031250001,0.0387964404296875,0.6303579638671875
-0.089395,-0.0033590966796874996,0.6922911474609375
-0.20537494140625,0.0250713818359375,0.8200897802734375
-0.31722142578125,0.0922261328125,0.9606682763671874
-0.1710915625,0.14933218017578126,1.1037044384765624
-0.3344846875,0.065756376953125,1.150645859375
-0.377278125,0.15300853515625001,0.9542783447265625
-0.21607330078125,0.2152614794921875,0.8205813134765625
-0.3213548828125,0.13707766357421874,0.8304119775390625
-0.384086171875,0.08119706787109375,0.8250051123046875
-0.12805498046875,0.05962911865234375,0.9808211376953125
-0.31722142578125,-0.04477936279296875,1.0176861279296876
-0.296554140625,0.01257177490234375,0.965337841796875
-0.1764407421875,0.0711483642578125,0.911269189453125
-0.20537494140625,-0.014633251953124999,0.9709904736328125
-0.24136033203125,-0.0317895751953125,1.0678225146484375
-0.22044990234375,-0.0562986083984375,1.1558069580078125
-0.11881548828124999,0.026051743164062502,1.25681703125
-0.35758341796875,0.0623251123046875,1.3003177197265625
-0.26154132812499997,0.03512008544921875,1.1368829296875
-0.3096839453125,-0.0254172265625,0.9341254833984375
-0.3417790234375,-0.0001729223632812504,1.0294829248046875
-0.31284482421875,-0.09575815185546875,1.069542880859375
-0.3267040625,0.06649164794921875,0.90389619140625
-0.1560166015625,0.0093856005859375,0.76626689453125
-0.2513292578125,-0.14379585693359376,0.7729025927734375
-0.28391062499999997,-0.06585713134765625,0.8402426416015625
-0.23941517578125,-0.120512275390625,0.801165751953125
-0.25084296875,-0.14036459228515624,0.678773984375
-0.2488978125,-0.057769150390625,0.5590856494140625
-0.1229489453125,-0.02860340087890625,0.4883048681640625
-0.1710915625,0.02678701416015625,0.6333071630859375
-0.29193439453125003,0.11698025634765626,0.831640810546875
-0.35417939453125,0.12163697265625,0.9577190771484375
-0.299471875,0.0642858349609375,0.976151572265625
-0.1633109375,0.1142842626953125,0.971236240234375
-0.280992890625,0.1515379931640625,1.0228472265625
-0.31235853515625,0.175556845703125,1.12312
-0.1735230078125,0.173596123046875,1.2079094775390624
-0.43490337890624997,0.2635442749023438,1.2605035302734375
-0.41034578125,0.13413657958984376,1.0845346435546874
-0.18835482421875,0.02874773681640625,0.9306847509765624
-0.1064151171875,0.12874459228515625,0.754961630859375
-0.20002576171875,0.05913893798828125,0.634044462890625
-0.1968648828125,-0.0055649096679687505,0.6689433203125
-0.26081189453125,0.14148928955078124,0.9449392138671875
-0.46408072265625,-0.096983603515625,1.048406953125
-0.32646091796875,0.03855135009765625,1.1115689697265625
-0.20026890625,0.08634396484375,1.0592206835937499
-0.2639727734375,-0.05482806640625,0.913235322265625
-0.44292714843750003,0.05325677001953125,0.9660751416015625
-0.296554140625,0.05962911865234375,0.977626171875
-0.22239505859375,0.07629526123046874,0.908319990234375
-0.12173322265625,0.1113431787109375,0.9407611816406249
-0.269321953125,-0.05164189208984375,0.9695158740234375
-0.1686601171875,0.163792509765625,1.097068740234375
-0.27442798828125,0.122617333984375,1.141306728515625
-0.36828177734375,0.01575794921875,1.0604495166015624
-0.22725794921875,-0.071494208984375,1.1533492919921875
-0.33715927734375,-0.0612004150390625,1.286800556640625
-0.4332013671875,0.0162481298828125,1.25780009765625
-0.3524773828125,-0.06928839599609375,1.1272980322265624
-0.4594609765625,-0.0016434643554687498,0.9282270849609375
-0.3344846875,-0.0190448779296875,0.9036504248046875
-0.3408064453125,-0.0055649096679687505,0.99630443359375
-0.2114535546875,0.06355056396484375,1.0363643896484376
-0.220693046875,0.18413500732421875,1.076424345703125
-0.22871681640625,0.06845237060546874,1.0029401318359374
-0.13291787109375,0.11403917236328125,0.974185439453125
-0.1827625,0.08634396484375,1.1120605029296875
-0.3787369921875,0.0544822216796875,1.239613369140625
-0.325731484375,0.13854820556640626,1.40526005859375
-0.37144265625,0.0765403515625,1.4394216162109374
-0.52583943359375,0.009140510253906251,1.3224367138671875
-0.4361191015625,0.10399046875,1.09264494140625
-0.38384302734375,-0.0788469189453125,0.8761245654296875
-0.25108611328125,-0.04379900146484375,0.8380307421875
-0.2386857421875,-0.03987755615234375,0.805098017578125
-0.13802390625,0.049090234375,0.8616243359375
-0.13778076171875,0.03168882080078125,0.9953213671875
-0.24427806640625,0.01649322021484375,1.043000087890625
-0.174981875,0.040266982421875,1.0776531787109376
-0.31235853515625,-0.00311400634765625,1.098051806640625
-0.24476435546875,0.10227483642578125,1.1329506640625
-0.3408064453125,-0.061690595703125004,1.0130165625
-0.29533841796875,0.0012976196289062499,1.0604495166015624
-0.1958923046875,0.05913893798828125,1.072000546875
-0.331566953125,-0.0097314453125,1.166374921875
-0.39502767578125,0.0564429443359375,1.14376439453125
-0.3344846875,0.09688284912109375,1.00220283203125
-0.18543708984375,-0.01683906494140625,0.9400238818359374
-0.20197091796875,0.019679394531249998,1.0071181640625
-0.16647181640625,-0.0016434643554687498,0.9877026025390625
-0.195406015625,-0.083258544921875,0.9282270849609375
-0.337402421875,0.04590406005859375,0.8122252490234375
-0.37265837890625,-0.04183827880859375,0.81345408203125
-0.1735230078125,0.00178780029296875,0.8446664404296875
-0.32402947265625,-0.0327699365234375,0.959439443359375
-0.25254498046875,0.0294830078125,1.0063808642578125
-0.22434021484375,0.03806116943359375,0.9557529443359375
-0.26518849609375,0.14443037353515625,0.9346170166015625
-0.2425760546875,0.0289928271484375,0.86850580078125
-0.1788721875,0.03119864013671875,1.040050888671875
-0.30311904296875003,-0.05801424072265625,1.2310115380859374
-0.374360390625,0.04541387939453125,1.2784444921875
-0.374360390625,0.0985984814453125,1.05233921875
-0.34980279296875,0.06992291259765625,0.8176321142578125
-0.27151025390625,0.15374380615234376,0.714164375
-0.3155194140625,0.081442158203125,0.778555224609375
-0.22531279296875,0.03512008544921875,0.9405154150390624
-0.304334765625,0.022620478515625,1.0555341845703126
-0.2644590625,0.1309504052734375,1.095594140625
-0.23795630859375,-0.037916833496093746,0.945676513671875
-0.30020130859375,-0.01978014892578125,0.783470556640625
-0.103983671875,0.13658748291015624,0.835573076171875
-0.25643529296875,0.0054641552734375,0.7357918359375
-0.368524921875,-0.060710234375,0.76233462890625
-0.17692703125,-0.0533575244140625,0.984999169921875
-0.31089966796875,-0.03644629150390625,1.0511103857421875
-0.38092529296875,0.0358553564453125,0.9677955078125
-0.2610550390625,0.0020328906249999995,0.8525309716796875
-0.263486484375,0.1113431787109375,0.83213234375
-0.20342978515625,0.05080586669921875,0.8972604931640625
-0.263486484375,0.0142874072265625,1.0319405908203125
-0.205131796875,0.097127939453125,1.135408330078125
-0.24476435546875,0.055952763671875,1.05233921875
-0.144831953125,-0.0690433056640625,0.8977520263671875
-0.0889087109375,0.03561026611328125,0.92650671875
-0.3291355078125,0.118695888671875,1.0447204541015624
-0.14702025390625,0.016738310546875,1.242562568359375
-0.4964189453125,0.03904153076171875,1.268613828125
-0.42590703125,0.257907197265625,1.1995534130859375
-0.37995271484375,0.02139502685546875,1.1115689697265625
-0.4020788671875,0.11649007568359375,0.98942296875
-0.2912049609375,0.10399046875,0.8105048828125
-0.20415921875,-0.046004814453125,0.66796025390625
-0.09741876953125,-0.015368522949218751,0.6593584228515625
-0.125380390625,-0.0798272802734375,0.6755790185546875
-0.1813036328125,-0.08693489990234375,0.9031588916015625
-0.2450075,0.02923791748046875,1.03661015625
-0.27029453125,0.0691876416015625,0.9191337207031249
-0.26372962890625,-0.068553125,0.7468513330078125
-0.255705859375,0.036345537109375,0.755944697265625
-0.298499296875,0.1505576318359375,0.8613785693359375
-0.401592578125,-0.0425735498046875,0.907336923828125
-0.26810623046875,0.17090012939453125,0.9886856689453125
-0.25643529296875,0.11845079833984375,1.07494974609375
-0.33083751953125,0.01012087158203125,0.986965302734375
-0.27102396484375,0.13168567626953126,0.8038691845703125
-0.0025924023437500013,0.0255615625,0.718096640625
-0.17036212890625,-0.0151234326171875,0.9095488232421876
-0.31697828125,0.10668646240234375,1.0801108447265624
-0.2416034765625,0.03315936279296875,1.16145958984375
-0.356853984375,0.075559990234375,1.16735798828125
-0.277102578125,0.15962597412109375,1.058729150390625
-0.1710915625,0.0829127001953125,1.0137538623046876
-0.399647421875,0.083402880859375,1.0363643896484376
-0.32864921874999997,0.15668489013671874,1.134425263671875
-0.4147223828125,0.01012087158203125,1.0383305224609374
-0.34299474609375,-0.05752406005859375,1.0112961962890625
-0.26154132812499997,0.00865032958984375,0.953541044921875
-0.25059982421875,0.05227640869140625,0.802148818359375
0.03436556640625,0.00619942626953125,0.8859552294921875
-0.045628984375,-0.02468195556640625,1.1307387646484375
-0.45143720703125,-0.03693647216796875,1.42098912109375
-0.3242726171875,-0.10262068115234375,1.3008092529296875
-0.34834392578125,-0.0028689160156250004,1.085271943359375
-0.335457265625,0.12874459228515625,1.06020375
-0.42128728515625,-0.0945327001953125,1.0771616455078126
-0.3126016796875,0.0623251123046875,0.9695158740234375
-0.329621796875,0.05521749267578125,0.8392595751953125
-0.35077537109375,-0.06830803466796875,0.7778179248046875
-0.11443888671875,0.0255615625,0.76626689453125
-0.2007551953125,0.16697868408203126,0.8525309716796875
-0.419098984375,0.06796218994140625,0.7498005322265625
-0.20926525390625,-0.037916833496093746,0.67779091796875
-0.09352845703125,0.11256863037109376,0.7330884033203124
-0.314060546875,0.0280124658203125,0.8889044287109376
-0.3500459375,0.11501953369140624,1.134425263671875
-0.37946642578125,0.20129133056640625,1.1774344189453125
-0.38238416015625,0.07850107421875,1.119679267578125
-0.26567478515625,0.2133007568359375,0.954032578125
-0.27272597656249997,-0.00850599365234375,0.70924904296875
0.01758859375,0.03119864013671875,0.8505648388671875
-0.36633662109375,0.0731090869140625,1.0592206835937499
-0.4896108984375,0.07580508056640625,1.1840701171874999
-0.2902323828125,-0.044534272460937496,1.0009739990234374
-0.1258666796875,0.030708459472656248,0.7478343994140625
0.03339298828125,-0.0661022216796875,0.7463597998046875
-0.1968648828125,-0.08546435791015625,1.042017021484375
-0.24670951171875,0.057913486328125,1.2054518115234374
-0.38700390625000003,0.03659062744140625,1.3111314501953124
-0.40475345703125,0.10815700439453126,1.31678408203125
-0.29776986328125,0.10472573974609375,1.1646545556640624
-0.24816837890625,-0.02468195556640625,0.9847534033203125
-0.22288134765625,0.13315621826171875,0.9704989404296875
-0.31989601562500003,0.13070531494140625,0.931913583984375
-0.25838044921875,-0.0386521044921875,0.91077765625
-0.15528716796875,-0.03889719482421875,0.9100403564453124
-0.2221519140625,0.02433611083984375,0.93437125
-0.17765646484375,-0.20163717529296876,1.0329236572265625
-0.24233291015625,-0.07124911865234375,1.176697119140625
-0.38189787109375,0.01551285888671875,1.17915478515625
-0.3719289453125,-0.03914228515625,1.0294829248046875
-0.38311359375,-0.02321141357421875,0.8780906982421874
-0.32208431640625,0.0137972265625,0.8299204443359375
-0.22628537109375,-0.044534272460937496,0.7950215869140624
-0.2056180859375,0.008895419921875,0.7807671240234375
-0.24695265625,-0.0415931884765625,0.8559717041015625
-0.19467658203125,-0.040122646484374996,0.985982236328125
-0.2746711328125,0.0201695751953125,1.0614325830078124
-0.29971501953125,0.07065818359375,1.0093300634765625
-0.22871681640625,0.08413815185546875,0.9537868115234375
-0.36390517578125,0.12825441162109374,1.0044147314453125
-0.3233000390625,0.132420947265625,1.0358728564453126
-0.3194097265625,0.0515411376953125,0.9164302880859375
-0.321841171875,0.1525183544921875,0.945676513671875
-0.282938046875,0.1201664306640625,0.956490244140625
-0.2630001953125,0.053992041015625,0.854251337890625
-0.22968939453125,0.02874773681640625,0.7613515625
-0.28391062499999997,0.05570767333984375,0.7306307373046875
-0.20342978515625,0.04345315673828125,0.7534870312499999
-0.20148462890625,0.0319339111328125,0.77019916015625
-0.21121041015625,0.0789912548828125,0.872929599609375
-0.3330258203125,0.01257177490234375,0.995812900390625
-0.26081189453125,0.06355056396484375,1.0619241162109374
-0.23114826171875,0.10178465576171875,1.001219765625
-0.20294349609375,0.05105095703125,1.0368559228515626
-0.22093619140625,0.14639109619140625,1.0975602734375
-0.42274615234375,0.00399361328125,1.015474228515625
-0.29776986328125,0.04737460205078125,1.024321826171875
-0.30652306640625,0.05497240234375,0.8584293701171875
-0.31308796875,-0.02762303955078125,0.769707626953125
-0.16015005859375,-0.0661022216796875,0.743164833984375
-0.12465095703125,-0.09771887451171875,0.83213234375
-0.354908828125,-0.1033559521484375,0.9498545458984375
-0.21121041015625,-0.010221625976562499,1.0149826953125
-0.2065906640625,0.011346323242187501,0.9818042041015624
-0.282938046875,0.12384278564453124,0.9459222802734375
-0.16549923828125,0.0495804150390625,1.034152490234375
-0.35417939453125,0.03512008544921875,1.1449932275390624
-0.35904228515625003,0.120656611328125,1.2253589062499999
-0.358799140625,0.10080429443359375,1.0889584423828125
-0.35977171875,0.0652661962890625,0.948625712890625
-0.21412814453125,0.158890703125,0.9070911572265625
-0.15334201171875,0.03708080810546875,0.8397511083984375
-0.24938410156250002,-0.00262382568359375,0.930438984375
-0.30141703125,0.104970830078125,1.109848603515625
-0.28634207031250003,-0.0298288525390625,1.0174403613281249
-0.360744296875,0.05497240234375,0.9375662158203125
-0.25449013671875,0.16477287109375,0.858183603515625
-0.234309140625,-0.04134809814453125,0.8481071728515625
-0.2941226953125,0.077520712890625,0.9685328076171875
-0.2795340234375,0.032424091796875,0.985982236328125
-0.35272052734375,-0.00311400634765625,0.9365831494140625
-0.20002576171875,0.06600146728515625,0.9174133544921875
-0.2566784375,0.04124734375,0.8923451611328125
-0.29874244140625,0.06011929931640625,0.9965502001953125
-0.2177753125,0.10472573974609375,1.121645400390625
-0.3578265625,0.0137972265625,1.12803533203125
-0.2955815625,0.14050892822265626,1.1086197705078125
-0.21972046875,0.05178622802734375,0.9990078662109375
-0.31868029296875,0.02923791748046875,0.9822957373046874
-0.27929087890625,0.08364797119140625,1.127543798828125
-0.3106565234375,0.02041466552734375,1.0776531787109376
-0.2279873828125,-0.10580685546875,0.9144641552734375
-0.27734572265625,-0.0724745703125,0.86064126953125
-0.220693046875,-0.0170841552734375,0.87931953125
-0.27540056640625,-0.069533486328125,0.9459222802734375
-0.2892598046875,0.03855135009765625,1.0661021484375
-0.27807515625,0.012816865234374999,1.0604495166015624
-0.352963671875,0.01208159423828125,0.99433830078125
-0.20877896484375,0.09933375244140626,1.00220283203125
-0.240144609375,0.08217742919921875,1.0860092431640624
-0.3189234375,0.0544822216796875,1.1302472314453125
-0.38919220703125,0.1015395654296875,1.0869923095703125
-0.27199654296875,0.05497240234375,0.9238032861328125
-0.27613,0.0672269189453125,0.797233486328125
-0.18592337890625,-0.05213207275390625,0.7679872607421875
-0.1258666796875,-0.01561361328125,0.86653966796875
-0.34299474609375,0.10766682373046875,1.099034873046875
-0.40815748046875,0.05178622802734375,1.2113502099609375
-0.347128203125,0.0819323388671875,1.2506728662109374
-0.298499296875,0.16403760009765625,1.2418252685546876
-0.30506419921875,0.032424091796875,1.1592476904296876
-0.361716875,0.0750698095703125,1.1371286962890625
-0.34007701171875,0.0211499365234375,1.039067822265625
-0.286828359375,-0.11389483642578124,0.8795652978515625
-0.2698082421875,-0.0210056005859375,0.810996416015625
-0.21193984375,-0.0602200537109375,0.7758517919921875
-0.19516287109375,-0.08350363525390625,0.757910830078125
-0.28974609375,0.0093856005859375,0.8943112939453125
-0.26324333984375,-0.052867343750000004,1.0501273193359375
-0.37265837890625,0.02531647216796875,1.0653648486328124
-0.2474389453125,-0.00997653564453125,1.09264494140625
-0.28950294921874997,0.055462583007812497,1.21454517578125
-0.39089421875,0.09149086181640625,1.1513831591796875
-0.2411171875,-0.02149578125,1.0565172509765626
-0.23260712890625002,0.0010525292968750002,0.979100771484375
-0.29922873046875,-0.03693647216796875,0.89406552734375
-0.201241484375,-0.07713128662109375,0.928964384765625
-0.21510072265625,0.0255615625,0.9872110693359375
-0.36220316406249997,0.0466393310546875,0.9832788037109375
-0.13972591796875,0.1000690234375,1.0174403613281249
-0.23698373046875,0.05889384765625,1.0186691943359376
-0.23990146484375,0.10717664306640624,1.1120605029296875
-0.288773515625,0.0809519775390625,1.13393373046875
-0.30311904296875003,0.07237381591796875,1.11034013671875
-0.36244630859375,0.1289896826171875,1.0540595849609375
-0.330594375,-0.0254172265625,0.9041419580078125
-0.30020130859375,-0.0082609033203125,0.741690234375
-0.18470765625,-0.0200252392578125,0.60897626953125
-0.1258666796875,-0.0337502978515625,0.69548611328125
-0.25303126953125,0.00423870361328125,0.8871840625
-0.36439146484375,0.0476196923828125,1.1408151953125
-0.2552195703125,0.053992041015625,1.1835785839843749
-0.27613,0.09443194580078125,1.127543798828125
-0.253760703125,0.08634396484375,1.0373474560546876
-0.2056180859375,-0.04428918212890625,0.9717277734375
-0.29533841796875,0.0525214990234375,0.93338818359375
-0.32013916015625,-0.0371815625,0.9009469921875
-0.2805066015625,-0.0857094482421875,0.9292101513671875
-0.3096839453125,0.0037485229492187503,0.9183964208984375
-0.19321771484375,-0.045024453125,0.889641728515625
-0.2882872265625,-0.04772044677734375,0.901438525390625
-0.21364185546875,0.03021827880859375,1.0122792626953125
-0.24622322265625,0.10325519775390625,1.0053977978515625
-0.22823052734375,0.07580508056640625,0.9842618701171875
-0.28172232421875,0.11060790771484375,1.03169482421875
-0.33667298828125003,0.02041466552734375,0.988931435546875
-0.23260712890625002,0.101049384765625,0.8825144970703125
-0.22920310546875,0.0182088525390625,0.7822417236328125
-0.242089765625,-0.01585870361328125,0.7212916064453125
-0.23114826171875,-0.0670825830078125,0.6610787890625
-0.26129818359375,-0.00311400634765625,0.7463597998046875
-0.27734572265625,0.06281529296875,0.89996392578125
-0.24476435546875,0.111833359375,0.9665666748046875
-0.25303126953125,0.0765403515625,0.959439443359375
-0.2328502734375,0.12433296630859375,0.9287186181640625
-0.16160892578125,0.08903995849609375,0.9321593505859375
-0.3369161328125,0.03168882080078125,0.970253173828125
-0.257651015625,0.12727405029296876,0.9749227392578125
-0.2036729296875,-0.0425735498046875,0.9134810888671875
-0.31868029296875,0.0123266845703125,0.8952943603515625
-0.27588685546875,0.04712951171875,0.875387265625
-0.17717017578125,0.021640117187500002,0.9115149560546875
-0.31868029296875,-0.03914228515625,0.967303974609375
-0.27199654296875,0.067717099609375,1.027271025390625
-0.2279873828125,0.0201695751953125,0.961897109375
-0.32062544921875,0.0946770361328125,0.916184521484375
-0.20415921875,0.12874459228515625,0.8879213623046875
-0.280992890625,0.0015427099609375003,0.941744248046875
-0.2250696484375,0.0672269189453125,1.0948568408203125
-0.32159802734375,-0.01830960693359375,1.1558069580078125
-0.24038775390625,0.00717978759765625,1.1041959716796874
-0.3651208984375,0.04786478271484375,0.979100771484375
-0.28391062499999997,0.02090484619140625,0.8812856640625
-0.28172232421875,-0.0016434643554687498,0.8368019091796874
-0.29290697265625,0.09394176513671874,0.854251337890625
-0.24938410156250002,0.09639266845703125,0.864082001953125
-0.23357970703125,-0.03154448486328125,0.8989808593749999
-0.267376796875,0.05619785400390625,0.95796484375
-0.20586123046875,0.10129447509765625,1.0653648486328124
-0.32791978515625,0.01845394287109375,1.058729150390625
-0.34396732421875,0.04933532470703125,0.99433830078125
-0.29631099609375,0.04712951171875,1.03169482421875
-0.2834243359375,-0.0474753564453125,1.0142453955078126
-0.308225078125,-0.02174087158203125,1.0857634765625
-0.33278267578125,0.0417375244140625,1.05528841796875
-0.3709563671875,0.01992448486328125,0.8795652978515625
-0.24695265625,0.104970830078125,0.9090572900390625
-0.19029998046875,0.09639266845703125,0.9400238818359374
-0.23844259765625,-0.046004814453125,1.0766701123046876
-0.4244481640625,0.0809519775390625,1.2442829345703126
-0.28123603515625,0.01796376220703125,1.03759322265625
-0.26032560546875,-0.03105430419921875,1.0786362451171876
-0.40280830078125,0.02090484619140625,0.9677955078125
-0.213885,-0.05801424072265625,0.8004284521484375
-0.20488865234375,0.02237538818359375,0.7901062548828125
-0.31235853515625,-0.02713285888671875,0.87047193359375
-0.31041337890625,-0.0651218603515625,1.021372626953125
-0.32694720703125,0.0280124658203125,1.0464408203125
-0.3602580078125,0.108892275390625,1.0103131298828125
-0.16525609375,0.0765403515625,0.9852449365234375
-0.2464663671875,0.02678701416015625,0.9370746826171875
