ax,ay,az
-0.29363640625,0.062080021972656246,0.84786140625
-0.1900568359375,-0.01144707763671875,0.6699263867187499
-0.11200744140625,0.10129447509765625,0.7753602587890625
-0.3213548828125,0.0436982470703125,1.0071181640625
-0.3164919921875,0.12531332763671876,0.993846767578125
-0.27929087890625,0.016738310546875,0.9931094677734374
-0.263486484375,0.06673673828125,0.9992536328125
-0.32354318359375,0.11649007568359375,0.9444476806640625
-0.3709563671875,0.10423555908203125,0.9572275439453125
-0.321841171875,0.021640117187500002,0.8446664404296875
-0.24865466796875,0.0809519775390625,0.8422087744140625
-0.20002576171875,0.01551285888671875,0.904387724609375
-0.2027003515625,0.05423713134765625,1.0039231982421875
-0.2488978125,0.15864561279296874,1.1238572998046874
-0.33764556640625,0.03364954345703125,1.199307646484375
-0.517329375,0.064776015625,1.1722733203125
-0.44049570312499997,0.1314405859375,0.9503460791015625
-0.24281919921875,-0.0582593310546875,0.709740576171875
-0.15188314453125001,-0.0016434643554687498,0.5644925146484375
0.042875625,-0.07173929931640625,0.6436293603515625
0.018318027343749998,-0.24526325439453125,0.90586232421875
-0.5523421875,-0.07051384765625,1.195375380859375
-0.615559765625,-0.01953505859375,1.1130435693359375
-0.13607875,-0.01144707763671875,1.06708521484375
-0.2328502734375,0.0843832421875,1.0982975732421876
-0.26907880859375,0.02139502685546875,1.0987891064453126
-0.40475345703125,0.08854977783203125,1.16342572265625
-0.31770771484375,0.1025199267578125,1.00416896484375
-0.37800755859375,0.13070531494140625,0.85081060546875
-0.3038484765625,0.0530116796875,0.8284458447265625
-0.21801845703125,0.05374695068359375,0.9166760546875
-0.2192341796875,0.02482629150390625,1.0289913916015625
-0.28391062499999997,-0.0337502978515625,1.0255506591796875
-0.3111428125,-0.011201987304687501,1.032677890625
-0.4049966015625,0.14786163818359374,1.0049062646484375
-0.39818855468750003,0.116735166015625,0.915201455078125
-0.37995271484375,0.110852998046875,0.834590009765625
-0.28585578125,0.07874616455078125,0.7763433251953125
-0.13680818359375,0.036345537109375,0.7099863427734375
-0.19564916015625,0.06624655761718751,0.7881401220703125
-0.23503857421875,0.05325677001953125,0.9842618701171875
-0.4341739453125,0.0378160791015625,1.1194335009765626
-0.31624884765625,0.05521749267578125,1.25583396484375
-0.36293259765625,0.126538779296875,1.243545634765625
-0.31138595703125,0.203006962890625,1.0771616455078126
-0.458002109375,0.03928662109375,0.9513291455078126
-0.321841171875,0.10472573974609375,0.9641090087890625
-0.25084296875,0.07850107421875,0.867522734375
-0.30603677734375,-0.02223105224609375,0.90389619140625
-0.3505322265625,-0.053847705078125,0.848352939453125
-0.3135742578125,0.00399361328125,0.710232109375
-0.1511537109375,0.10717664306640624,0.82721701171875
-0.31576255859375,0.0123266845703125,1.03759322265625
-0.268349375,0.06257020263671875,1.24993556640625
-0.36341888671875,0.097127939453125,1.3295639453125
-0.33813185546875,0.07139345458984375,1.186527783203125
-0.3359435546875,-0.03840701416015625,1.0592206835937499
-0.32475890625,0.075559990234375,1.1091113037109375
-0.39600025390625,-0.01781942626953125,0.8852179296875
-0.28707150390625,0.012816865234374999,0.7144101416015625
-0.18592337890625,-0.0631611376953125,0.602586337890625
-0.24962724609375,-0.1033559521484375,0.6178238671875
-0.17911533203125,-0.03301502685546875,0.7321053369140624
-0.335457265625,-0.01193725830078125,0.8348357763671875
-0.3967296875,0.11403917236328125,0.9685328076171875
-0.29776986328125,0.0025230712890624996,1.1125520361328125
-0.37071322265625,0.13732275390625,1.2666476953124999
-0.39356880859375,0.2005560595703125,1.1445016943359374
-0.2367405859375,0.00766996826171875,1.152120458984375
-0.30020130859375,0.0789912548828125,1.1351625634765625
-0.38092529296875,-0.07811164794921875,0.9818042041015624
-0.25084296875,-0.03448556884765625,0.8490902392578125
-0.189570546875,-0.03693647216796875,0.7547158642578125
-0.290718671875,-0.0798272802734375,0.8289373779296875
-0.31624884765625,0.00399361328125,1.00023669921875
-0.42420501953125,0.0010525292968750002,1.0407881884765624
-0.3446967578125,0.0799716162109375,1.037101689453125
-0.3641483203125,-0.06585713134765625,0.9614055761718749
-0.32986494140625,0.03953171142578125,0.970253173828125
-0.33472783203125,0.01012087158203125,0.97271083984375
-0.329621796875,-0.012427438964843749,0.9994993994140625
-0.2542469921875,0.08609887451171874,0.9614055761718749
-0.2411171875,-0.046249904785156254,0.954032578125
-0.38043900390625,0.013552136230468751,1.0348897900390626
-0.29776986328125,-0.11757119140625,0.899472392578125
-0.1414279296875,-0.0170841552734375,0.8712092333984375
-0.36098744140625,-0.04698517578125,0.8431918408203125
-0.28415376953125,-0.14673694091796874,0.797233486328125
-0.17473873046875,-0.02909358154296875,0.701876044921875
-0.24768208984375,-0.07370002197265625,0.7846993896484376
-0.25157240234375,-0.03129939453125,0.984016103515625
-0.3164919921875,0.08119706787109375,1.138357529296875
-0.448276328125,0.053992041015625,1.2273250390625
-0.30409162109375,0.0780108935546875,1.182103984375
-0.30141703125,0.09590248779296875,1.14671359375
-0.386031328125,0.06624655761718751,1.0781447119140626
-0.41034578125,0.01992448486328125,0.9537868115234375
-0.28950294921874997,0.0564429443359375,0.8186151806640625
-0.20415921875,-0.02517213623046875,0.700892978515625
-0.312115390625,-0.1273748046875,0.7456225
-0.33375525390625,-0.024436865234375,0.8171405810546875
-0.34421046875,0.0137972265625,0.787402822265625
-0.2338228515625,-0.03840701416015625,0.8697346337890625
-0.19564916015625,-0.029338671875,1.0982975732421876
-0.4526529296875,0.011346323242187501,1.2762325927734375
-0.50881931640625,-0.008751083984375,1.174730986328125
-0.2552195703125,-0.10213050048828125,0.97369390625
-0.3874901953125,-0.07615092529296875,0.8891501953125
-0.330594375,-0.19232374267578126,1.0186691943359376
-0.32159802734375,-0.07713128662109375,1.0747039794921875
-0.2912049609375,-0.165608896484375,1.02579642578125
-0.40232201171875,-0.075415654296875,0.9795923046875
-0.25692158203125,-0.120512275390625,0.887675595703125
-0.37265837890625,-0.16046199951171874,0.9186421875
-0.38700390625000003,0.014777587890624999,0.973202373046875
-0.30603677734375,-0.05874951171875,0.8078014501953125
-0.32548833984375003,-0.01978014892578125,0.8825144970703125
-0.32840607421875,0.05497240234375,0.9572275439453125
-0.3281629296875,-0.071494208984375,0.9717277734375
-0.36633662109375,-0.037916833496093746,1.0609410498046874
-0.3573402734375,-0.02027032958984375,1.0250591259765625
-0.43441708984375,-0.10409122314453124,0.8333611767578125
-0.222638203125,-0.0327699365234375,0.8864467626953125
-0.251815546875,-0.19134338134765624,0.7443936669921875
-0.33278267578125,-0.06144550537109375,0.778555224609375
-0.23357970703125,-0.0837487255859375,0.788385888671875
-0.35515197265625,-0.1700205224609375,0.71711357421875
-0.2143712890625,0.00399361328125,0.870963466796875
-0.374360390625,-0.1043363134765625,1.0235845263671874
-0.4341739453125,-0.0161037939453125,1.088221142578125
-0.24184662109375,0.073599267578125,1.0756870458984376
-0.3033621875,0.00717978759765625,1.06315294921875
-0.29631099609375,-0.09918941650390625,1.0570087841796876
-0.41058892578125,-0.0504164404296875,1.0270252587890625
-0.26761994140625,-0.11340465576171875,0.9754142724609375
-0.3865176171875,-0.155805283203125,0.92945591796875
-0.34348103515625,-0.04772044677734375,1.0712632470703125
-0.33715927734375,-0.0817880029296875,1.0132623291015626
-0.3641483203125,-0.17467723876953126,0.9400238818359374
-0.25789416015625,-0.02272123291015625,0.94715111328125
-0.3281629296875,-0.18301031005859375,0.9085657568359375
-0.2834243359375,-0.18791211669921876,0.855234404296875
-0.214857578125,-0.03595611083984375,0.8456495068359375
-0.32840607421875,-0.04330882080078125,0.9636174755859375
-0.2450075,-0.13129625,0.9675497412109375
-0.338375,-0.044534272460937496,1.0874838427734375
-0.415208671875,-0.03056412353515625,1.136391396484375
-0.3349709765625,-0.154824921875,1.0063808642578125
-0.22093619140625,-0.108747939453125,0.95108337890625
-0.29752671875000003,-0.22957747314453125,1.00220283203125
-0.2124261328125,-0.21830331787109375,1.0589749169921876
-0.4122909375,-0.12933552734375,0.9675497412109375
-0.30992708984375,-0.1822750390625,0.911269189453125
-0.20586123046875,-0.12860025634765626,0.91077765625
-0.343237890625,-0.09845414550781251,0.9390408154296875
-0.23406599609375,-0.00777072265625,1.0329236572265625
-0.2464663671875,-0.01953505859375,1.0417712548828124
-0.44122513671875,-0.02909358154296875,1.021372626953125
-0.4302836328125,-0.04477936279296875,0.906353857421875
-0.2279873828125,-0.04134809814453125,0.8778449316406249
-0.36876806640625,-0.06830803466796875,0.913235322265625
-0.28269490234375,-0.22369530517578126,0.9159387548828125
-0.32062544921875,-0.1759026904296875,0.8569547705078124
-0.2736985546875,-0.142080224609375,1.0324321240234375
-0.3660934765625,-0.171491064453125,1.01989802734375
-0.26372962890625,-0.10458140380859375,1.0791277783203126
-0.42177357421875,-0.04772044677734375,1.0174403613281249
-0.24038775390625,-0.03105430419921875,0.7999369189453125
-0.07845349609375,-0.12173772705078124,0.6917996142578124
-0.26956509765625,-0.08742508056640624,0.8377849755859375
-0.35223423828125,-0.068553125,0.993355234375
-0.35904228515625003,-0.09012107421875,1.11230626953125
-0.37581925781250003,-0.044044091796875,1.07494974609375
-0.34202216796875,-0.06879821533203125,1.09264494140625
-0.269321953125,-0.024436865234375,1.1710444873046875
-0.38287044921875,-0.10360104248046875,0.9614055761718749
-0.37314466796875,-0.07835673828125,0.9031588916015625
-0.33667298828125003,0.01159141357421875,0.845403740234375
-0.27783201171875,0.02752228515625,0.750046298828125
-0.2153438671875,0.08070688720703124,0.831640810546875
-0.4098594921875,0.0765403515625,0.9424815478515625
-0.28853037109375,-0.05262225341796875,0.9351085498046875
-0.09352845703125,-0.06193568603515625,0.99040603515625
-0.41836955078125,-0.01634888427734375,1.0228472265625
-0.317950859375,-0.22320512451171876,1.0058893310546875
-0.31989601562500003,-0.136198056640625,1.1054248046875
-0.52511,-0.1102184814453125,1.0982975732421876
-0.4156949609375,-0.1827652197265625,0.8780906982421874
-0.23139140625,-0.0651218603515625,0.8264797119140626
-0.29582470703125,-0.10948321044921874,0.7955131201171874
-0.26713365234374997,-0.201882265625,0.79969115234375
-0.2532744140625,-0.02517213623046875,0.8874298291015625
-0.4526529296875,-0.11364974609375,0.9483799462890625
-0.19224513671875,-0.048455717773437504,0.822793212890625
-0.26810623046875,0.10472573974609375,0.864082001953125
-0.48766574218750003,0.0373258984375,0.9518206787109375
-0.22531279296875,-0.21168587890625,0.9631259423828125
-0.35320681640625,-0.01561361328125,1.036118623046875
-0.286828359375,-0.16046199951171874,0.9822957373046874
-0.242089765625,-0.1641383544921875,1.071509013671875
-0.40426716796875,-0.0317895751953125,1.2233927734375
-0.40062,-0.13301188232421876,1.2236385400390626
-0.41885583984375,0.04492369873046875,1.150154326171875
-0.456056953125,0.11796061767578125,1.02088109375
-0.2736985546875,-0.0161037939453125,0.8304119775390625
-0.1492085546875,-0.10850284912109374,0.758893896484375
-0.34542619140624997,-0.091101435546875,0.7748687255859374
-0.1686601171875,-0.0881603515625,0.755944697265625
-0.27613,-0.098944326171875,0.703842177734375
-0.30798193359375,-0.040122646484374996,0.7532412646484374
-0.20877896484375,-0.012427438964843749,0.963371708984375
-0.31333111328125,-0.2219796728515625,1.1931634814453125
-0.39940427734375,0.0162481298828125,1.417548388671875
-0.3767918359375,0.06257020263671875,1.2914701220703124
-0.4370916796875,-0.030319033203124998,1.0968229736328126
-0.49228548828125,-0.0425735498046875,0.9862280029296875
-0.39405509765625,-0.030319033203124998,0.9031588916015625
-0.21023783203125002,-0.08252327392578125,0.8333611767578125
-0.2289599609375,-0.0866898095703125,0.7311222705078125
-0.15869119140625,-0.16095218017578125,0.6957318798828125
-0.2153438671875,-0.24109671875,0.7684787939453125
-0.30895451171875,-0.18521612304687501,0.914709921875
-0.265431640625,-0.21144078857421875,1.013508095703125
-0.4030514453125,-0.1347275146484375,1.1081282373046875
-0.40694175781249997,0.0054641552734375,0.9419900146484375
-0.2581373046875,-0.01953505859375,0.839996875
-0.2464663671875,-0.05115171142578125,0.8122252490234375
-0.30555048828125,0.00521906494140625,0.9891772021484375
-0.42858162109375,0.03413972412109375,1.1073909375
-0.37581925781250003,0.01747358154296875,1.199307646484375
-0.29776986328125,-0.03105430419921875,1.245020234375
-0.28391062499999997,0.01453249755859375,1.273037626953125
-0.37411724609375,-0.02664267822265625,1.170798720703125
-0.263486484375,-0.0592396923828125,0.99237216796875
-0.30555048828125,-0.0817880029296875,0.96484630859375
-0.4030514453125,-0.15114856689453124,0.95894791015625
-0.3592854296875,-0.14894275390625,0.9301932177734376
-0.3500459375,-0.10580685546875,0.8515479052734375
-0.2824517578125,-0.09575815185546875,0.9026673583984375
-0.38335673828125,0.02237538818359375,0.9719735400390626
-0.2542469921875,-0.06928839599609375,0.933879716796875
-0.2581373046875,0.21256548583984375,1.0761785791015626
-0.27929087890625,0.0069346972656249995,1.341852275390625
-0.44122513671875,-0.075415654296875,1.425904453125
-0.4691867578125,0.030708459472656248,1.1995534130859375
-0.38773333984375,-0.14502130859375,1.012525029296875
-0.317950859375,-0.15016820556640625,0.833606943359375
-0.033958046875,-0.1484525732421875,0.7380037353515625
-0.2756437109375,-0.10801266845703125,0.869980400390625
-0.489124609375,-0.08791526123046875,0.8825144970703125
-0.29436583984375,-0.09036616455078125,0.754961630859375
-0.310170234375,-0.0690433056640625,0.7979707861328125
-0.33813185546875,-0.06291604736328126,0.9164302880859375
-0.25351755859375,-0.19918627197265626,0.8648193017578125
-0.2114535546875,-0.02174087158203125,0.8884128955078126
-0.3500459375,-0.0768861962890625,0.93142205078125
-0.3223274609375,-0.1013952294921875,1.046932353515625
-0.35199109375,0.014777587890624999,1.1233657666015624
-0.17862904296875,-0.07124911865234375,1.098051806640625
-0.33424154296874997,0.0530116796875,1.1179589013671876
-0.34542619140624997,-0.048455717773437504,1.0975602734375
-0.29436583984375,0.09394176513671874,1.0668394482421875
-0.4400094140625,0.0182088525390625,0.9188879541015624
-0.2668905078125,-0.0180645166015625,0.95304951171875
-0.24622322265625,-0.1033559521484375,0.9380577490234375
-0.25935302734375,-0.06585713134765625,1.0648733154296874
-0.470645625,-0.08007237060546875,0.95894791015625
-0.22288134765625,-0.11046357177734376,0.9454307470703125
-0.277102578125,0.0956573974609375,1.0294829248046875
-0.339347578125,0.03364954345703125,1.1091113037109375
-0.3106565234375,-0.00581,1.0584833837890626
-0.315033125,-0.04306373046875,0.969270107421875
-0.22434021484375,-0.01561361328125,0.969761640625
-0.29971501953125,-0.16193254150390626,0.9685328076171875
-0.19467658203125,-0.02517213623046875,0.9680412744140625
-0.288773515625,-0.0876701708984375,0.9134810888671875
-0.37071322265625,-0.052867343750000004,0.92159138671875
-0.35199109375,-0.02909358154296875,0.7704449267578125
-0.26032560546875,0.09247122314453125,0.761843095703125
-0.19808060546875,0.06698182861328125,0.8417172412109375
-0.0879361328125,-0.04428918212890625,0.924049052734375
-0.2620276171875,-0.0004180126953125,1.04742388671875
-0.61385775390625,-0.18889247802734374,0.992863701171875
-0.33667298828125003,-0.1582561865234375,0.6691890869140625
-0.17230728515625,-0.0592396923828125,0.642892060546875
-0.203186640625,-0.038161923828125,0.58046734375
-0.27540056640625,-0.01291761962890625,0.6903250146484375
-0.19613544921875,0.071638544921875,0.9041419580078125
-0.2649453515625,-0.12811007568359375,0.946168046875
-0.3291355078125,0.0387964404296875,1.00613509765625
-0.34396732421875,0.14884199951171875,1.085271943359375
-0.3111428125,-0.08350363525390625,1.0071181640625
-0.25084296875,-0.03154448486328125,0.9577190771484375
-0.38505875,0.14295983154296876,0.9483799462890625
-0.32305689453124997,-0.0161037939453125,0.8576920703124999
-0.22725794921875,0.14001874755859375,0.8594124365234375
-0.24816837890625,0.06600146728515625,1.023338759765625
-0.3126016796875,-0.1043363134765625,1.140323662109375
-0.34834392578125,-0.05458297607421875,1.2253589062499999
-0.3694975,0.17653720703125,1.1297556982421875
-0.273212265625,-0.09771887451171875,0.9129895556640625
-0.22239505859375,0.0476196923828125,0.9134810888671875
-0.19273142578125,0.09418685546875,1.043983154296875
-0.44025255859375,0.0064445166015625,1.1091113037109375
-0.20148462890625,0.00668960693359375,1.0776531787109376
-0.45678638671875,0.120656611328125,0.9351085498046875
-0.3233000390625,0.16599832275390625,0.8800568310546875
-0.27394169921875,0.050070595703125,0.93928658203125
-0.34348103515625,0.11649007568359375,1.125577666015625
-0.2367405859375,0.0922261328125,1.1368829296875
-0.411318359375,-0.013652890625,1.070525947265625
-0.31819400390625,-0.05874951171875,1.089204208984375
-0.489124609375,-0.04281864013671875,0.9992536328125
-0.33472783203125,-0.1464918505859375,0.81738634765625
-0.218747890625,-0.14869766357421876,0.64338359375
-0.152612578125,-0.063651318359375,0.6296206640625
-0.3135742578125,0.0003172583007812497,0.6401886279296874
-0.043683828125000004,-0.07222947998046875,0.8557259375
-0.3038484765625,0.07874616455078125,1.217985908203125
-0.66151408203125,0.07874616455078125,1.3887936962890626
-0.48207341796875003,0.04590406005859375,1.268613828125
-0.36487775390625,0.067717099609375,1.1926719482421875
-0.37654869140625,0.077520712890625,0.9857364697265625
-0.27977716796875,-0.046004814453125,0.9402696484374999
-0.207076953125,-0.016593974609375,0.7846993896484376
-0.164283515625,-0.0055649096679687505,0.673367119140625
-0.27418484375,0.004973974609375,0.7665126611328125
-0.27977716796875,-0.06144550537109375,0.9454307470703125
-0.30919765625,-0.0366913818359375,1.1725190869140625
-0.40694175781249997,0.04688442138671875,1.2391218359375
-0.4254207421875,0.112813720703125,0.99237216796875
-0.3116291015625,0.1392834765625,0.7994453857421875
-0.22774423828125,0.004973974609375,0.84884447265625
-0.290718671875,0.1603612451171875,0.9272440185546875
-0.17133470703125,0.13070531494140625,0.99433830078125
-0.2318776953125,-0.075415654296875,0.98450763671875
-0.20051205078125,-0.022476142578125,1.0953483740234375
-0.2357680078125,-0.015368522949218751,1.0997721728515626
-0.349073359375,-0.00752563232421875,0.9891772021484375
-0.30117388671875,0.04884514404296875,0.990897568359375
-0.2532744140625,0.03928662109375,0.9048792578125
-0.4122909375,-0.06242586669921875,0.8038691845703125
-0.2318776953125,-0.065612041015625,0.8726838330078125
-0.13389044921874999,0.0770305322265625,0.9695158740234375
-0.2367405859375,0.14908708984375,0.9872110693359375
-0.20732009765625,-0.08203309326171875,0.8992266259765624
-0.32062544921875,0.0691876416015625,0.8992266259765624
-0.24306234375,0.0133070458984375,0.87440419921875
-0.26372962890625,0.02237538818359375,1.0594664501953126
-0.39259623046875003,-0.008751083984375,1.1764513525390625
-0.39551396484375,0.10668646240234375,1.21847744140625
-0.26713365234374997,0.114774443359375,1.06020375
-0.26178447265625,0.071638544921875,0.9621428759765625
-0.38043900390625,0.0922261328125,1.10837400390625
-0.2756437109375,0.15619470947265626,1.106899404296875
-0.1560166015625,0.05129604736328125,1.0545511181640626
-0.345183046875,0.08119706787109375,1.1818582177734376
-0.3359435546875,0.0829127001953125,1.1794005517578126
-0.26129818359375,0.06355056396484375,1.17718865234375
-0.4828028515625,0.0574233056640625,1.0958399072265625
-0.4594609765625,0.08658905517578125,0.9729566064453125
-0.3048210546875,-0.0053198193359375,0.7606142626953125
-0.25303126953125,0.0623251123046875,0.8800568310546875
-0.34299474609375,0.1005592041015625,0.97369390625
-0.1978374609375,-0.0562986083984375,1.0068723974609375
-0.3651208984375,0.089285048828125,1.147205126953125
-0.423961875,-0.01830960693359375,1.133442197265625
-0.31235853515625,0.07531489990234375,1.031203291015625
-0.26640421875,0.0250713818359375,0.8913620947265625
-0.24768208984375,0.097127939453125,0.804606484375
-0.2435486328125,0.06404074462890624,0.751029365234375
-0.382141015625,0.0691876416015625,0.792318154296875
-0.34810078125,0.02482629150390625,0.8436833740234375
-0.2318776953125,0.09688284912109375,0.93732044921875
-0.46602587890625,0.01257177490234375,0.97074470703125
-0.2766162890625,0.08021670654296875,1.004660498046875
-0.26032560546875,0.032424091796875,0.8930824609375
-0.361716875,0.14246965087890626,1.0250591259765625
-0.42177357421875,0.183399736328125,0.9773804052734375
-0.27929087890625,-0.09722869384765626,0.8869382958984375
-0.154557734375,0.08634396484375,0.8537598046875
-0.31868029296875,0.0740894482421875,0.6721382861328125
-0.19346085937500002,0.02727719482421875,0.6686975537109375
-0.1521262890625,0.06649164794921875,0.7694618603515625
-0.37849384765625,0.17139031005859376,1.0117877294921875
-0.3573402734375,0.11894097900390625,1.268122294921875
-0.42663646484375,0.1260485986328125,1.2757410595703125
-0.3972159765625,0.17237067138671874,1.107882470703125
-0.3009307421875,-0.0004180126953125,0.8567090039062499
-0.30530734375,0.00963069091796875,0.7851909228515626
-0.16598552734375,0.02752228515625,0.6873758154296875
-0.1633109375,0.00423870361328125,0.7532412646484374
-0.26154132812499997,0.06355056396484375,0.9196252539062499
-0.3578265625,-0.0072805419921875,0.93338818359375
-0.1268392578125,0.03315936279296875,1.0071181640625
-0.41350666015625,0.177517568359375,1.0058893310546875
-0.15480087890625,0.0407571630859375,1.1105859033203125
-0.26081189453125,0.106931552734375,1.0766701123046876
-0.380195859375,0.17923320068359375,1.0850261767578124
-0.15869119140625,0.07384435791015626,1.08478041015625
-0.30166017578125,0.1133039013671875,1.0189149609375
-0.2668905078125,0.0231106591796875,1.002694365234375
-0.31041337890625,0.052031318359375,0.9759058056640625
-0.230418828125,0.03855135009765625,0.99630443359375
-0.45386865234375,0.00325834228515625,0.9454307470703125
-0.28415376953125,0.0054641552734375,0.8028861181640625
-0.28512634765625,0.0123266845703125,0.5942302734375
-0.21510072265625,0.02874773681640625,0.498381298828125
-0.024475410156250002,0.011346323242187501,0.47552500488281246
-0.01863994140625,-0.01953505859375,0.640925927734375
-0.25886673828125,0.16550814208984374,0.9046334912109375
-0.4370916796875,0.05472731201171875,1.049881552734375
-0.2435486328125,0.00963069091796875,1.2334692041015625
-0.33983386718749997,0.17433139404296874,1.3455387744140626
-0.3408064453125,0.07457962890625,1.2305200048828124
-0.29047552734375,0.11845079833984375,1.0265337255859375
-0.28755779296875,0.0280124658203125,0.839505341796875
-0.284883203125,0.00276816162109375,0.7856824560546875
-0.22725794921875,0.1015395654296875,0.845403740234375
-0.321841171875,0.0544822216796875,0.9188879541015624
-0.23795630859375,0.046149150390625,0.9756600390625
-0.25692158203125,0.015022678222656249,0.9820499707031249
-0.18081734375,0.0691876416015625,0.932896650390625
-0.16744439453124998,0.0927163134765625,0.8183694140625
-0.415208671875,0.09982393310546875,0.926015185546875
-0.39308251953125,0.08168724853515624,1.0299744580078125
-0.4497351953125,0.153988896484375,1.002694365234375
-0.34445361328125,0.15962597412109375,0.8638362353515625
-0.2941226953125,0.10619628173828125,0.84884447265625
-0.35126166015625,0.12580350830078124,0.830657744140625
-0.27491427734375,0.0093856005859375,0.8554801708984375
-0.2785614453125,0.09541230712890625,0.8977520263671875
-0.21072412109375,0.02360083984375,0.846386806640625
-0.2056180859375,0.143204921875,0.8333611767578125
-0.35515197265625,0.12776423095703124,0.90586232421875
-0.3349709765625,0.0446786083984375,0.973202373046875
-0.2843969140625,0.20521277587890624,1.0189149609375
-0.3291355078125,0.2652599072265625,1.0801108447265624
-0.399647421875,0.064776015625,1.0791277783203126
-0.34493990234375,0.22285927978515624,1.215036708984375
-0.41253408203124997,0.15913579345703124,1.2902412890625
-0.51027818359375,0.018699033203125,1.1268064990234374
-0.366579765625,0.12090170166015625,1.073475146484375
-0.3339983984375,0.0966377587890625,0.8200897802734375
-0.29679728515625,-0.00581,0.6573922900390625
-0.20780638671875,-0.06144550537109375,0.62273919921875
-0.20245720703125,0.0427178857421875,0.7050710107421875
-0.36779548828124997,-0.0759058349609375,0.7468513330078125
-0.1929745703125,0.0064445166015625,0.9346170166015625
-0.34493990234375,0.071638544921875,1.0663479150390625
-0.42858162109375,0.02972809814453125,1.1907058154296875
-0.27053767578125,-0.00605509033203125,1.1803836181640626
-0.356853984375,0.18854663330078125,1.0604495166015624
-0.35028908203125,0.03708080810546875,0.9591936767578125
-0.2746711328125,0.008895419921875,0.930438984375
-0.33181009765625,0.11550971435546875,0.931913583984375
-0.2114535546875,-0.02149578125,0.9444476806640625
-0.2722396875,0.1000690234375,0.9402696484374999
-0.26713365234374997,0.15423398681640624,1.07298361328125
-0.18251935546875,0.09443194580078125,1.3529117724609374
-0.42809533203125,0.0613447509765625,1.4094380908203126
-0.39478453125,0.24320177734375,1.4020650927734375
-0.39600025390625,0.12580350830078124,1.272054560546875
-0.361716875,0.19736988525390625,1.154086591796875
-0.37800755859375,0.1995756982421875,1.0633987158203124
-0.33083751953125,0.00668960693359375,1.0275167919921875
-0.20732009765625,0.14492055419921876,0.9842618701171875
-0.339347578125,0.06453092529296875,0.9756600390625
-0.21193984375,0.0010525292968750002,1.1317218310546875
-0.366579765625,0.09002031982421875,1.2659103955078126
-0.31527626953125,0.077520712890625,1.3160467822265625
-0.31041337890625,0.075559990234375,1.3214536474609375
-0.26032560546875,0.17040994873046875,1.479481572265625
-0.3242726171875,0.13315621826171875,1.3966582275390624
-0.384086171875,0.1025199267578125,1.4433538818359375
-0.25594900390624997,0.15815543212890626,1.45048111328125
-0.50103869140625,-0.0376717431640625,1.212087509765625
-0.32208431640625,0.0397768017578125,1.1848074169921876
-0.41545181640625,-0.042083369140625,0.9881941357421875
-0.337402421875,-0.10580685546875,0.750046298828125
-0.21023783203125002,-0.19575500732421874,0.5664586474609374
-0.17230728515625,-0.18987283935546875,0.603569404296875
-0.18495080078125,-0.14918784423828124,0.6161035009765625
-0.08988128906250001,-0.11634573974609375,0.84884447265625
-0.27540056640625,-0.02517213623046875,1.0737209130859375
-0.46529644531250003,0.0701680029296875,1.21651130859375
-0.234309140625,0.127519140625,1.2541135986328125
-0.38287044921875,0.18903681396484376,1.226833505859375
-0.4244481640625,0.22482000244140626,1.0815854443359374
-0.299471875,0.24736831298828124,0.9223286865234375
-0.31430369140625003,0.1682041357421875,0.80755568359375
-0.12076064453125,0.148106728515625,0.6967149462890625
-0.13583560546875,0.0922261328125,0.714655908203125
-0.13826705078125,0.044188427734375,0.7987080859375
-0.17619759765625,0.07286399658203124,1.0727378466796875
-0.175954453125,0.14246965087890626,1.3531575390625
-0.50055240234375,0.2368294287109375,1.53699095703125
-0.45484123046875,0.1260485986328125,1.3656916357421875
-0.38773333984375,0.222614189453125,1.174730986328125
-0.26907880859375,-0.01561361328125,1.1046875048828124
-0.34032015625,0.16673359375,1.0796193115234376
-0.252788125,0.12482314697265626,0.9498545458984375
-0.24184662109375,-0.08546435791015625,0.73677490234375
-0.24330548828125,-0.01683906494140625,0.6669771875
-0.1696326953125,0.01110123291015625,0.59128107421875
-0.179844765625,-0.0631611376953125,0.5900522412109375
-0.1754681640625,0.04712951171875,0.7121982421874999
-0.2805066015625,0.0255615625,0.87637033203125
-0.3670660546875,0.02041466552734375,0.9763973388671875
-0.42590703125,0.14933218017578126,0.968287041015625
-0.27734572265625,0.11379408203125,0.858183603515625
-0.24865466796875,0.12972495361328126,0.7994453857421875
-0.2377131640625,0.10668646240234375,0.8058353173828126
-0.25886673828125,0.093206494140625,0.904387724609375
-0.16987583984375,0.0289928271484375,0.9591936767578125
-0.28366748046875,-0.0053198193359375,0.972219306640625
-0.40913005859375,0.03217900146484375,0.9852449365234375
-0.33108066406250003,0.0417375244140625,0.8623616357421875
-0.25862359375,0.132420947265625,0.7507835986328125
-0.18227621093750002,0.182419375,0.74857169921875
-0.31430369140625003,0.1392834765625,0.7974792529296875
-0.2542469921875,0.18830154296875,0.865065068359375
-0.27977716796875,0.16697868408203126,0.895540126953125
-0.3874901953125,0.1701648583984375,0.88030259765625
-0.2561921484375,0.1682041357421875,0.8368019091796874
-0.25011353515625,0.13560712158203125,0.83508154296875
-0.32013916015625,0.10619628173828125,0.8962774267578125
-0.29096181640625,0.083402880859375,0.8800568310546875
-0.29728357421875,0.05619785400390625,0.777080625
-0.27053767578125,0.030708459472656248,0.742181767578125
-0.216802734375,-0.0013983740234375002,0.78002982421875
-0.29752671875000003,0.09884357177734375,0.9744312060546875
-0.39745912109375,0.1466361865234375,1.019406494140625
-0.27807515625,0.036345537109375,0.8810398974609375
-0.143859375,0.11967625,0.922574453125
-0.38384302734375,0.1628121484375,1.010558896484375
-0.31284482421875,0.16893940673828126,1.0358728564453126
-0.2698082421875,0.1799684716796875,1.0228472265625
-0.34007701171875,0.22923162841796874,1.0850261767578124
-0.33472783203125,0.17776265869140626,1.0796193115234376
-0.34056330078125,0.1270289599609375,1.001711298828125
-0.2659179296875,0.22432982177734376,1.0975602734375
-0.36487775390625,0.1936935302734375,1.14966279296875
-0.33861814453125,0.1064413720703125,1.012525029296875
-0.37508982421875,0.10962754638671875,0.8984893261718749
-0.30895451171875,0.1397736572265625,0.798216552734375
-0.218747890625,0.11403917236328125,0.8033776513671875
-0.31746457031249997,0.103010107421875,0.930930517578125
-0.32548833984375003,0.193203349609375,1.013508095703125
-0.30627992187499997,0.116735166015625,0.9906518017578125
-0.30068759765624997,0.056933125,1.0103131298828125
-0.39113736328125,0.0868341455078125,0.98057537109375
-0.26324333984375,0.12923477294921876,0.97271083984375
-0.3111428125,0.03659062744140625,0.920116787109375
-0.25546271484375,0.013552136230468751,0.95304951171875
-0.26664736328125,0.064776015625,1.00023669921875
-0.36876806640625,0.00717978759765625,0.9390408154296875
-0.14604767578125,-0.03546593017578125,0.9960586669921875
-0.37946642578125,0.13021513427734374,1.0280083251953125
-0.28853037109375,0.03364954345703125,1.04152548828125
-0.20391607421875,0.04786478271484375,1.0088385302734375
-0.30530734375,0.1231075146484375,1.0088385302734375
-0.21218298828125,-0.0259074072265625,0.9528037451171875
-0.2853694921875,0.075559990234375,0.8616243359375
-0.29387955078125,0.07090327392578125,0.867031201171875
-0.2231244921875,0.03953171142578125,0.9031588916015625
-0.31722142578125,0.1329111279296875,1.03759322265625
-0.360744296875,0.0270321044921875,1.124594599609375
-0.282938046875,0.19638952392578124,1.0668394482421875
-0.271267109375,0.16648850341796875,0.9793465380859375
-0.3184371484375,0.03659062744140625,0.97271083984375
-0.2007551953125,0.1260485986328125,0.9660751416015625
-0.17571130859375,0.09002031982421875,0.9228202197265625
-0.20051205078125,-0.0190448779296875,1.0083469970703125
-0.33959072265625,0.13168567626953126,1.060695283203125
-0.212912421875,0.14786163818359374,1.117713134765625
-0.31089966796875,0.07139345458984375,1.171781787109375
-0.37168580078125,0.10962754638671875,1.2565712646484375
-0.28707150390625,0.08658905517578125,1.24796943359375
-0.33108066406250003,0.169674677734375,1.2354353369140625
-0.35126166015625,0.16085142578125,1.09854333984375
-0.26421591796875,0.04100225341796875,1.0840431103515624
-0.43174250000000003,0.1309504052734375,1.207172177734375
-0.40669861328125,0.15692998046875,1.169815654296875
-0.26640421875,-0.00654527099609375,0.865065068359375
-0.23795630859375,-0.01830960693359375,0.7004014453125
-0.22628537109375,-0.11879664306640625,0.588823408203125
-0.24379177734375002,-0.12663953369140624,0.5984083056640626
-0.19905318359375002,-0.05605351806640625,0.6451039599609375
-0.2454937890625,-0.0602200537109375,0.7262069384765625
-0.40086314453125,-0.0288484912109375,0.8087845166015625
-0.37995271484375,-0.02370159423828125,0.867522734375
-0.20342978515625,-0.045024453125,0.8800568310546875
-0.25692158203125,0.03266918212890625,0.95108337890625
-0.362689453125,0.03659062744140625,0.918150654296875
-0.20975154296875,0.06404074462890624,0.8815314306640625
-0.22531279296875,0.13536203125,0.867522734375
-0.284883203125,0.08413815185546875,0.947642646484375
-0.2834243359375,0.12972495361328126,0.9795923046875
-0.2445212109375,0.05497240234375,0.9464138134765625
-0.23139140625,-0.0151234326171875,0.9041419580078125
-0.33083751953125,0.03953171142578125,0.948625712890625
-0.417153828125,0.069677822265625,0.8576920703124999
-0.34153587890625,0.0672269189453125,0.684180849609375
-0.13923962890625,0.19736988525390625,0.65911265625
-0.26129818359375,0.16673359375,0.677299384765625
-0.27102396484375,0.2103596728515625,0.7298934375
-0.22968939453125,0.222614189453125,0.8785822314453124
-0.27053767578125,0.0623251123046875,1.1054248046875
-0.22361078125,0.07065818359375,1.1567900244140625
-0.46213556640625,0.1740863037109375,1.2934362548828124
-0.4458448828125,0.10595119140625,1.333987744140625
-0.277102578125,0.1427147412109375,1.1010010058593749
-0.40232201171875,0.0270321044921875,0.86457353515625
-0.2318776953125,-0.0435539111328125,0.8333611767578125
-0.22385392578125,0.04541387939453125,0.7851909228515626
-0.14580453125,-0.091101435546875,0.730384970703125
-0.22288134765625,-0.07615092529296875,0.945676513671875
-0.29387955078125,-0.0018885546875000003,1.08281427734375
-0.4341739453125,-0.059729873046875,1.126560732421875
-0.42615017578125003,0.02360083984375,1.0447204541015624
-0.354908828125,0.0231106591796875,0.899472392578125
-0.424934453125,0.00619942626953125,0.8191067138671875
-0.1900568359375,-0.0494360791015625,0.82918314453125
-0.27515742187500003,-0.02321141357421875,0.922574453125
-0.3485870703125,0.03512008544921875,1.0149826953125
-0.2464663671875,-0.04330882080078125,0.8928366943359375
-0.28853037109375,-0.0827683642578125,0.8156659814453124
-0.2474389453125,0.01453249755859375,0.88816712890625
-0.45240978515625,-0.04772044677734375,0.7198170068359375
-0.190543125,-0.10409122314453124,0.7124440087890624
-0.17327986328125,-0.012427438964843749,0.7763433251953125
-0.28269490234375,0.15374380615234376,0.8952943603515625
-0.26129818359375,0.17286085205078125,1.011541962890625
-0.31673513671875,0.15692998046875,1.130492998046875
-0.3942982421875,0.21403602783203124,1.221426640625
-0.479398828125,0.171635400390625,1.3484879736328126
-0.5071173046875,0.17139031005859376,1.3067076513671876
-0.411318359375,0.13805802490234376,1.1440101611328124
-0.4789125390625,0.1280093212890625,1.0034316650390624
-0.31235853515625,0.16477287109375,0.890624794921875
-0.146777109375,0.16207687744140625,0.80067421875
-0.18495080078125,0.087324326171875,0.8554801708984375
-0.140941640625,-0.0141430712890625,1.13393373046875
-0.13534931640625,-0.14379585693359376,1.420497587890625
-0.4672416015625,-0.1494329345703125,1.307936484375
-0.3573402734375,-0.20800952392578126,1.0425085546875
-0.13145900390625,-0.06095532470703125,0.9874568359375
-0.46019041015625,-0.06095532470703125,1.0520934521484375
-0.59489248046875,-0.07664110595703125,1.13589986328125
-0.47915568359375,0.19589934326171876,1.291715888671875
-0.48037140625,0.14688127685546876,1.1602307568359376
-0.3072525,0.010856142578125,0.9036504248046875
-0.12805498046875,-0.04698517578125,0.822793212890625
-0.1735230078125,-0.0249270458984375,0.7694618603515625
-0.17522501953125,-0.12271808837890624,0.75250396484375
-0.25059982421875,-0.03350520751953125,0.9245405859375
-0.1827625,-0.14428603759765624,0.991880634765625
-0.23212083984375,-0.1778634130859375,1.0147369287109376
-0.40621232421875,-0.03154448486328125,1.0855177099609374
-0.27685943359375,0.06673673828125,1.0919076416015625
-0.38530189453125,0.04786478271484375,1.18112091796875
-0.34980279296875,0.05129604736328125,1.3234197802734375
-0.37168580078125,0.00791505859375,1.4136161230468751
-0.44949205078125,0.07139345458984375,1.3819122314453125
-0.39940427734375,0.02972809814453125,1.24207103515625
-0.325731484375,0.03364954345703125,1.047915419921875
-0.18154677734375,0.1162449853515625,0.9247863525390625
-0.1900568359375,0.03561026611328125,0.8132083154296875
-0.17182099609375,0.1260485986328125,0.79772501953125
-0.1453182421875,-0.03742665283203125,0.9292101513671875
-0.33618669921875,-0.00262382568359375,1.034152490234375
-0.40572603515625,-0.0229663232421875,1.1155012353515625
-0.3787369921875,0.0368357177734375,1.217002841796875
-0.50103869140625,-0.04772044677734375,1.23617263671875
-0.3116291015625,0.03928662109375,1.3177671484375
-0.5012818359375,0.10962754638671875,1.22044357421875
-0.456056953125,-0.16830489013671876,0.7942842871093749
-0.206104375,-0.0945327001953125,0.560806015625
-0.113709453125,-0.1352176953125,0.522957958984375
-0.089395,-0.179333955078125,0.7178508740234375
-0.1477496875,-0.17810850341796874,1.05528841796875
-0.27613,-0.128355166015625,1.394937861328125
-0.545534140625,-0.13889405029296875,1.4118957568359374
-0.50298384765625,-0.10727739746093751,1.0437373876953124
-0.28269490234375,0.004973974609375,0.771673759765625
-0.2532744140625,-0.02149578125,0.61192546875
-0.39940427734375,0.0008074389648437498,0.620281533203125
-0.38092529296875,-0.1161006494140625,0.6569007568359375
-0.30944080078125,-0.2058037109375,0.7070371435546875
-0.3690112109375,-0.14134495361328125,0.7743771923828124
-0.3573402734375,-0.17859868408203125,0.675333251953125
-0.15091056640625,-0.12173772705078124,0.75053783203125
-0.228473671875,-0.00311400634765625,0.8844806298828125
-0.3408064453125,-0.02762303955078125,1.0958399072265625
-0.407428046875,0.1407540185546875,1.20078224609375
-0.29193439453125003,0.12972495361328126,1.166374921875
-0.2464663671875,0.10423555908203125,1.0948568408203125
-0.5224354101562501,0.03610044677734375,0.9724650732421874
-0.25983931640625,-0.01634888427734375,0.942727314453125
-0.45532751953125,-0.1352176953125,0.8913620947265625
-0.473563359375,-0.1670794384765625,0.80558955078125
-0.380195859375,-0.11830646240234374,0.6020948046875
-0.21996361328125,-0.11144393310546875,0.6062728369140625
-0.13097271484375,-0.13546278564453124,0.6785282177734375
-0.282938046875,-0.07173929931640625,0.854251337890625
-0.30457791015625,-0.18202994873046874,1.008592763671875
-0.3719289453125,-0.14575657958984375,1.1422897949218749
-0.22434021484375,-0.07271966064453125,1.135408330078125
-0.41739697265625,-0.03448556884765625,1.1307387646484375
-0.24379177734375002,-0.140119501953125,1.1172216015625
-0.40815748046875,-0.055808427734375,1.008592763671875
-0.3505322265625,-0.1116890234375,0.872929599609375
-0.33813185546875,-0.11242429443359375,0.7121982421874999
-0.37703498046875,-0.09796396484375,0.7340714697265625
-0.36536404296875,-0.10213050048828125,0.8451579736328125
-0.32451576171875,0.00178780029296875,0.9604225097656249
-0.35369310546875,-0.06438658935546875,0.969761640625
-0.368524921875,-0.110708662109375,0.9520664453125
-0.28026345703125,-0.1857063037109375,0.8766160986328125
-0.187625390625,-0.2102153369140625,1.0149826953125
-0.2805066015625,-0.19869609130859375,1.1336879638671875
-0.341292734375,-0.155805283203125,1.1486797265625
-0.45921783203125,-0.15065838623046876,0.974185439453125
-0.30360533203125,-0.217568046875,0.83508154296875
-0.39989056640625,-0.12173772705078124,0.8245135791015625
-0.3033621875,-0.2543315966796875,0.946659580078125
-0.33521412109375,-0.17565760009765624,1.0609410498046874
-0.35466568359375,-0.0038492773437499997,1.09952640625
-0.44414287109375,-0.15507001220703126,1.066593681640625
-0.2561921484375,-0.08154291259765625,1.0206353271484374
-0.16452666015625,-0.08423890625,1.0501273193359375
-0.3670660546875,-0.05360261474609375,1.1395863623046876
-0.31187224609374997,-0.1229631787109375,1.0004824658203124
-0.30846822265625,-0.04281864013671875,1.0358728564453126
-0.33910443359375,-0.04379900146484375,1.1508916259765625
-0.4896108984375,-0.20457825927734374,1.0083469970703125
-0.25108611328125,-0.032279755859375,1.0071181640625
-0.35758341796875,-0.1210024560546875,0.95304951171875
-0.42906791015625,-0.16830489013671876,0.9638632421875
-0.21461443359375,-0.09404251953125001,0.9759058056640625
-0.40426716796875,-0.09281706787109376,1.072492080078125
-0.36098744140625,-0.15212892822265625,1.1504000927734375
-0.3680386328125,-0.1494329345703125,1.0904330419921875
-0.408400625,-0.27761517822265624,0.9203625537109374
-0.279047734375,-0.22908729248046875,0.837539208984375
-0.15236943359375,-0.183255400390625,0.7004014453125
-0.19613544921875,-0.1827652197265625,0.7908435546875
-0.37557611328125,-0.1249239013671875,1.0466865869140625
-0.40329458984375,-0.18031431640625,1.189476982421875
-0.3126016796875,-0.128355166015625,1.20471451171875
-0.38505875,-0.13007079833984375,1.1155012353515625
-0.36876806640625,-0.18521612304687501,1.0604495166015624
-0.29776986328125,-0.21046042724609376,1.0071181640625
-0.27929087890625,-0.16781470947265625,1.1056705712890624
-0.35563826171875,-0.271487919921875,1.127543798828125
-0.4302836328125,-0.17639287109375001,1.040050888671875
-0.37898013671874997,-0.15261910888671876,0.864082001953125
-0.24670951171875,-0.21487205322265626,0.792318154296875
-0.26178447265625,-0.1582561865234375,0.8402426416015625
-0.22361078125,-0.12149263671875,0.901438525390625
-0.37144265625,-0.1915884716796875,0.9282270849609375
-0.3213548828125,-0.12124754638671875,0.981066904296875
-0.3359435546875,-0.0960032421875,1.0171945947265626
-0.3670660546875,-0.048945898437499996,1.0661021484375
-0.4263933203125,-0.0415931884765625,1.151137392578125
-0.45824525390625,-0.05360261474609375,1.104933271484375
-0.35952857421875,-0.0876701708984375,0.95304951171875
-0.35320681640625,-0.13595296630859374,0.970253173828125
-0.4536255078125,-0.1298257080078125,1.0398051220703124
-0.37168580078125,-0.0994345068359375,0.8343442431640625
-0.19078626953125,-0.14967802490234375,0.61487466796875
-0.1803310546875,-0.0710040283203125,0.6554261572265625
-0.253760703125,-0.13742350830078126,0.8412257080078125
-0.3028758984375,-0.165608896484375,1.078390478515625
-0.33910443359375,-0.16242272216796874,1.2899955224609374
-0.5460204296875,-0.24869451904296874,1.2821309912109375
-0.44730375,-0.22712656982421875,1.0267794921875
-0.34785763671875003,-0.14232531494140624,0.6819689501953125
-0.3301080859375,-0.20359789794921876,0.576043544921875
-0.25862359375,-0.253841416015625,0.5998829052734375
-0.21072412109375,-0.15457983154296875,0.8210728466796875
-0.3446967578125,-0.0371815625,0.9945840673828125
-0.3933256640625,-0.09085634521484375,1.009084296875
-0.2435486328125,-0.01953505859375,0.850319072265625
-0.2192341796875,-0.120512275390625,0.656654990234375
-0.12319208984375,-0.027868129882812502,0.6809858837890626
-0.26227076171875,-0.122472998046875,0.766758427734375
-0.1025248046875,-0.03301502685546875,1.0353813232421876
-0.40086314453125,-0.12712971435546874,1.374293466796875
-0.61726177734375,-0.073454931640625,1.4379470166015624
-0.43198564453125,-0.00581,1.20078224609375
-0.41423609375,-0.17908886474609376,0.935845849609375
-0.24670951171875,-0.02174087158203125,0.894557060546875
-0.2639727734375,0.0003172583007812497,1.0609410498046874
-0.386031328125,-0.09428760986328125,0.9980247998046875
-0.15869119140625,-0.02125069091796875,0.8952943603515625
-0.15042427734375,-0.02909358154296875,0.8638362353515625
-0.23114826171875,-0.03399538818359375,1.125577666015625
-0.26275705078125,-0.0229663232421875,1.3632339697265625
-0.3466419140625,-0.07811164794921875,1.3927259619140624
-0.4818302734375,0.03757098876953125,1.4035396923828125
-0.4234755859375,-0.12124754638671875,1.2182316748046875
-0.37338781249999997,-0.20359789794921876,1.102967138671875
-0.561095390625,-0.10850284912109374,1.0520934521484375
-0.31333111328125,-0.1788437744140625,0.9007012255859375
-0.23941517578125,-0.33447613525390624,0.9193794873046874
-0.3690112109375,-0.20997024658203126,0.99433830078125
-0.15917748046875,-0.1415900439453125,0.8854636962890625
-0.1861665234375,-0.147962392578125,0.71514744140625
-0.22385392578125,-0.08252327392578125,0.7436563671875001
-0.255705859375,-0.22516584716796875,0.7090032763671875
-0.21607330078125,-0.217568046875,0.85474287109375
-0.35904228515625003,-0.13497260498046876,1.0683140478515625
-0.3456693359375,-0.25114542236328125,1.2039772119140626
-0.46553958984375,-0.051886982421875,1.2398591357421875
-0.52146283203125,-0.03448556884765625,0.975168505859375
-0.31965287109375,-0.08227818359375,0.7370206689453125
-0.38676076171875,0.03144373046875,0.7763433251953125
-0.30506419921875,-0.02174087158203125,0.7613515625
-0.20488865234375,-0.09796396484375,0.9488714794921875
-0.23892888671875,0.04394333740234375,1.1061621044921874
-0.19175884765625,-0.12222790771484375,1.150645859375
-0.34591248046875,-0.06267095703125,1.1567900244140625
-0.24622322265625,-0.0097314453125,1.0299744580078125
-0.30506419921875,-0.030319033203124998,0.9557529443359375
-0.2649453515625,-0.07468038330078125,1.1381117626953126
-0.3962433984375,-0.03546593017578125,1.3590559375
-0.47721052734375,-0.0602200537109375,1.3725731005859374
-0.5112507617187501,-0.063651318359375,1.1420440283203126
-0.44511544921875,-0.01046671630859375,0.9326508837890625
-0.337402421875,-0.1004148681640625,0.7920723876953125
-0.237226875,-0.144040947265625,0.773148359375
-0.314060546875,-0.20384298828125,0.7350545361328125
-0.13243158203125,-0.18938265869140625,0.679265517578125
-0.14021220703125,-0.23545964111328124,0.6785282177734375
-0.2036729296875,-0.279330810546875,0.835573076171875
-0.27102396484375,-0.18423576171875,0.9660751416015625
-0.3612305859375,-0.2464887060546875,1.1408151953125
-0.39478453125,-0.25212578369140626,1.250427099609375
-0.41934212890625,-0.03497574951171875,1.194392314453125
-0.469673046875,0.05619785400390625,1.004660498046875
-0.3787369921875,-0.14085477294921875,0.902421591796875
-0.35223423828125,-0.14673694091796874,0.8962774267578125
-0.38092529296875,-0.1621776318359375,0.788385888671875
-0.22677166015625,-0.1195319140625,0.7237492724609375
-0.10568568359375,-0.075415654296875,0.689096181640625
-0.0937716015625,-0.06634731201171876,0.707774443359375
-0.22968939453125,-0.09869923583984375,0.8893959619140624
-0.2921775390625,-0.05360261474609375,1.05725455078125
-0.2552195703125,-0.08619962890625,1.07691587890625
-0.40669861328125,0.02531647216796875,1.0393135888671874
-0.4691867578125,0.0054641552734375,0.8608870361328125
-0.25205869140625,0.03144373046875,0.929947451171875
-0.374360390625,-0.03399538818359375,0.99433830078125
-0.44997833984375,-0.015368522949218751,0.913235322265625
-0.16793068359375,0.09492212646484376,0.9395323486328125
-0.34542619140624997,-0.044534272460937496,0.9228202197265625
-0.25862359375,0.0030132519531249997,1.0108046630859375
-0.26081189453125,-0.0925719775390625,0.9616513427734374
-0.21218298828125,-0.0072805419921875,0.918150654296875
-0.09401474609375,-0.0661022216796875,0.899472392578125
-0.3339983984375,-0.05752406005859375,0.9196252539062499
-0.22823052734375,0.014777587890624999,1.0174403613281249
-0.31722142578125,-0.048945898437499996,1.0594664501953126
-0.3651208984375,0.03610044677734375,1.130492998046875
-0.41253408203124997,0.0799716162109375,1.0778989453125
-0.46553958984375,-0.057769150390625,0.9901602685546875
-0.23503857421875,0.0608545703125,0.9414984814453125
-0.14896541015625,0.01649322021484375,0.912252255859375
-0.1433730859375,0.0069346972656249995,1.0756870458984376
-0.3301080859375,0.00987578125,1.2968769873046875
-0.3028758984375,0.11403917236328125,1.4099296240234376
-0.4001337109375,0.161831787109375,1.386090263671875
-0.38384302734375,0.11967625,1.2944193212890625
-0.42323244140625,0.01404231689453125,1.113780869140625
-0.3233000390625,-0.05482806640625,0.9203625537109374
-0.1978374609375,-0.05556333740234375,0.74267330078125
-0.2756437109375,0.00227798095703125,0.6269172314453125
-0.3077387890625,-0.15507001220703126,0.58931494140625
-0.21364185546875,-0.18840229736328126,0.7478343994140625
-0.356853984375,-0.03987755615234375,1.0004824658203124
-0.40864376953125,-0.0817880029296875,1.1093570703125
-0.4798851171875,-0.12271808837890624,0.9611598095703124
-0.27685943359375,0.11550971435546875,0.7684787939453125
-0.2488978125,-0.05360261474609375,0.6455954931640625
-0.11468203125,-0.07664110595703125,0.7099863427734375
-0.16015005859375,0.0922261328125,1.050864619140625
-0.32500205078125,0.12874459228515625,1.2378930029296875
-0.37460353515625,0.10080429443359375,1.3244028466796876
-0.30555048828125,0.1672237744140625,1.1769428857421875
-0.15674603515625,-0.05164189208984375,1.0339067236328126
-0.463837578125,-0.0190448779296875,1.0346440234375
-0.48255970703125,-0.0038492773437499997,0.9442019140625
-0.31916658203125,-0.0876701708984375,0.71514744140625
-0.16258150390625,-0.16193254150390626,0.623230732421875
-0.2873146484375,0.0505607763671875,0.6256883984375
-0.2989855859375,0.130460224609375,0.6925369140625
-0.203186640625,0.08560869384765625,0.809030283203125
-0.34202216796875,0.0250713818359375,0.9442019140625
-0.27199654296875,0.10668646240234375,1.051847685546875
-0.436605390625,0.1064413720703125,1.014491162109375
-0.36293259765625,0.08511851318359374,0.876861865234375
-0.02982458984375,0.10423555908203125,0.9650920751953125
-0.31868029296875,0.21011458251953125,1.16244265625
-0.22434021484375,0.046149150390625,1.271071494140625
-0.2411171875,-0.02076051025390625,1.3170298486328125
-0.45289607421875,-0.0170841552734375,1.2983515869140625
-0.15625974609374998,-0.06928839599609375,1.155069658203125
-0.37022693359375003,-0.16144236083984376,1.0157199951171876
-0.304334765625,-0.2915853271484375,1.0395593554687501
-0.30409162109375,-0.264625390625,0.719571240234375
-0.3553951171875,-0.15948163818359376,0.5512211181640625
-0.259596171875,-0.16977543212890625,0.4986270654296875
-0.14702025390625,-0.0190448779296875,0.4740504052734375
-0.17303671874999998,0.12041152099609376,0.6126627685546875
-0.166228671875,0.183399736328125,0.66402798828125
-0.26081189453125,-0.022476142578125,0.6768078515625
-0.10301109375,-0.047965537109375,0.9650920751953125
-0.45289607421875,0.1740863037109375,1.1848074169921876
-0.49374435546875,0.22482000244140626,1.1877566162109374
-0.28123603515625,0.18266446533203126,1.14769666015625
-0.415208671875,0.287318037109375,1.0968229736328126
-0.26810623046875,0.18168410400390625,0.922574453125
-0.206104375,0.2319276220703125,0.9129895556640625
0.00980796875,0.12923477294921876,1.0385762890625
-0.12562353515625,0.118695888671875,1.355123671875
-0.508576171875,0.221633828125,1.6394756298828126
-0.57106431640625,0.17384121337890626,1.6001529736328126
-0.5056584375,0.20864404052734375,1.4173026220703124
-0.45168035156249997,0.055462583007812497,1.0412797216796874
-0.397702265625,0.02360083984375,0.92945591796875
-0.18008791015625,-0.02419177490234375,0.8702261669921875
-0.3077387890625,-0.0210056005859375,0.7384952685546875
-0.21169669921875,-0.044044091796875,0.6829520166015625
-0.30603677734375,-0.04306373046875,0.846386806640625
-0.26761994140625,-0.06144550537109375,1.1002637060546876
-0.36779548828124997,-0.13056097900390626,1.210121376953125
-0.2834243359375,-0.046740085449218746,1.2784444921875
-0.39794541015625,0.04124734375,1.09461107421875
-0.4283384765625,-0.10752248779296875,0.908319990234375
-0.331566953125,-0.03350520751953125,0.874895732421875
-0.34348103515625,0.0603643896484375,0.8151744482421874
0.03144783203125,-0.06267095703125,0.8943112939453125
-0.03298546875,-0.0016434643554687498,1.0796193115234376
-0.549424453125,0.008405239257812499,1.3583186376953125
-0.43587595703125,0.1780077490234375,1.338903076171875
-0.5080898828125,-0.10556176513671875,1.00416896484375
-0.29242068359375,0.008895419921875,0.8372934423828124
-0.39113736328125,0.022620478515625,0.682214716796875
-0.2231244921875,0.03266918212890625,0.6239680322265625
-0.29363640625,0.17825283935546876,0.6239680322265625
-0.07577890625,0.1280093212890625,0.6775451513671875
-0.03420119140625,0.06992291259765625,0.95796484375
-0.49763466796875,-0.01046671630859375,1.17915478515625
-0.31965287109375,0.023845930175781252,1.1486797265625
-0.2523018359375,0.0397768017578125,0.962388642578125
-0.302389609375,0.1887917236328125,0.8186151806640625
-0.2561921484375,0.17090012939453125,0.8930824609375
-0.33132380859375,0.2397705126953125,1.087729609375
-0.4545980859375,0.3044743603515625,1.2614865966796875
-0.33083751953125,0.381432724609375,1.266156162109375
-0.292663828125,0.32947357421875,1.3529117724609374
-0.2357680078125,0.2211436474609375,1.3455387744140626
-0.25449013671875,0.08756941650390625,1.132459130859375
-0.288773515625,-0.0170841552734375,1.1272980322265624
-0.22968939453125,-0.15948163818359376,1.0452119873046875
-0.30506419921875,-0.11438501708984375,0.884726396484375
-0.19710802734375,-0.087179990234375,0.6984353125
-0.2211793359375,-0.21144078857421875,0.6352732958984375
-0.17522501953125,-0.244037802734375,0.65419732421875
-0.26640421875,-0.05482806640625,0.891607861328125
-0.25400384765625,-0.04526954345703125,1.076424345703125
-0.3855450390625,-0.03056412353515625,1.2482152001953124
-0.4127772265625,0.1319307666015625,1.3295639453125
-0.28269490234375,0.1191860693359375,1.223884306640625
-0.32062544921875,0.07433453857421875,1.057746083984375
-0.3184371484375,0.10227483642578125,1.0186691943359376
-0.27929087890625,-0.0121823486328125,0.93437125
-0.3427516015625,7.216796875000007e-05,0.7788009912109375
-0.21899103515625,-0.1102184814453125,0.6524769580078125
-0.191515703125,-0.08301345458984374,0.469872373046875
-0.20148462890625,-0.05899460205078125,0.42415978515624997
-0.16598552734375,0.04051207275390625,0.48560143554687496
-0.1034973828125,0.11796061767578125,0.672384052734375
-0.26421591796875,0.18438009765625,1.129509931640625
-0.51757251953125,0.259867919921875,1.40132779296875
-0.38821962890625,0.23658433837890624,1.4266417529296875
-0.415208671875,0.18413500732421875,1.3509456396484376
-0.4545980859375,0.1623219677734375,1.08674654296875
-0.366579765625,-0.05360261474609375,0.910286123046875
-0.28561263671875,-0.091101435546875,0.9154472216796875
-0.36366203125,-0.0661022216796875,0.7414444677734375
-0.30506419921875,-0.02517213623046875,0.49494056640625
-0.1637972265625,-0.050661530761718754,0.4470160791015625
-0.02982458984375,-0.12614935302734376,0.43890578125
-0.16355408203125,-0.046249904785156254,0.622247666015625
-0.28974609375,-0.0332601171875,0.7866655224609375
-0.338375,0.0451687890625,0.949608779296875
-0.487179453125,0.07261890625,0.9759058056640625
-0.33278267578125,0.19933060791015625,0.9591936767578125
-0.26518849609375,0.2721224365234375,1.095102607421875
-0.4020788671875,0.1897720849609375,1.1941465478515625
-0.346155625,0.06453092529296875,1.08084814453125
-0.38335673828125,0.193203349609375,1.0206353271484374
-0.3738741015625,0.1240878759765625,0.7945300537109374
-0.1997826171875,0.155949619140625,0.708757509765625
-0.20415921875,0.08634396484375,0.7930554541015625
-0.18835482421875,0.130460224609375,0.8358188427734374
-0.1083602734375,0.20227169189453126,0.8638362353515625
-0.13437673828125,0.1270289599609375,1.062661416015625
-0.308225078125,0.20080114990234374,1.3165383154296875
-0.49471693359375,0.1427147412109375,1.3927259619140624
-0.44511544921875,0.21501638916015625,1.3283351123046876
-0.39113736328125,0.2074185888671875,1.1037044384765624
-0.46262185546875,0.13756784423828125,0.9442019140625
-0.33035123046875,0.1044806494140625,0.8451579736328125
-0.22385392578125,0.0922261328125,0.8065726171875
-0.1472633984375,0.10570610107421875,0.9483799462890625
-0.25789416015625,0.2829064111328125,1.0778989453125
-0.1579617578125,0.20472259521484376,1.0815854443359374
-0.02350283203125,0.032424091796875,0.984016103515625
-0.02715,0.07580508056640625,1.0471781201171875
-0.31770771484375,-0.08056255126953125,1.116730068359375
-0.33181009765625,0.02874773681640625,1.2233927734375
-0.28318119140625,-0.08595453857421875,1.1002637060546876
-0.4643238671875,-0.11438501708984375,1.070525947265625
-0.53216119140625,0.07580508056640625,1.06315294921875
-0.32500205078125,-0.07370002197265625,0.7861739892578125
0.010780546874999998,0.1093824560546875,0.76626689453125
-0.086477265625,0.1941837109375,0.8989808593749999
-0.24233291015625,0.2103596728515625,1.0284998583984375
-0.28634207031250003,0.15325362548828125,1.270088427734375
-0.2406308984375,0.15668489013671874,1.3745392333984374
-0.226528515625,0.19393862060546874,1.0565172509765626
-0.037362070312499995,0.19786006591796876,0.912252255859375
-0.189570546875,0.26256391357421877,0.86653966796875
-0.271267109375,0.28903366943359377,0.85081060546875
-0.37460353515625,0.2397705126953125,0.99630443359375
-0.54674986328125,0.1157548046875,1.0039231982421875
-0.430769921875,0.228496357421875,0.97271083984375
-0.092312734375,0.16697868408203126,0.9572275439453125
-0.26616107421875,0.17384121337890626,0.8028861181640625
-0.216802734375,0.146146005859375,0.8294289111328125
-0.24865466796875,0.014777587890624999,0.9021758251953125
-0.29582470703125,0.161831787109375,1.05528841796875
-0.361716875,0.14050892822265626,1.0830600439453124
-0.28804408203125,0.1025199267578125,0.9582106103515625
-0.013777050781250001,0.0887948681640625,0.8579378369140624
-0.29047552734375,0.00178780029296875,0.9552614111328125
-0.4662690234375,0.011346323242187501,0.9503460791015625
-0.43757796875,0.04247279541015625,0.8338527099609375
-0.32354318359375,0.059874208984374996,0.7094948095703125
-0.361716875,0.04786478271484375,0.625196865234375
-0.263486484375,0.18266446533203126,0.755944697265625
-0.29728357421875,-0.0592396923828125,0.8613785693359375
-0.3573402734375,0.0966377587890625,0.9503460791015625
-0.338375,0.02482629150390625,0.7876485888671875
-0.2785614453125,-0.10801266845703125,0.7611057958984375
-0.206104375,0.13511694091796875,0.9397781152343749
-0.14361623046875,0.1005592041015625,1.118696201171875
-0.30530734375,0.18364482666015625,1.3111314501953124
-0.4332013671875,0.2466330419921875,1.375276533203125
-0.3748466796875,0.21991819580078126,1.0973145068359376
-0.48255970703125,0.16624341308593749,0.883743330078125
-0.42225986328125,0.124578056640625,0.7414444677734375
-0.2435486328125,0.010611052246093749,0.5993913720703125
-0.251815546875,0.0946770361328125,0.5428650537109375
-0.20829267578125,0.10472573974609375,0.557365283203125
-0.24622322265625,0.09345158447265625,0.7158847412109375
-0.3631757421875,0.101049384765625,1.0130165625
-0.31333111328125,0.0172284912109375,1.182103984375
-0.4137498046875,0.13364639892578126,1.3932174951171874
-0.4526529296875,0.29810201171875,1.341852275390625
-0.4565432421875,0.21452620849609375,0.9837703369140625
-0.2328502734375,0.15031254150390624,0.8702261669921875
-0.27248283203125,0.0721287255859375,0.718096640625
-0.162338359375,0.12188206298828125,0.787402822265625
-0.23455228515625,0.20472259521484376,0.9798380712890625
-0.36439146484375,0.1682041357421875,1.0540595849609375
-0.3631757421875,0.0868341455078125,1.044966220703125
-0.465782734375,0.12433296630859375,1.174239453125
-0.27637314453125,0.17482157470703125,1.2944193212890625
-0.30530734375,0.0995788427734375,1.3214536474609375
-0.3904079296875,0.195164072265625,1.3568440380859375
-0.341292734375,0.20913422119140626,1.263206962890625
-0.40645546875,0.02752228515625,1.1843158837890626
-0.3592854296875,0.06894255126953125,1.1459762939453124
-0.37217208984375,0.10472573974609375,1.00613509765625
-0.26178447265625,0.08707923583984375,0.9975332666015625
-0.23795630859375,0.06453092529296875,1.0943653076171875
-0.3408064453125,0.05227640869140625,1.13983212890625
-0.36050115234375,-0.0729647509765625,1.0511103857421875
-0.24670951171875,-0.04085791748046875,0.997779033203125
-0.20877896484375,-0.077376376953125,1.0751955126953125
-0.268349375,-0.118551552734375,1.11427240234375
-0.187625390625,-0.02517213623046875,1.1071451708984374
-0.1949197265625,-0.14232531494140624,1.016457294921875
-0.26907880859375,-0.1288453466796875,1.1322133642578125
-0.397702265625,0.07065818359375,1.0358728564453126
-0.42906791015625,-0.11536537841796875,0.8144371484375
-0.04441326171875,0.0270321044921875,0.8365561425781249
-0.1521262890625,0.20962440185546874,1.0034316650390624
-0.19346085937500002,0.0250713818359375,1.250427099609375
-0.323786328125,0.199085517578125,1.455887978515625
-0.34493990234375,0.36648221435546874,1.4187772216796875
-0.38481560546875,0.1838899169921875,1.20471451171875
-0.3028758984375,0.2635442749023438,1.0594664501953126
-0.22725794921875,0.2250650927734375,0.9677955078125
-0.14167107421875,0.16452778076171876,0.8365561425781249
-0.162338359375,0.19491898193359375,0.7208000732421875
-0.2406308984375,0.10325519775390625,0.8038691845703125
-0.209022109375,0.1417343798828125,0.9638632421875
-0.40815748046875,0.30177836669921876,1.221918173828125
-0.25108611328125,0.1976149755859375,1.4969310009765624
-0.19248828125,0.22678072509765626,1.69428158203125
-0.35855599609375,0.45814599853515625,1.75129943359375
-0.37314466796875,0.37775636962890624,1.6291534326171875
-0.49812095703125,0.1525183544921875,1.5301094921875
-0.6111831640625,0.1505576318359375,1.2673849951171876
-0.28901666015625,-0.0955130615234375,1.001219765625
-0.2075632421875,-0.05311243408203125,0.675333251953125
-0.174981875,-0.1533543798828125,0.4991185986328125
-0.11589775390625,-0.17639287109375001,0.41310028808593746
-0.11541146484375,-0.2170778662109375,0.47552500488281246
-0.16525609375,-0.2778602685546875,0.6569007568359375
-0.286828359375,-0.29526168212890624,0.7463597998046875
-0.271267109375,-0.29379114013671875,0.627162998046875
-0.18884111328125,-0.2692821069335937,0.44971951171875
-0.0932853125,-0.2259011181640625,0.3693538330078125
-0.0568136328125,-0.19918627197265626,0.3678792333984375
-0.14604767578125,-0.1533543798828125,0.380413330078125
-0.30141703125,-0.12149263671875,0.43399044921874996
-0.18932740234375,-0.0028689160156250004,0.6460870263671875
-0.16258150390625,0.1485969091796875,0.9488714794921875
-0.24695265625,0.27775951416015626,1.0968229736328126
-0.42055785156250003,0.43412714599609376,1.2565712646484375
-0.36293259765625,0.41010829345703126,1.1504000927734375
-0.299471875,0.42750970703125,1.0186691943359376
-0.2552195703125,0.3397673681640625,0.89996392578125
-0.16549923828125,0.2946707470703125,0.656654990234375
-0.1103054296875,0.26452463623046873,0.7193254736328125
-0.20829267578125,0.2647697265625,0.7117067089843749
-0.28123603515625,0.30668017333984376,1.047915419921875
-0.40913005859375,0.31991505126953124,1.58221201171875
-0.53751037109375,0.49883099365234373,1.7304092724609375
-0.6286895703125,0.2966314697265625,1.4979140673828124
-0.70211921875,0.21060476318359375,1.410666923828125
-0.6230972460937501,0.08609887451171874,0.9606682763671874
-0.1141957421875,-0.14624676025390626,0.703842177734375
0.001541054687499998,-0.15408965087890625,0.44775337890625
0.008835390624999998,-0.11242429443359375,0.37205726562499997
-0.044170117187499996,-0.17516741943359376,0.6431378271484375
-0.14021220703125,-0.2957518627929687,0.928964384765625
-0.38141158203125003,-0.45359003662109376,1.388056396484375
-0.5431026953125,-0.33055468994140624,1.7633419970703126
-0.62115208984375,0.182419375,1.7795625927734375
-0.66516125,0.23413343505859374,1.275003759765625
-0.6102105859375,0.17629211669921874,0.95501564453125
-0.48888146484375,-0.04281864013671875,0.4887964013671875
-0.2970404296875,-0.1415900439453125,0.2592503955078125
-0.0869635546875,-0.13742350830078126,0.1034343701171875
-0.01572220703125,-0.10311086181640625,0.0714847119140625
-0.03298546875,-0.04698517578125,0.07984077636718749
-0.07456318359375,-0.0180645166015625,0.069764345703125
-0.1064151171875,-0.0053198193359375,0.1275194970703125
-0.14191421875,0.0133070458984375,0.3442856396484375
-0.177899609375,0.1201664306640625,0.86653966796875
-0.2133987109375,0.183399736328125,1.528143359375
-0.70430751953125,0.37285456298828124,2.129718558349609
-0.9340791015625,0.4191766357421875,2.1059406396484377
-0.49860724609375,0.4272646166992187,1.565991416015625
-0.14118478515625,0.18045865234375,1.1361456298828125
0.05187197265625,0.14345001220703124,1.188493916015625
-0.31235853515625,0.146146005859375,1.2469863671875
-0.32451576171875,0.06453092529296875,0.8982435595703124
-0.33424154296874997,0.04394333740234375,0.7232577392578124
-0.23114826171875,-0.091101435546875,0.573094345703125
0.02220833984375,-0.08350363525390625,0.7542243310546874
0.1629890234375,0.1505576318359375,1.3091653173828126
-0.16501294921875,0.47432196044921876,2.04818548828125
-0.79816130859375,0.3309441162109375,1.879589599609375
-0.5362946484375,-0.010221625976562499,1.6045767724609374
-0.46699845703125,-0.03129939453125,1.467684775390625
-0.49982296875,0.1201664306640625,1.4467946142578125
-0.25643529296875,0.02360083984375,1.229291171875
-0.11735662109375,0.062080021972656246,1.091170341796875
-0.19564916015625,-0.1719812451171875,0.9842618701171875
-0.03663263671875,-0.14085477294921875,0.9857364697265625
-0.11346630859375,-0.0474753564453125,1.099034873046875
-0.06337853515625,0.11649007568359375,1.129509931640625
-0.21996361328125,0.14982236083984374,1.2698426611328124
-0.30919765625,0.13511694091796875,1.3873190966796876
-0.48158712890625,0.2044775048828125,1.24993556640625
-0.533863203125,0.19982078857421876,1.2069264111328124
-0.57203689453125,0.15864561279296874,0.908319990234375
-0.32937865234375,0.1280093212890625,0.7252238720703125
-0.28585578125,0.11943115966796874,0.8353273095703125
-0.2027003515625,0.1074217333984375,0.933879716796875
-0.19759431640625,0.19344843994140626,0.94125271484375
-0.21583015625000002,0.21550656982421876,1.005643564453125
-0.1676875390625,0.2289865380859375,1.0368559228515626
-0.20877896484375,0.13364639892578126,0.9763973388671875
-0.19273142578125,0.0329142724609375,0.9528037451171875
-0.26810623046875,0.0476196923828125,0.8259881787109375
-0.2143712890625,0.07825598388671876,0.740215634765625
-0.3709563671875,-0.057278969726562504,0.7163762744140625
-0.4745359375,-0.01291761962890625,0.7389868017578125
-0.50249755859375,-0.00777072265625,0.6908165478515624
-0.41447923828125,0.08707923583984375,0.6387140283203125
-0.292663828125,0.010611052246093749,0.58931494140625
-0.28658521484375,-0.08203309326171875,0.53229708984375
-0.18859796875,0.16060633544921876,0.5998829052734375
-0.158448046875,0.06845237060546874,0.5866115087890625
-0.09644619140624999,0.05227640869140625,0.7149016748046875
-0.15382830078125,0.1770273876953125,0.9744312060546875
-0.29631099609375,0.3034939990234375,1.145238994140625
-0.1949197265625,0.171635400390625,1.199307646484375
-0.25643529296875,0.12531332763671876,1.2664019287109376
-0.3991611328125,0.24981921630859374,1.21454517578125
-0.54261640625,0.1407540185546875,1.0992806396484376
-0.40232201171875,0.1289896826171875,1.0117877294921875
-0.46116298828125,0.15129290283203126,0.8984893261718749
-0.43490337890624997,0.02752228515625,0.82918314453125
-0.265431640625,0.0436982470703125,0.7758517919921875
-0.2309051171875,0.03462990478515625,0.82525087890625
-0.17619759765625,-0.004829638671875,0.7611057958984375
-0.20026890625,-0.055808427734375,0.7817501904296875
-0.17717017578125,-0.0366913818359375,0.8471241064453126
-0.267376796875,-0.0739451123046875,0.80362341796875
-0.220693046875,-0.06291604736328126,0.8215643798828125
-0.2503566796875,0.004973974609375,0.7699533935546875
-0.18932740234375,-0.0006631030273437505,0.75447009765625
-0.32548833984375003,0.12727405029296876,0.8677685009765626
-0.378250703125,0.04345315673828125,0.8557259375
-0.38919220703125,0.0740894482421875,1.0108046630859375
-0.50541529296875,0.1721255810546875,1.1145181689453125
-0.2746711328125,0.0593840283203125,1.0584833837890626
-0.2435486328125,0.033404453125,0.9931094677734374
-0.32208431640625,-0.00605509033203125,0.9434646142578125
-0.1939471484375,-0.00311400634765625,0.85867513671875
-0.20804953125,0.02923791748046875,0.841471474609375
-0.1958923046875,0.0093856005859375,0.8461410400390625
-0.2698082421875,0.06453092529296875,0.8382765087890625
-0.3155194140625,0.06011929931640625,0.809030283203125
-0.2022140625,0.08413815185546875,0.881777197265625
-0.31527626953125,0.09982393310546875,0.9213456201171875
-0.47404964843749997,0.13217585693359374,0.991880634765625
-0.30409162109375,0.1780077490234375,1.0936280078125
-0.3408064453125,0.0740894482421875,1.0457035205078125
-0.3816547265625,0.09786321044921875,1.0771616455078126
-0.24136033203125,0.101049384765625,1.082322744140625
-0.33253953125,0.06281529296875,0.9955671337890625
-0.1297569921875,0.07482471923828125,0.9793465380859375
-0.21947732421875,0.01845394287109375,0.9972875
-0.3388612890625,-0.032279755859375,1.0216183935546874
-0.19175884765625,0.00178780029296875,1.00023669921875
-0.4156949609375,-0.059729873046875,0.9088115234375
-0.3155194140625,0.0691876416015625,0.9488714794921875
-0.26810623046875,0.01992448486328125,0.8481071728515625
-0.29193439453125003,0.0012976196289062499,0.9577190771484375
-0.335457265625,-0.00409436767578125,1.1317218310546875
-0.40062,0.038306259765625,1.205206044921875
-0.4147223828125,0.04345315673828125,1.147205126953125
-0.28512634765625,-0.015368522949218751,1.0442289208984374
-0.284883203125,0.09198104248046875,0.9975332666015625
-0.16452666015625,-0.046249904785156254,1.15556119140625
-0.30555048828125,0.05080586669921875,1.2236385400390626
-0.36633662109375,0.06624655761718751,1.1368829296875
-0.2022140625,0.0780108935546875,1.0189149609375
-0.36098744140625,0.05815857666015625,0.9616513427734374
-0.34348103515625,0.12947986328125,0.9990078662109375
-0.327676640625,0.04590406005859375,0.944693447265625
-0.29436583984375,0.16869431640625,1.01989802734375
-0.3670660546875,0.0054641552734375,0.8834975634765625
-0.3291355078125,0.09933375244140626,0.9262609521484375
-0.33472783203125,0.09737302978515625,0.890624794921875
-0.2878009375,-0.0582593310546875,0.8962774267578125
-0.20537494140625,0.10325519775390625,1.0550426513671876
-0.292663828125,0.1211467919921875,1.145238994140625
-0.331566953125,0.07139345458984375,1.1248403662109374
-0.30263275390625,0.1093824560546875,1.1054248046875
-0.2756437109375,0.126538779296875,1.103458671875
-0.29922873046875,-0.06634731201171876,0.9815584374999999
-0.2610550390625,0.0878145068359375,1.022355693359375
-0.34883021484375,-0.04698517578125,0.886692529296875
-0.32548833984375003,-0.03693647216796875,0.839505341796875
-0.23601115234375,-0.050661530761718754,0.8154202148437499
-0.26907880859375,-0.0803174609375,0.8417172412109375
-0.24087404296875,-0.0259074072265625,0.947642646484375
-0.29193439453125003,0.0182088525390625,0.994829833984375
-0.36244630859375,0.05472731201171875,1.074458212890625
-0.205131796875,0.07972652587890625,1.1189419677734376
-0.30068759765624997,-0.00262382568359375,1.1179589013671876
-0.33375525390625,0.1270289599609375,1.1017383056640626
-0.3242726171875,0.128499501953125,1.009084296875
-0.35758341796875,0.0633054736328125,0.80067421875
-0.1667149609375,0.1633023291015625,0.7984623193359375
-0.252788125,0.0956573974609375,0.807064150390625
-0.28853037109375,0.052031318359375,0.838522275390625
-0.3203823046875,0.13756784423828125,0.93142205078125
-0.20440236328125,0.0740894482421875,0.8616243359375
-0.34542619140624997,0.07923634521484375,0.879811064453125
-0.28512634765625,0.197124794921875,1.13786599609375
-0.40475345703125,-0.02762303955078125,1.1400778955078126
-0.2999581640625,0.0427178857421875,1.2432998681640626
-0.3437241796875,0.075559990234375,1.1376202294921876
-0.34202216796875,-0.1116890234375,0.9088115234375
-0.12343523437500001,-0.0651218603515625,0.751029365234375
-0.2367405859375,-0.07835673828125,0.7168678076171875
-0.251815546875,-0.13252170166015625,0.7389868017578125
-0.253760703125,-0.0631611376953125,0.718096640625
-0.24306234375,0.13536203125,0.7257154052734375
-0.22701480468750002,0.05864875732421875,0.7325968701171874
-0.29971501953125,0.0093856005859375,0.8984893261718749
-0.3500459375,0.13658748291015624,0.9950756005859375
-0.35588140625,0.0348749951171875,1.0245675927734375
-0.28464005859375,0.017718671875,1.043983154296875
-0.34202216796875,0.1701648583984375,1.0181776611328126
-0.2211793359375,0.0740894482421875,1.005643564453125
-0.40621232421875,0.1348718505859375,1.0624156494140624
-0.37606240234375,0.0682072802734375,1.0582376171875
-0.26518849609375,-0.0945327001953125,0.818860947265625
-0.1628246484375,-0.0464949951171875,0.65812958984375
-0.179844765625,-0.03399538818359375,0.6047982373046875
-0.179844765625,-0.05115171142578125,0.6387140283203125
-0.224583359375,-0.0053198193359375,0.8262339453125
-0.38043900390625,0.15300853515625001,1.0609410498046874
-0.29679728515625,0.0883046875,1.2319946044921875
-0.38238416015625,0.008405239257812499,1.352666005859375
-0.46456701171875,0.1770273876953125,1.307444951171875
-0.382141015625,0.09026541015625,1.025304892578125
-0.31868029296875,0.03021827880859375,0.965337841796875
-0.2347954296875,0.03144373046875,0.92552365234375
-0.33910443359375,-0.01634888427734375,0.9245405859375
-0.321841171875,0.1863408203125,0.97467697265625
-0.35101851562499997,0.0495804150390625,0.7901062548828125
-0.17571130859375,0.07776580322265625,0.7198170068359375
-0.29825615234375,-0.0425735498046875,0.7869112890625
-0.2756437109375,0.0231106591796875,0.9921264013671875
-0.1968648828125,0.07041309326171875,1.031203291015625
-0.43393080078125,-0.0729647509765625,1.1135351025390625
-0.5178156640625,0.06355056396484375,1.2128248095703125
-0.506631015625,-0.1744321484375,1.1056705712890624
-0.0733474609375,-0.04772044677734375,0.9714820068359376
-0.31770771484375,-0.1116890234375,0.9599309765625
-0.3485870703125,-0.006790361328125,0.98647376953125
-0.37168580078125,-0.1523740185546875,0.9886856689453125
-0.55209904296875,0.06992291259765625,1.050864619140625
-0.34445361328125,0.159871064453125,0.876861865234375
-0.11832919921875,0.0446786083984375,0.8304119775390625
-0.3019033203125,0.15913579345703124,0.8554801708984375
-0.22823052734375,-0.05556333740234375,0.8687515673828125
-0.16914640625,-0.09232688720703125,0.92552365234375
-0.35588140625,0.09345158447265625,1.098051806640625
-0.39478453125,0.07776580322265625,1.2840971240234376
-0.54918130859375,0.11649007568359375,1.3312843115234374
-0.4925286328125,0.2133007568359375,1.2777071923828125
-0.4147223828125,0.0985984814453125,1.12213693359375
-0.34056330078125,0.04835496337890625,1.003677431640625
-0.242089765625,0.16795904541015624,1.0201437939453124
-0.405482890625,0.01110123291015625,1.1012467724609376
-0.294608984375,0.09933375244140626,1.1921804150390625
-0.27345541015625,0.13756784423828125,1.0582376171875
-0.17960162109375,-0.0180645166015625,1.052830751953125
-0.280992890625,-0.044534272460937496,0.98942296875
-0.27345541015625,-0.00654527099609375,0.872929599609375
-0.25594900390624997,-0.1043363134765625,0.856217470703125
-0.38821962890625,-0.0768861962890625,0.9048792578125
-0.09595990234375,0.169674677734375,1.043000087890625
-0.36633662109375,-0.1278649853515625,1.1302472314453125
-0.29242068359375,0.07482471923828125,1.278936025390625
-0.23309341796875,0.07090327392578125,1.113780869140625
-0.13826705078125,0.1270289599609375,1.1705529541015625
-0.42590703125,0.14001874755859375,1.1228742333984374
-0.11103486328125,-0.2406065380859375,1.111814736328125
-0.067025703125,-0.36437715576171875,1.1759598193359375
-0.32354318359375,-0.4190322998046875,1.15162892578125
-0.35563826171875,-0.36535751708984376,0.7788009912109375
-0.39405509765625,-0.29183041748046873,0.5502380517578125
-0.25254498046875,-0.25506686767578124,0.3850828955078125
-0.02009880859375,-0.1759026904296875,0.3447771728515625
0.04214619140625,-0.0009081933593750001,0.5177968603515625
0.0628134765625,0.1035002880859375,0.8495817724609375
-0.14069849609375001,0.13952856689453125,1.460803310546875
-0.670024140625,0.1706550390625,1.6094921044921875
-0.70917041015625,0.1603612451171875,1.5261772265625
-0.4857205859375,0.3525120654296875,1.3376742431640625
-0.3213548828125,0.43535259765625,1.3081822509765626
-0.49957982421875,0.37236438232421876,1.2273250390625
-0.2970404296875,0.1000690234375,0.87637033203125
-0.22579908203125,-0.0803174609375,0.8662939013671875
-0.22142248046875002,-0.07517056396484376,0.6529684912109375
-0.218747890625,-0.17271651611328126,0.526890224609375
-0.1317021484375,-0.10752248779296875,0.497398232421875
-0.1355924609375,-0.04821062744140625,0.4509483447265625
-0.1851939453125,-0.006790361328125,0.578992744140625
-0.1482359765625,0.1191860693359375,0.90193005859375
-0.36390517578125,0.00963069091796875,1.3919886621093749
-0.53021603515625,-0.08546435791015625,1.6738829541015625
-0.63768591796875,0.00619942626953125,1.7653081298828126
-0.65616490234375,-0.18595139404296876,1.3253859130859376
-0.1151683203125,-0.020515419921875,1.00810123046875
-0.34250845703125,-0.06585713134765625,0.8254966455078125
-0.2843969140625,-0.1670794384765625,0.7846993896484376
-0.2240970703125,-0.2151171435546875,0.7134270751953125
-0.14629082031250001,-0.1798241357421875,0.5241867919921875
-0.16525609375,-0.128355166015625,0.3698453662109375
-0.16306779296875,-0.10948321044921874,0.222139638671875
-0.15066742187499998,-0.112669384765625,0.1319432958984375
-0.2017277734375,-0.09330724853515625,0.1830627490234375
-0.2396583203125,-0.038161923828125,0.29906458496093746
-0.191515703125,-0.04281864013671875,0.5902980078125
-0.033714902343750006,-0.013407800292968751,1.3470133740234376
-0.595135625,0.01012087158203125,2.129718558349609
-1.06075740234375,0.25104466796875,2.129718558349609
-0.566930859375,-0.13938423095703126,2.029998759765625
-0.28512634765625,0.06698182861328125,1.0958399072265625
-0.08623412109375,-0.1523740185546875,0.9793465380859375
-0.06775513671875,-0.11242429443359375,0.782487490234375
-0.25351755859375,0.0858537841796875,0.5212375927734375
-0.31284482421875,0.05815857666015625,0.246716298828125
-0.2202067578125,-0.00311400634765625,0.219190439453125
-0.15164,-0.013407800292968751,0.20690210937499998
-0.21461443359375,0.03512008544921875,0.2268092041015625
-0.2800203125,-0.01438816162109375,0.3664046337890625
-0.2795340234375,-0.08203309326171875,0.5900522412109375
-0.35101851562499997,-0.14330567626953125,1.0594664501953126
-0.65859634765625,0.019679394531249998,1.7215616748046876
-0.9399145703125,-0.2406065380859375,2.039337890625
-0.4594609765625,0.1035002880859375,1.695756181640625
-0.2561921484375,-0.02517213623046875,1.0865007763671874
-0.16914640625,-0.2239403955078125,0.8092760498046875
-0.045872128906250004,-0.05899460205078125,0.7736398925781249
-0.082586953125,0.06845237060546874,0.7045794775390625
-0.29509527343749997,0.16599832275390625,0.850319072265625
-0.29144810546875,0.0005623486328125002,0.8731753662109375
-0.2104809765625,-0.05556333740234375,1.1238572998046874
-0.5314317578125,-0.1352176953125,1.3484879736328126
-0.40232201171875,-0.03105430419921875,1.425412919921875
-0.41399294921875,0.05668803466796875,1.3671662353515626
-0.4886383203125,0.04639424072265625,1.21847744140625
-0.39454138671875,-0.00409436767578125,1.056763017578125
-0.5197608203125,-0.0798272802734375,0.8852179296875
-0.36730919921875,-0.018554697265625,0.7987080859375
-0.17911533203125,-0.09526797119140624,0.6981895458984375
-0.0363894921875,-0.05556333740234375,0.7040879443359375
-0.08355953125,-0.05752406005859375,0.768724560546875
-0.13680818359375,-0.09404251953125001,0.9129895556640625
-0.23917203125,-0.096983603515625,1.149171259765625
-0.15869119140625,-0.0347306591796875,1.3219451806640625
-0.27199654296875,0.026296833496093748,1.34234380859375
-0.45411179687500003,-0.0327699365234375,1.2555881982421875
-0.470645625,0.02727719482421875,1.1882481494140624
-0.42566388671875,0.05423713134765625,1.105916337890625
-0.566930859375,0.036345537109375,1.08478041015625
-0.408400625,0.06257020263671875,1.0771616455078126
-0.13826705078125,0.06649164794921875,0.927981318359375
-0.12221951171875,-0.0082609033203125,1.006626630859375
-0.1949197265625,-0.01389798095703125,1.081339677734375
-0.28269490234375,-0.04772044677734375,1.0869923095703125
-0.1890842578125,0.024581201171875,1.04939001953125
-0.26129818359375,0.10619628173828125,0.9842618701171875
-0.28074974609375003,0.01575794921875,0.9356000830078125
-0.09839134765625,0.12972495361328126,1.066593681640625
-0.312115390625,0.14516564453125,1.2904870556640624
-0.51149390625,0.24638795166015626,1.3956751611328124
-0.59246103515625,0.261828642578125,1.3649543359375
-0.38530189453125,0.04051207275390625,1.31678408203125
-0.47404964843749997,-0.0016434643554687498,1.3229282470703125
-0.34639876953125,-0.076396015625,1.2757410595703125
-0.2824517578125,-0.081297822265625,1.0201437939453124
-0.19273142578125,-0.10065995849609374,0.797233486328125
-0.1307295703125,-0.15212892822265625,0.6952403466796875
-0.05900193359375,-0.21168587890625,0.73677490234375
-0.20537494140625,-0.1195319140625,0.9557529443359375
-0.38967849609375,-0.05090662109375,1.0221099267578124
-0.43441708984375,-0.07026875732421875,0.844420673828125
-0.3505322265625,-0.06830803466796875,0.7158847412109375
-0.29728357421875,-0.0268877685546875,0.6514938916015625
-0.24476435546875,-0.01732924560546875,0.621264599609375
-0.33521412109375,-0.050661530761718754,0.6745959521484375
-0.26227076171875,-0.03448556884765625,0.912252255859375
-0.3067662109375,0.02727719482421875,1.0889584423828125
-0.31819400390625,0.07825598388671876,1.1388490625
-0.33278267578125,0.1633023291015625,1.048898486328125
-0.24525064453125,0.013552136230468751,0.90193005859375
-0.09936392578125,-0.014633251953124999,0.72202890625
-0.08428896484375001,0.02360083984375,0.6038151708984375
-0.21412814453125,0.03536517578125,0.6185611669921875
-0.2503566796875,0.00766996826171875,0.6689433203125
-0.3583128515625,0.07825598388671876,0.7453767333984375
-0.34396732421875,0.19393862060546874,0.94223578125
-0.45240978515625,0.16109651611328124,1.0633987158203124
-0.5129527734375,0.2250650927734375,1.1061621044921874
