ax,ay,az
-0.18203306640625,0.06600146728515625,0.88030259765625
-0.09985021484375001,-0.05017135009765625,0.876861865234375
-0.267376796875,-0.0553182470703125,0.841471474609375
-0.08331638671875,0.0780108935546875,0.986965302734375
-0.1725504296875,-0.057278969726562504,0.908319990234375
-0.1453182421875,-0.05482806640625,1.053813818359375
-0.240144609375,-0.07566074462890625,1.0245675927734375
-0.203186640625,-0.1259042626953125,0.9818042041015624
-0.1793584765625,0.11967625,1.001711298828125
-0.3301080859375,-0.0009081933593750001,1.0353813232421876
-0.222638203125,0.095167216796875,0.9402696484374999
-0.21412814453125,0.19222298828125,0.91372685546875
-0.07359060546875,0.09737302978515625,0.9999909326171875
-0.187625390625,0.1466361865234375,1.0919076416015625
-0.209022109375,0.12923477294921876,1.199307646484375
-0.2022140625,0.111833359375,1.1464678271484374
-0.185680234375,0.1299700439453125,1.086255009765625
-0.11200744140625,-0.09330724853515625,1.002694365234375
-0.17327986328125,0.0976181201171875,1.2521474658203124
-0.45532751953125,-0.0006631030273437505,1.2627154296875
-0.29387955078125,0.028257556152343752,1.1646545556640624
-0.30749564453125,0.112813720703125,1.022355693359375
-0.27783201171875,0.028502646484374998,0.9891772021484375
-0.15382830078125,-0.0001729223632812504,1.00220283203125
-0.17036212890625,-0.01634888427734375,0.8800568310546875
-0.1764407421875,0.10227483642578125,0.832623876953125
-0.14215736328125,0.01110123291015625,0.805098017578125
-0.12829812499999999,0.00178780029296875,0.8653108349609375
-0.3271903515625,-0.00948635498046875,0.9992536328125
-0.19224513671875,-0.03203466552734375,1.0112961962890625
-0.10811712890625,0.11698025634765626,0.8913620947265625
-0.25886673828125,0.064776015625,0.8594124365234375
-0.247925234375,0.03953171142578125,0.881777197265625
-0.20197091796875,0.0005623486328125002,0.79379275390625
-0.1064151171875,0.0142874072265625,0.822793212890625
-0.23503857421875,-0.07222947998046875,0.9218371533203125
-0.15164,-0.023456503906250002,1.0098215966796875
-0.15480087890625,-0.02370159423828125,0.9604225097656249
-0.26032560546875,0.04320806640625,1.089204208984375
-0.07796720703125,0.03462990478515625,1.0889584423828125
-0.20440236328125,0.04394333740234375,1.1174673681640626
-0.20342978515625,0.1995756982421875,1.1091113037109375
-0.201241484375,0.0750698095703125,0.957473310546875
-0.1667149609375,0.240260693359375,1.038084755859375
-0.22579908203125,0.18217428466796876,1.0226014599609374
-0.33642984375,0.12335260498046875,1.000728232421875
-0.26154132812499997,0.16354741943359374,1.0621698828125
-0.2678630859375,0.17090012939453125,1.054796884765625
-0.2678630859375,0.1142842626953125,1.0103131298828125
-0.25789416015625,0.02580665283203125,1.0112961962890625
-0.31989601562500003,0.16085142578125,1.011541962890625
-0.143859375,0.101049384765625,0.9365831494140625
-0.28804408203125,0.0760501708984375,0.9056165576171875
-0.20002576171875,0.22482000244140626,0.9756600390625
-0.20148462890625,0.12874459228515625,0.8422087744140625
-0.18543708984375,0.19344843994140626,0.8495817724609375
-0.23892888671875,0.21795747314453126,0.896523193359375
-0.1988100390625,0.20717349853515626,0.8677685009765626
-0.19224513671875,0.10031411376953125,0.9164302880859375
-0.1657423828125,0.20766367919921874,1.0112961962890625
-0.1881116796875,0.0613447509765625,1.0029401318359374
-0.249870390625,0.02776737548828125,1.095102607421875
-0.220693046875,0.06600146728515625,1.0756870458984376
-0.224583359375,0.1309504052734375,1.094119541015625
-0.213885,-0.06046514404296875,1.073475146484375
-0.15820490234375,0.1510478125,1.0132623291015626
-0.14653396484375,0.0172284912109375,0.9444476806640625
-0.220693046875,0.0037485229492187503,0.9110234228515625
-0.0529233203125,0.12433296630859375,0.9233117529296875
-0.0777240625,0.0025230712890624996,0.8859552294921875
-0.13243158203125,0.1044806494140625,1.0073639306640625
-0.2279873828125,0.19982078857421876,0.9680412744140625
-0.25108611328125,0.04320806640625,0.9501003125
-0.237226875,0.271632255859375,1.043983154296875
-0.25108611328125,0.20668331787109376,0.9439561474609375
-0.2484115234375,0.122617333984375,0.8372934423828124
-0.0422249609375,0.13536203125,0.9493630126953125
-0.33132380859375,0.11207844970703125,0.9636174755859375
-0.14458880859375,0.17923320068359375,1.0943653076171875
-0.20197091796875,0.09835339111328124,0.91372685546875
-0.1827625,0.1280093212890625,0.7633176953125
-0.06872771484375,0.19884042724609374,0.7311222705078125
-0.09109701171875,0.2103596728515625,0.81935248046875
-0.1696326953125,0.21550656982421876,0.91077765625
-0.2878009375,0.2731027978515625,1.0884669091796875
-0.12562353515625,0.3012881860351562,1.0407881884765624
-0.148722265625,0.31452306396484375,1.1449932275390624
-0.12951384765625001,0.32163068359375,1.1779259521484375
-0.28974609375,0.06698182861328125,1.1037044384765624
0.04506392578125,0.21011458251953125,1.1282810986328125
-0.195406015625,0.32579721923828125,1.1150097021484375
-0.142886796875,0.389275615234375,1.3248943798828126
-0.0752926171875,0.3025136376953125,1.3691323681640626
0.0482248046875,0.15717507080078125,1.40919232421875
-0.004537558593750001,0.00570924560546875,1.3794545654296875
-0.27637314453125,-0.2484494287109375,1.2354353369140625
-0.38287044921875,-0.204823349609375,0.89996392578125
-0.3378887109375,-0.18055940673828125,0.59128107421875
-0.2095083984375,-0.2058037109375,0.377464130859375
-0.13680818359375,-0.03252484619140625,0.293411953125
0.01150998046875,0.05619785400390625,0.3216751123046875
0.059409453125,0.10595119140625,0.5507295849609375
0.0316909765625,-0.0053198193359375,0.6220018994140625
-0.09061072265625,0.06894255126953125,0.723503505859375
-0.156502890625,0.14443037353515625,1.048898486328125
-0.34542619140624997,0.25079957763671873,1.2909785888671874
-0.3797095703125,0.23560397705078126,1.3071991845703126
-0.26421591796875,0.228496357421875,1.3529117724609374
-0.3933256640625,0.3289833935546875,1.34627607421875
-0.40134943359374997,0.26060319091796874,1.2369099365234375
-0.23819945312500002,0.3348655615234375,1.2037314453125
-0.23990146484375,0.143204921875,0.9638632421875
-0.205131796875,0.0985984814453125,0.757419296875
-0.18081734375,0.114774443359375,0.635027529296875
-0.07699462890625,0.1392834765625,0.5207460595703125
-0.026177421875,0.14295983154296876,0.6569007568359375
-0.11832919921875,0.15815543212890626,0.991880634765625
-0.28658521484375,0.2221240087890625,1.2934362548828124
-0.1944334375,0.18413500732421875,1.464735576171875
-0.43052677734375,0.16697868408203126,1.4792358056640624
-0.47040248046875,0.23266289306640625,1.2349438037109375
-0.3145468359375,0.10399046875,0.9940925341796875
-0.38773333984375,0.1485969091796875,0.9739396728515625
-0.3631757421875,0.18560554931640624,0.975168505859375
-0.415208671875,0.0123266845703125,0.7984623193359375
-0.177899609375,0.018699033203125,0.69745224609375
-0.1171134765625,0.10913736572265625,0.67975705078125
-0.08428896484375001,0.212810576171875,0.892590927734375
-0.0918264453125,0.0740894482421875,1.1066536376953124
-0.25789416015625,0.022620478515625,1.178663251953125
-0.22531279296875,0.20717349853515626,1.1484339599609374
-0.2513292578125,-0.05360261474609375,0.8893959619140624
-0.12659611328125,-0.10016977783203125,0.765775361328125
-0.40815748046875,-0.010711806640625,0.74267330078125
-0.40378087890625003,0.073599267578125,0.8144371484375
-0.36050115234375,0.11403917236328125,0.7399698681640625
-0.35272052734375,0.1338914892578125,0.7375122021484375
0.09369283203125,-0.11977700439453125,0.74267330078125
0.17709140625,-0.11928682373046876,1.1661291552734374
-0.2853694921875,-0.248939609375,1.6050683056640624
-0.62941900390625,-0.12075736572265625,1.41509072265625
-0.0509781640625,-0.1210024560546875,1.033169423828125
-0.22725794921875,-0.0121823486328125,0.935845849609375
-0.1171134765625,0.0020328906249999995,0.9206083203125
-0.05243703125,-0.04428918212890625,1.0963314404296876
-0.34883021484375,0.12580350830078124,1.0186691943359376
-0.37557611328125,0.1289896826171875,0.7665126611328125
-0.28609892578125,0.1427147412109375,0.5369666552734375
-0.2513292578125,0.13266603759765624,0.4573382763671875
-0.22750109375,0.19344843994140626,0.5915268408203125
-0.0159653515625,0.206928408203125,0.7792925244140625
-0.06970029296875,0.03806116943359375,1.3278435791015626
-0.354908828125,0.1549692578125,1.463752509765625
-0.36925435546875,-0.05752406005859375,1.530601025390625
-0.38919220703125,0.1897720849609375,1.4514641796875
-0.16914640625,0.20472259521484376,1.334970810546875
-0.1166271875,0.21599675048828126,1.2654188623046876
-0.2892598046875,0.284376953125,1.167849521484375
-0.13607875,0.0946770361328125,0.891607861328125
-0.1073876953125,0.10031411376953125,0.734317236328125
-0.034930625,0.165753232421875,0.7311222705078125
-0.17765646484375,0.13413657958984376,0.9434646142578125
-0.14021220703125,0.024091020507812498,1.3327589111328124
-0.22531279296875,0.04247279541015625,1.4389300830078124
-0.35077537109375,-0.0092412646484375,1.3352165771484374
-0.21655958984375,-0.028358310546875,1.1435186279296874
-0.31284482421875,-0.011201987304687501,1.009084296875
-0.22385392578125,0.09247122314453125,0.961897109375
-0.3660934765625,-0.0018885546875000003,0.92355751953125
-0.1326747265625,-0.0063001806640625,0.8431918408203125
-0.0310403125,-0.07958218994140626,0.7134270751953125
0.11265810546874999,-0.00507472900390625,0.88816712890625
-0.0782103515625,0.157910341796875,1.095102607421875
-0.26956509765625,0.093206494140625,1.136391396484375
-0.31235853515625,0.1897720849609375,1.257308564453125
-0.43052677734375,0.10399046875,1.3691323681640626
-0.30141703125,0.09149086181640625,1.327106279296875
-0.22190876953125,0.03806116943359375,1.1312302978515625
-0.2484115234375,0.09982393310546875,0.97467697265625
-0.20488865234375,0.0574233056640625,0.7925639208984375
-0.22434021484375,0.0133070458984375,0.656654990234375
-0.107873984375,0.064776015625,0.5738316455078125
0.04555021484375,0.06355056396484375,0.5467973193359374
-0.005753281249999999,0.1510478125,0.7031048779296875
-0.1151683203125,0.21207530517578124,0.9896687353515625
-0.25983931640625,0.1309504052734375,1.24600330078125
-0.19662173828125,0.18217428466796876,1.2762325927734375
-0.19856689453125,0.2564366552734375,1.1017383056640626
-0.07869664062500001,0.27824969482421874,1.078390478515625
-0.26518849609375,0.28413186279296876,1.0309575244140625
-0.3057936328125,0.25570138427734374,1.01989802734375
-0.32548833984375003,0.289278759765625,1.00613509765625
-0.2328502734375,0.32187577392578126,1.028745625
-0.177899609375,0.2309472607421875,0.9228202197265625
-0.1112780078125,0.0897752294921875,0.8141913818359375
-0.03274232421875,0.04296297607421875,0.7085117431640625
-0.10617197265625,0.05889384765625,0.6711552197265624
0.06208404296875,-0.025662316894531252,0.7328426367187499
-0.13000013671875,0.09810830078125,1.0176861279296876
-0.38773333984375,0.1358522119140625,1.281885224609375
-0.2017277734375,0.1691844970703125,1.3649543359375
-0.39454138671875,0.15178308349609376,1.24796943359375
-0.30871136718750003,0.183399736328125,0.861132802734375
-0.0937716015625,0.085363603515625,0.63650212890625
-0.07407689453124999,0.04492369873046875,0.6008659716796875
-0.249870390625,0.112813720703125,0.7153932080078125
-0.2552195703125,-0.0023787353515625003,0.9616513427734374
-0.1385101953125,0.16011615478515626,1.2093840771484374
-0.16501294921875,0.0922261328125,1.233714970703125
-0.13486302734375,0.11845079833984375,1.229782705078125
-0.13413359375,0.08021670654296875,1.042017021484375
-0.24695265625,0.21795747314453126,0.938795048828125
-0.36390517578125,0.10987263671875,1.0555341845703126
-0.27151025390625,0.269671533203125,1.0009739990234374
-0.24816837890625,0.16599832275390625,0.7665126611328125
-0.16793068359375,0.19638952392578124,0.63453599609375
-0.16793068359375,0.07090327392578125,0.6446124267578125
-0.08283009765625,0.02923791748046875,0.7552073974609375
-0.259596171875,0.14295983154296876,0.858183603515625
-0.222638203125,0.04688442138671875,0.858183603515625
-0.0072121484375,0.00399361328125,1.0226014599609374
-0.1637972265625,0.1157548046875,1.125577666015625
-0.154557734375,0.173596123046875,1.2329776708984375
-0.257651015625,0.2522701196289063,1.2671392285156249
-0.38189787109375,0.26501481689453127,1.169815654296875
-0.3437241796875,0.12555841796875,0.9616513427734374
-0.221665625,0.12286242431640625,0.8844806298828125
-0.088422421875,0.18952699462890624,0.7940385205078125
-0.12221951171875,0.17433139404296874,0.6814774169921874
-0.15528716796875,0.2329079833984375,0.86260740234375
-0.3111428125,0.25668174560546875,1.02776255859375
-0.15236943359375,0.10815700439453126,1.1479424267578124
-0.16938955078125,0.14394019287109375,1.2806563916015625
-0.242089765625,0.0701680029296875,1.212087509765625
-0.257651015625,0.16673359375,0.997779033203125
-0.2834243359375,0.2093793115234375,0.8053437841796875
-0.24476435546875,0.17972338134765625,0.79379275390625
-0.2853694921875,0.2329079833984375,0.850319072265625
-0.1813036328125,0.23364325439453126,0.9218371533203125
-0.1239215234375,0.153988896484375,1.0071181640625
-0.12027435546875,0.14443037353515625,1.0343982568359376
-0.26470220703125,0.1157548046875,1.14671359375
-0.27005138671875,0.048109873046875,1.14179826171875
-0.25084296875,0.2177123828125,1.1710444873046875
-0.26251390625,0.20178151123046875,1.0678225146484375
-0.1424005078125,0.1760470263671875,0.9365831494140625
-0.13826705078125,0.1485969091796875,0.87931953125
-0.1939471484375,0.11967625,0.8530225048828125
-0.0782103515625,0.024581201171875,0.8466325732421875
-0.29047552734375,-0.03497574951171875,0.837539208984375
-0.34104958984375,0.11256863037109376,0.843929140625
-0.074806328125,0.05864875732421875,0.8898874951171875
-0.23406599609375,0.0319339111328125,0.899472392578125
-0.1268392578125,0.089285048828125,0.9267524853515625
-0.09936392578125,0.00791505859375,1.0230929931640624
-0.24281919921875,0.189281904296875,1.052830751953125
-0.218747890625,0.22187891845703125,1.0629071826171874
-0.12221951171875,0.1456558251953125,1.12803533203125
-0.14702025390625,0.2348687060546875,1.202256845703125
-0.2153438671875,0.187321181640625,1.2025026123046876
-0.185680234375,0.216732021484375,1.1975872802734375
-0.1686601171875,0.1706550390625,1.111814736328125
-0.35466568359375,0.24442722900390626,1.0987891064453126
-0.35661083984374997,0.20006587890625,1.1263149658203124
-0.24184662109375,0.049090234375,1.046932353515625
-0.21655958984375,0.18952699462890624,1.0565172509765626
-0.09741876953125,0.04320806640625,0.9872110693359375
-0.1890842578125,0.0623251123046875,0.9601767431640625
-0.13145900390625,0.19540916259765626,1.0353813232421876
-0.2610550390625,0.044188427734375,0.9872110693359375
-0.2406308984375,0.063795654296875,0.9196252539062499
-0.16160892578125,-0.10654212646484375,0.74267330078125
-0.07018658203125,0.042227705078125,0.694011513671875
-0.011588750000000002,0.11771552734375,0.7252238720703125
0.0384990234375,0.18707609130859376,0.9950756005859375
-0.18689595703125,0.371629111328125,1.437209716796875
-0.43830740234375,0.381432724609375,1.725248173828125
-0.48596373046875,0.3044743603515625,1.6635607568359374
-0.43879369140625,0.31770923828125,1.3612678369140625
-0.288773515625,0.150067451171875,0.9196252539062499
-0.1248941015625,-0.029338671875,0.67189251953125
-0.067025703125,-0.10409122314453124,0.544585419921875
0.0910182421875,-0.03742665283203125,0.5197629931640625
0.0910182421875,-0.0055649096679687505,0.766758427734375
-0.1346198828125,0.169674677734375,1.1145181689453125
-0.300444453125,0.167713955078125,1.389039462890625
-0.40815748046875,0.1652630517578125,1.450972646484375
-0.42469130859375,0.26060319091796874,1.230765771484375
-0.36220316406249997,0.22751599609375,1.025304892578125
-0.30457791015625,0.0907555908203125,0.784453623046875
-0.2027003515625,0.01551285888671875,0.7547158642578125
-0.11298001953125,0.0133070458984375,0.748080166015625
-0.1842213671875,0.06355056396484375,0.8117337158203125
-0.13097271484375,0.05668803466796875,0.9862280029296875
-0.1424005078125,0.12163697265625,0.9926179345703126
-0.213885,0.228496357421875,0.9877026025390625
-0.08769298828125,0.25325048095703123,1.022355693359375
-0.1540714453125,0.12923477294921876,1.062661416015625
-0.27029453125,0.12163697265625,1.1041959716796874
-0.20804953125,0.08609887451171874,0.978117705078125
-0.12562353515625,0.1240878759765625,0.8200897802734375
-0.14215736328125,0.15080272216796875,0.890624794921875
-0.316005703125,0.07065818359375,1.0171945947265626
-0.29047552734375,0.2103596728515625,1.0958399072265625
-0.26470220703125,0.2554562939453125,1.0525849853515625
-0.25740787109375,0.300062734375,1.02186416015625
-0.19856689453125,0.16452778076171876,0.9402696484374999
-0.0704297265625,0.15300853515625001,0.9631259423828125
-0.05024873046875,0.1682041357421875,0.900455458984375
-0.09158330078125,0.10766682373046875,0.7928096875
-0.1637972265625,0.20521277587890624,0.8053437841796875
-0.140941640625,0.208889130859375,0.820827080078125
-0.20002576171875,0.20276187255859374,0.8530225048828125
-0.25108611328125,0.23609415771484374,0.9085657568359375
-0.25935302734375,0.13511694091796875,0.818860947265625
-0.27272597656249997,0.14492055419921876,0.68762158203125
-0.24914095703125,0.0652661962890625,0.658621123046875
-0.1608794921875,0.03413972412109375,0.6185611669921875
-0.034930625,0.0819323388671875,0.721537373046875
-0.004294414062500002,0.1471263671875,0.899472392578125
-0.18446451171875,0.30815071533203126,1.13589986328125
-0.234309140625,0.324571767578125,1.2221639404296876
-0.1492085546875,0.18805645263671875,1.17817171875
-0.13729447265625,0.19001717529296874,1.279919091796875
-0.12756869140625,0.10717664306640624,1.3902682958984376
-0.36147373046875,0.1035002880859375,1.266156162109375
-0.19637859375,0.201046240234375,1.0550426513671876
-0.299471875,0.1142842626953125,0.9179048876953125
-0.36341888671875,0.222614189453125,0.9813126708984374
-0.3267040625,0.21158512451171874,1.0461950537109375
-0.263486484375,0.18462518798828126,1.15949345703125
-0.125380390625,0.3093761669921875,1.100017939453125
-0.2124261328125,0.12874459228515625,0.8584293701171875
-0.1166271875,0.1005592041015625,0.9400238818359374
-0.07115916015625,0.10276501708984374,0.969270107421875
-0.25059982421875,0.20913422119140626,1.1572815576171875
-0.210967265625,0.19835024658203124,1.2895039892578124
-0.3223274609375,0.19687970458984375,1.1838243505859376
-0.1813036328125,0.257907197265625,1.0179318945312499
-0.3028758984375,0.08707923583984375,0.8918536279296875
-0.247925234375,0.12825441162109374,0.953541044921875
-0.20294349609375,0.06673673828125,0.9852449365234375
-0.22750109375,0.09198104248046875,0.887675595703125
-0.19808060546875,0.008895419921875,0.817877880859375
-0.06580998046875,0.0407571630859375,0.8220559130859375
-0.222638203125,0.16109651611328124,0.714655908203125
-0.2309051171875,0.10202974609375,0.896523193359375
-0.2085358203125,0.07457962890625,1.0309575244140625
-0.370470078125,0.23119235107421876,1.065610615234375
-0.26324333984375,0.1387932958984375,0.8333611767578125
-0.02787943359375,0.07090327392578125,0.67484171875
-0.06240595703125,0.14443037353515625,0.5649840478515625
-0.09887763671875,0.16795904541015624,0.6569007568359375
-0.21364185546875,0.13609730224609376,0.8977520263671875
-0.3038484765625,0.16697868408203126,1.1474508935546874
-0.31041337890625,0.11992134033203125,1.2627154296875
-0.304334765625,0.1642826904296875,1.247477900390625
-0.2017277734375,0.10913736572265625,1.0280083251953125
-0.168173828125,0.204967685546875,0.90389619140625
-0.1696326953125,0.069677822265625,0.8417172412109375
-0.10033650390625,0.191242626953125,0.789368955078125
-0.17814275390625,0.07972652587890625,0.94715111328125
-0.1710915625,0.11403917236328125,1.2182316748046875
-0.35369310546875,0.0740894482421875,1.235681103515625
-0.2464663671875,0.0789912548828125,1.1007552392578126
-0.20197091796875,0.10619628173828125,0.9675497412109375
-0.39502767578125,0.13315621826171875,0.8363103759765624
-0.216802734375,0.1378129345703125,0.902421591796875
-0.195406015625,0.10178465576171875,0.9965502001953125
-0.32791978515625,0.23952542236328125,1.00023669921875
-0.201241484375,-0.023456503906250002,0.9953213671875
-0.02787943359375,-0.08963089355468751,1.0270252587890625
-0.13291787109375,0.015022678222656249,1.1980788134765625
-0.37460353515625,-0.03693647216796875,1.3479964404296876
-0.35417939453125,-0.14722712158203125,1.3216994140625
-0.30603677734375,0.0740894482421875,1.2290454052734374
-0.413263515625,-0.12712971435546874,0.98057537109375
-0.32475890625,-0.035711020507812496,0.9208540869140625
-0.206104375,0.0005623486328125002,0.924049052734375
-0.18786853515625002,-0.0210056005859375,0.96288017578125
-0.3417790234375,0.1505576318359375,1.101984072265625
-0.10495625,0.03144373046875,1.166866455078125
-0.35320681640625,-0.155805283203125,0.8970147265625
-0.23455228515625,0.0476196923828125,0.864082001953125
-0.15431458984375,-0.02664267822265625,0.7790467578125
-0.26227076171875,-0.0719843896484375,0.8812856640625
-0.30992708984375,0.10913736572265625,0.975168505859375
-0.13194529296875,-0.13056097900390626,0.9532952783203125
-0.280992890625,0.01698340087890625,0.9724650732421874
-0.29825615234375,-0.027868129882812502,0.9097945898437501
-0.234309140625,0.071638544921875,0.9677955078125
-0.33375525390625,0.07531489990234375,0.9881941357421875
-0.31381740234375,0.05031568603515625,0.9198710205078124
-0.197351171875,0.11011772705078125,0.8820229638671875
-0.2124261328125,0.02335574951171875,0.8171405810546875
-0.1550440234375,0.064776015625,0.787402822265625
0.0020273437500000005,0.0799716162109375,0.8780906982421874
-0.2425760546875,0.0897752294921875,1.050864619140625
-0.24306234375,0.14982236083984374,1.20274837890625
-0.2668905078125,0.19246807861328125,1.2737749267578125
-0.35661083984374997,0.063795654296875,1.232731904296875
-0.325731484375,0.0976181201171875,1.0570087841796876
-0.29679728515625,0.09247122314453125,0.8891501953125
-0.29363640625,0.10717664306640624,0.8343442431640625
-0.2523018359375,0.0819323388671875,0.7117067089843749
-0.16793068359375,0.0642858349609375,0.590789541015625
-0.07650833984375,-0.0710040283203125,0.6303579638671875
-0.13437673828125,-0.00311400634765625,0.771673759765625
-0.22944625,0.09345158447265625,0.993355234375
-0.1034973828125,0.05668803466796875,1.192426181640625
-0.1676875390625,0.1471263671875,1.2737749267578125
-0.08866556640625001,0.08462833251953125,1.2961396875
-0.317950859375,0.14884199951171875,1.304495751953125
-0.3816547265625,0.152028173828125,1.2511643994140624
-0.234309140625,0.0682072802734375,1.111323203125
-0.28998923828125,0.0378160791015625,0.9763973388671875
-0.20586123046875,0.07286399658203124,0.8790737646484375
-0.09839134765625,-0.08963089355468751,0.870963466796875
-0.26056875,0.02482629150390625,0.9813126708984374
-0.18154677734375,-0.01781942626953125,1.0629071826171874
-0.20099833984375,-0.08693489990234375,1.1494170263671875
-0.21169669921875,0.04296297607421875,1.066593681640625
-0.057543066406249996,0.06649164794921875,0.9609140429687499
-0.02593427734375,0.0574233056640625,0.927981318359375
-0.22434021484375,0.04982550537109375,1.00220283203125
-0.2435486328125,0.14590091552734374,1.09067880859375
-0.2921775390625,0.0765403515625,1.14376439453125
-0.263486484375,0.1966346142578125,1.2737749267578125
-0.2960678515625,0.0231106591796875,1.1076367041015625
-0.14410251953125,0.10227483642578125,1.03759322265625
-0.2450075,0.10472573974609375,0.87931953125
-0.17182099609375,0.028257556152343752,0.84097994140625
-0.004294414062500002,0.16060633544921876,0.875878798828125
-0.1083602734375,0.07629526123046874,1.009575830078125
-0.1093328515625,0.08658905517578125,1.162934189453125
-0.2513292578125,0.18364482666015625,1.129509931640625
-0.216802734375,0.17825283935546876,1.0629071826171874
-0.23528171875,0.21648693115234374,0.9065996240234375
-0.24136033203125,0.21305566650390625,0.8734211328125
-0.1968648828125,0.2723675268554687,0.918150654296875
-0.197351171875,0.182419375,0.8923451611328125
-0.2231244921875,0.23952542236328125,0.8908705615234375
-0.1710915625,0.24344686767578125,0.9921264013671875
-0.16112263671875,0.22874144775390626,0.9985163330078125
-0.21193984375,0.2760438818359375,1.2000449462890626
-0.1667149609375,0.19393862060546874,1.182103984375
-0.17182099609375,0.030708459472656248,1.0181776611328126
-0.0966893359375,0.0255615625,0.963371708984375
-0.15164,0.0172284912109375,0.887675595703125
-0.1890842578125,0.08364797119140625,1.045949287109375
-0.15723232421875,0.14345001220703124,1.13589986328125
-0.32646091796875,0.13903838623046874,1.15949345703125
-0.2435486328125,0.14050892822265626,1.1425355615234376
-0.3369161328125,0.07065818359375,1.0270252587890625
-0.30871136718750003,0.08021670654296875,0.943710380859375
-0.158448046875,0.106931552734375,0.9007012255859375
-0.17084841796875,0.10080429443359375,0.9985163330078125
-0.2153438671875,0.04982550537109375,1.1558069580078125
-0.240144609375,0.03266918212890625,1.0884669091796875
-0.174009296875,0.04149243408203125,0.9245405859375
-0.2396583203125,0.07261890625,0.884726396484375
-0.15747546875,0.0037485229492187503,0.8815314306640625
-0.31916658203125,0.069677822265625,0.9380577490234375
-0.152612578125,0.08070688720703124,1.00416896484375
-0.2386857421875,0.052031318359375,0.9144641552734375
-0.27151025390625,0.12090170166015625,0.9375662158203125
-0.304334765625,0.08021670654296875,0.8380307421875
-0.1949197265625,0.09688284912109375,0.7601227294921875
-0.19808060546875,0.096147578125,0.744147900390625
-0.1210037890625,0.04639424072265625,0.88816712890625
-0.109819140625,0.00227798095703125,0.9768888720703125
-0.2396583203125,0.1211467919921875,1.097068740234375
-0.189570546875,0.24295668701171874,1.134916796875
-0.3038484765625,0.2299668994140625,0.900455458984375
-0.0996070703125,0.23756469970703126,0.8380307421875
-0.154557734375,0.25888755859375,0.8952943603515625
-0.16841697265625,0.27040680419921875,0.97860923828125
-0.20829267578125,0.25913264892578125,0.9604225097656249
-0.22677166015625,0.24001560302734376,0.8549886376953125
-0.18203306640625,0.25570138427734374,0.9410069482421874
-0.22190876953125,0.23266289306640625,1.0759328125
-0.34785763671875003,0.24148614501953125,1.192426181640625
-0.2095083984375,0.18609572998046875,1.134916796875
-0.24306234375,0.14124419921875,0.9572275439453125
-0.115654609375,0.0672269189453125,0.8141913818359375
-0.1754681640625,0.0446786083984375,0.9257694189453125
-0.237226875,0.1235976953125,1.051847685546875
-0.1861665234375,0.12335260498046875,0.9906518017578125
-0.2678630859375,0.0456589697265625,0.999745166015625
-0.25740787109375,0.15692998046875,1.064136015625
-0.16258150390625,0.01404231689453125,0.9223286865234375
-0.12805498046875,0.03512008544921875,0.7905977880859375
-0.15066742187499998,0.0770305322265625,0.7537327978515624
0.0008116210937499993,-0.03301502685546875,0.788385888671875
-0.1710915625,0.14908708984375,1.0432458544921874
-0.1851939453125,0.1564397998046875,1.2039772119140626
-0.299471875,0.089285048828125,1.2585373974609375
-0.2240970703125,0.17040994873046875,1.307444951171875
-0.143859375,0.2358490673828125,1.2037314453125
-0.22336763671875,0.08462833251953125,1.124594599609375
-0.28998923828125,0.16305723876953124,1.271071494140625
-0.28561263671875,0.1427147412109375,1.1140266357421875
-0.1190586328125,0.01257177490234375,0.9606682763671874
-0.18640966796875,0.08560869384765625,0.7856824560546875
0.025612363281249998,0.08462833251953125,0.7119524755859374
-0.09595990234375,0.128499501953125,0.801165751953125
-0.03955037109375,0.1319307666015625,0.972219306640625
-0.16549923828125,0.1397736572265625,1.1209081005859376
-0.205131796875,0.16109651611328124,1.1705529541015625
-0.3145468359375,0.1549692578125,1.0865007763671874
-0.26275705078125,0.12947986328125,0.9709904736328125
-0.27151025390625,0.2211436474609375,0.855234404296875
-0.10690140625,0.09541230712890625,0.850319072265625
-0.18932740234375,0.16305723876953124,0.864082001953125
-0.257651015625,0.19614443359375,0.921099853515625
-0.14312994140625,0.25864246826171877,0.9134810888671875
-0.0986344921875,0.21795747314453126,0.851793671875
-0.12513724609375,0.2522701196289063,0.923065986328125
-0.14191421875,0.25423084228515624,0.899472392578125
-0.08331638671875,0.22531018310546874,0.8154202148437499
-0.09912078125,0.24393704833984375,0.8259881787109375
-0.17619759765625,0.27040680419921875,0.9975332666015625
-0.26275705078125,0.2907493017578125,1.0597122167968749
-0.2722396875,0.222614189453125,1.1012467724609376
-0.25789416015625,0.30177836669921876,1.0604495166015624
-0.21193984375,0.1907524462890625,0.994829833984375
-0.203186640625,0.242221416015625,1.039067822265625
-0.1248941015625,0.19344843994140626,1.02776255859375
-0.18981369140625,0.193203349609375,1.0334151904296875
-0.121490078125,0.1485969091796875,1.0771616455078126
-0.0889087109375,0.21967310546875,1.116730068359375
-0.14993798828125,0.2044775048828125,1.168832587890625
-0.13291787109375,0.22334946044921875,1.1317218310546875
-0.177899609375,0.1554594384765625,1.0444746875
-0.29242068359375,0.20031096923828126,1.09264494140625
-0.1608794921875,0.20619313720703125,1.08871267578125
-0.2668905078125,0.17237067138671874,0.9749227392578125
-0.2843969140625,0.19197789794921874,0.92748978515625
-0.1307295703125,0.12139188232421876,0.8230389794921875
-0.23552486328125,0.12874459228515625,0.767741494140625
-0.2396583203125,0.10399046875,0.7537327978515624
-0.1424005078125,0.11943115966796874,0.8048522509765625
-0.15625974609374998,0.190262265625,1.03759322265625
-0.2027003515625,0.23609415771484374,1.150154326171875
-0.10495625,0.19295825927734375,1.111323203125
-0.10325423828125,0.155949619140625,1.1010010058593749
-0.25935302734375,0.2726126171875,1.1602307568359376
-0.3573402734375,0.21697711181640625,1.1110774365234375
-0.25205869140625,0.22972180908203124,1.0958399072265625
-0.25157240234375,0.284376953125,1.003677431640625
-0.20026890625,0.2672206298828125,0.86064126953125
-0.175954453125,0.14737145751953126,0.8427003076171875
-0.1949197265625,0.26280900390625,0.84097994140625
-0.187625390625,0.21967310546875,0.7566819970703125
-0.20342978515625,0.20864404052734375,0.8023945849609375
-0.1034973828125,0.23119235107421876,0.8790737646484375
-0.1321884375,0.0799716162109375,0.860149736328125
-0.10957599609375,0.14099910888671874,1.001219765625
-0.14069849609375001,0.21207530517578124,1.0388220556640624
-0.33375525390625,0.17776265869140626,0.9714820068359376
-0.221665625,0.2740831591796875,0.9638632421875
-0.12902755859375,0.2505544873046875,0.9778719384765625
-0.24573693359375,0.308885986328125,1.120662333984375
-0.25011353515625,0.3054547216796875,1.16145958984375
-0.12708240234375,0.23903524169921875,1.15162892578125
-0.23795630859375,0.2907493017578125,1.1351625634765625
-0.189570546875,0.2436919580078125,1.115747001953125
-0.25400384765625,0.2182025634765625,1.1100943701171875
-0.30652306640625,0.22776108642578125,1.16932412109375
-0.2445212109375,0.2927100244140625,1.1100943701171875
-0.2775888671875,0.10864718505859375,0.947642646484375
-0.19905318359375002,0.1191860693359375,0.9980247998046875
-0.170118984375,0.142224560546875,0.930930517578125
-0.207076953125,0.0633054736328125,0.8830060302734375
-0.23649744140625,0.17506666503906249,0.951574912109375
-0.23406599609375,0.0985984814453125,0.9065996240234375
-0.15139685546875,0.0956573974609375,0.891607861328125
-0.23017568359375,0.16942958740234376,0.964354775390625
-0.13778076171875,0.0897752294921875,1.0599579833984376
-0.21655958984375,0.13315621826171875,1.0098215966796875
-0.1710915625,0.1868310009765625,1.00810123046875
-0.17911533203125,0.2113400341796875,0.9724650732421874
-0.195406015625,0.1211467919921875,0.9282270849609375
-0.1774133203125,0.234378525390625,0.9665666748046875
-0.14410251953125,0.2177123828125,1.012525029296875
-0.2211793359375,0.11845079833984375,0.9208540869140625
-0.07796720703125,0.20423241455078125,0.9559987109375
-0.201241484375,0.12923477294921876,0.911269189453125
-0.2620276171875,0.11452935302734375,0.969761640625
-0.09887763671875,0.10472573974609375,0.8957858935546875
-0.25740787109375,0.12555841796875,0.8154202148437499
-0.08672041015625,0.17972338134765625,1.000728232421875
-0.1633109375,0.21305566650390625,1.03661015625
-0.226528515625,0.19933060791015625,1.06020375
-0.21996361328125,0.31109179931640624,1.1213996337890624
-0.1433730859375,0.236339248046875,1.0840431103515624
-0.22482650390625,0.24589777099609375,1.0692971142578125
-0.20488865234375,0.20178151123046875,1.1292641650390625
-0.1725504296875,0.20227169189453126,0.9599309765625
-0.24379177734375002,0.16697868408203126,0.89013326171875
-0.1579617578125,0.15717507080078125,0.9085657568359375
-0.1492085546875,0.16305723876953124,0.9572275439453125
-0.17522501953125,0.1515379931640625,0.9596852099609375
-0.24136033203125,0.15570452880859376,0.9665666748046875
-0.21996361328125,0.2152614794921875,0.9901602685546875
-0.18932740234375,0.104970830078125,0.9739396728515625
-0.12513724609375,0.23168253173828124,1.1076367041015625
-0.2542469921875,0.242221416015625,1.0398051220703124
-0.220693046875,0.16942958740234376,1.0638902490234374
-0.13534931640625,0.33707137451171876,1.03169482421875
-0.21364185546875,0.11403917236328125,0.8269712451171874
-0.1044699609375,0.16011615478515626,0.8500733056640625
-0.172064140625,0.1858506396484375,0.873912666015625
-0.09401474609375,0.23315307373046876,0.9223286865234375
-0.189570546875,0.1878113623046875,1.03661015625
-0.2571647265625,0.11207844970703125,1.134916796875
-0.09693248046875,0.0652661962890625,1.056763017578125
-0.10957599609375,0.216732021484375,1.023338759765625
-0.1793584765625,-0.0033590966796874996,0.91372685546875
-0.21023783203125002,0.10815700439453126,1.0186691943359376
-0.25351755859375,0.1436951025390625,0.9975332666015625
-0.2766162890625,0.057913486328125,0.796741953125
-0.11687033203125,0.23511379638671875,0.749063232421875
-0.15042427734375,0.161831787109375,0.710723642578125
-0.09644619140624999,0.1642826904296875,0.773148359375
-0.1540714453125,0.1446754638671875,0.7812586572265625
-0.06799828125,0.20227169189453126,0.8382765087890625
-0.20148462890625,0.17629211669921874,0.904387724609375
-0.2255559375,0.158890703125,1.040542421875
-0.2411171875,0.24834867431640625,1.0633987158203124
-0.28415376953125,0.27628897216796877,1.0466865869140625
-0.205131796875,0.2407508740234375,0.9188879541015624
-0.23601115234375,0.21746729248046875,0.896523193359375
-0.07188859375000001,0.2515348486328125,0.9975332666015625
-0.30603677734375,0.236339248046875,1.0088385302734375
-0.16112263671875,0.23462361572265625,1.042017021484375
-0.30360533203125,0.148106728515625,0.9031588916015625
-0.08817927734375,0.17261576171875,0.9061080908203125
-0.1064151171875,0.17286085205078125,0.839505341796875
-0.174981875,0.20031096923828126,0.89504859375
-0.11395259765625,0.23413343505859374,0.979100771484375
-0.31576255859375,0.19540916259765626,1.121645400390625
-0.190543125,0.3525120654296875,1.20668064453125
-0.277102578125,0.23119235107421876,1.172764853515625
-0.30652306640625,0.2647697265625,1.3273520458984376
-0.35199109375,0.21060476318359375,1.0299744580078125
-0.26178447265625,0.255946474609375,0.9242948193359375
-0.1900568359375,0.222614189453125,0.88423486328125
-0.27491427734375,0.1319307666015625,0.865065068359375
-0.14021220703125,0.19001717529296874,0.9297016845703125
-0.26372962890625,0.17090012939453125,0.8613785693359375
-0.0558410546875,0.20962440185546874,0.8136998486328125
-0.07359060546875,0.1672237744140625,0.86260740234375
-0.286828359375,0.09394176513671874,1.0073639306640625
-0.1861665234375,0.23143744140625,1.11623853515625
-0.30530734375,0.1250682373046875,1.0034316650390624
-0.3991611328125,0.1182057080078125,0.82525087890625
-0.15771861328125,0.11992134033203125,0.8156659814453124
-0.24816837890625,0.07090327392578125,0.936828916015625
-0.38287044921875,0.10202974609375,0.9360916162109375
-0.1715778515625,-0.0190448779296875,0.7660211279296875
-0.01474962890625,-0.0371815625,0.8038691845703125
-0.15528716796875,0.0760501708984375,0.8653108349609375
-0.10374052734375,0.08854977783203125,1.0127707958984375
-0.09158330078125,0.05619785400390625,1.138357529296875
-0.32281375,0.1887917236328125,1.129509931640625
-0.18543708984375,0.14443037353515625,1.0776531787109376
-0.26056875,0.17335103271484376,1.093136474609375
-0.3631757421875,0.21207530517578124,1.08871267578125
-0.22239505859375,0.2652599072265625,1.0201437939453124
-0.23114826171875,0.22285927978515624,0.90389619140625
-0.23844259765625,0.163792509765625,0.9331424169921875
-0.21558701171875,0.12629368896484375,0.9837703369140625
-0.22701480468750002,-0.05409279541015625,0.987948369140625
-0.11346630859375,0.0976181201171875,0.977134638671875
-0.1540714453125,0.065756376953125,0.935845849609375
-0.09352845703125,0.11501953369140624,0.884726396484375
-0.08137123046875,0.16060633544921876,0.8989808593749999
-0.22871681640625,0.10521592041015625,1.0501273193359375
-0.19346085937500002,0.19933060791015625,1.145238994140625
-0.34007701171875,0.25766210693359376,1.218968974609375
-0.249870390625,0.203006962890625,1.294665087890625
-0.26907880859375,0.17678229736328124,1.214053642578125
-0.2542469921875,0.204967685546875,1.1223827001953124
-0.25594900390624997,-0.0170841552734375,0.96681244140625
-0.2202067578125,0.05497240234375,0.8422087744140625
-0.14702025390625,-0.05482806640625,0.7443936669921875
-0.2450075,-0.09330724853515625,0.7593854296875
0.030232109375,-0.05090662109375,0.7178508740234375
-0.1744955859375,0.044188427734375,0.8301662109375
-0.1180860546875,0.1495772705078125,1.0385762890625
-0.216802734375,0.06649164794921875,1.117713134765625
-0.3271903515625,0.132420947265625,1.264190029296875
-0.24914095703125,0.20080114990234374,1.1494170263671875
-0.28609892578125,0.0721287255859375,1.112797802734375
-0.32281375,0.11305881103515625,1.0860092431640624
-0.29242068359375,0.10227483642578125,0.9980247998046875
-0.09206958984375,0.06747200927734374,0.978117705078125
-0.27199654296875,0.15325362548828125,0.9601767431640625
-0.1550440234375,0.13168567626953126,0.868997333984375
-0.1560166015625,0.1760470263671875,0.8712092333984375
-0.09109701171875,0.05105095703125,0.997779033203125
-0.049762441406249996,0.1235976953125,1.0884669091796875
-0.24233291015625,0.1863408203125,1.1395863623046876
-0.2435486328125,0.19148771728515626,1.153103525390625
-0.30749564453125,0.01110123291015625,1.1272980322265624
-0.325731484375,0.05374695068359375,1.0884669091796875
-0.28585578125,0.01992448486328125,0.9238032861328125
-0.12416466796875,-0.18055940673828125,0.8967689599609375
-0.0957167578125,-0.2631548486328125,0.8510563720703125
-0.06191966796875,-0.2670762939453125,0.7232577392578124
-0.10228166015625,-0.31756490234375,0.7473428662109375
-0.1764407421875,-0.32565288330078124,0.7011387451171875
-0.214857578125,-0.27859553955078126,0.5467973193359374
-0.2503566796875,-0.280311171875,0.5379497216796875
-0.300444453125,-0.2935460498046875,0.54409388671875
-0.22920310546875,-0.0141430712890625,0.5104238623046875
-0.03274232421875,0.163792509765625,0.9196252539062499
-0.0422249609375,0.25668174560546875,1.0653648486328124
-0.10544253906250001,0.30864089599609373,1.2875378564453124
-0.382141015625,0.3824130859375,1.4212348876953125
-0.463837578125,0.33511065185546873,1.23224037109375
-0.403537734375,0.2907493017578125,1.04939001953125
-0.35952857421875,0.2333981640625,0.8859552294921875
-0.3359435546875,0.2417312353515625,0.7222746728515625
-0.28269490234375,0.30324890869140625,0.8977520263671875
-0.23066197265625,0.36648221435546874,1.092153408203125
-0.17473873046875,0.31378779296875,1.0948568408203125
-0.31478998046875,0.2201632861328125,1.0329236572265625
-0.25303126953125,0.1231075146484375,0.8117337158203125
-0.1083602734375,0.057913486328125,0.757419296875
-0.08963814453125,0.1142842626953125,0.8790737646484375
-0.2279873828125,0.0691876416015625,1.056763017578125
-0.13413359375,0.06257020263671875,1.1184504345703126
-0.07359060546875,-0.0006631030273437505,1.20864677734375
-0.2095083984375,0.069677822265625,1.2998261865234375
-0.45702953125,0.09590248779296875,1.3258774462890626
-0.5129527734375,0.11967625,1.1966042138671875
-0.3515048046875,0.091245771484375,1.0068723974609375
-0.2746711328125,0.01845394287109375,0.8262339453125
-0.24768208984375,-0.1288453466796875,0.7554531640625
-0.06410796875,-0.18742193603515625,0.7942842871093749
-0.0986344921875,-0.14771730224609375,0.84786140625
-0.20732009765625,-0.1229631787109375,0.8073099169921875
-0.0232596875,-0.0886505322265625,0.7901062548828125
-0.1710915625,-0.03448556884765625,0.8476156396484374
-0.16938955078125,0.0789912548828125,0.967303974609375
-0.14191421875,0.01551285888671875,1.082322744140625
-0.14799283203125,0.12433296630859375,1.2084010107421874
-0.40037685546875,0.1760470263671875,1.1921804150390625
-0.411318359375,0.07090327392578125,0.9186421875
-0.23260712890625002,0.0515411376953125,0.820827080078125
-0.2022140625,0.099088662109375,0.9680412744140625
-0.24281919921875,0.0005623486328125002,1.1676037548828124
0.02658494140625,-0.0847290869140625,1.2723003271484374
0.135270546875,0.063795654296875,1.41115845703125
0.13794513671875,-0.0808076416015625,1.4848884375
-0.23601115234375,-0.0661022216796875,1.5458385546875
-0.302389609375,-0.10948321044921874,1.2472321337890624
-0.40913005859375,-0.00458454833984375,1.214053642578125
-0.47259078125,-0.193059013671875,1.0491442529296875
-0.06678255859375,-0.1347275146484375,1.2506728662109374
-0.07261802734375,0.124578056640625,1.1558069580078125
-0.36779548828124997,0.2098694921875,0.745130966796875
-0.38700390625000003,0.1623219677734375,0.4976439990234375
-0.19832375,0.17531175537109375,0.2941492529296875
-0.037362070312499995,0.13413657958984376,0.3858201953125
-0.02058509765625,0.14737145751953126,1.032677890625
-0.05851564453125,0.255946474609375,1.233714970703125
-0.30214646484375,0.39638323486328125,1.343326875
-0.47842625,0.3329048388671875,1.2084010107421874
-0.13680818359375,0.02090484619140625,0.999745166015625
-0.06751199218750001,0.16869431640625,1.2015195458984376
-0.17960162109375,0.399079228515625,1.165883388671875
-0.1064151171875,0.3789818212890625,1.0818312109375
-0.13875333984375,0.334375380859375,1.117713134765625
-0.2785614453125,0.330453935546875,1.144255927734375
-0.1793584765625,0.174576484375,1.115747001953125
-0.107873984375,0.14099910888671874,1.121645400390625
-0.11589775390625,0.1471263671875,1.0968229736328126
-0.18081734375,0.0731090869140625,1.055779951171875
-0.22482650390625,0.18217428466796876,1.0879753759765625
-0.172064140625,0.19810515625,0.9424815478515625
-0.263486484375,0.17040994873046875,0.850319072265625
-0.25157240234375,0.15423398681640624,0.9097945898437501
-0.21899103515625,0.11599989501953126,0.9547698779296875
-0.28585578125,0.03928662109375,0.93535431640625
-0.2056180859375,0.055462583007812497,0.9439561474609375
-0.26178447265625,0.0922261328125,0.9188879541015624
-0.25935302734375,0.0858537841796875,0.9326508837890625
-0.23892888671875,0.101049384765625,0.932896650390625
-0.2065906640625,0.126538779296875,0.9783634716796875
-0.22434021484375,0.07457962890625,0.967303974609375
-0.187625390625,0.07874616455078125,0.883251796875
-0.13340416015625,0.06649164794921875,0.835573076171875
-0.1399690625,0.12825441162109374,0.781504423828125
-0.054868476562500004,0.11747043701171875,0.812471015625
-0.26081189453125,0.085363603515625,0.9660751416015625
-0.2484115234375,0.1084020947265625,1.03562708984375
-0.18446451171875,0.0858537841796875,0.96288017578125
-0.21607330078125,0.030708459472656248,0.9680412744140625
-0.16355408203125,0.1172253466796875,1.0579918505859376
-0.20586123046875,0.14590091552734374,1.0973145068359376
-0.257651015625,0.20178151123046875,1.0678225146484375
-0.09644619140624999,0.1863408203125,1.0860092431640624
-0.190543125,0.1348718505859375,1.1169758349609376
-0.2338228515625,0.1995756982421875,1.1164843017578125
-0.0704297265625,0.20864404052734375,1.10640787109375
-0.2698082421875,0.159871064453125,1.022355693359375
-0.13802390625,0.3074154443359375,1.0604495166015624
-0.2255559375,0.15080272216796875,1.0412797216796874
-0.30555048828125,0.16158669677734375,1.0476696533203125
-0.2279873828125,0.17653720703125,0.9783634716796875
-0.2231244921875,0.08805959716796875,0.8490902392578125
-0.154557734375,0.116735166015625,0.7822417236328125
-0.1171134765625,0.08315779052734375,0.83311541015625
-0.24136033203125,0.073599267578125,0.9238032861328125
-0.15066742187499998,0.05864875732421875,1.015474228515625
-0.185680234375,0.08609887451171874,1.091170341796875
-0.28196546875,0.13707766357421874,1.1636714892578124
-0.24281919921875,0.1270289599609375,1.1558069580078125
-0.26227076171875,0.118695888671875,1.120662333984375
-0.28366748046875,0.17506666503906249,1.0314490576171875
-0.1375376171875,0.13413657958984376,0.929947451171875
-0.2454937890625,0.1084020947265625,0.9262609521484375
-0.2581373046875,0.14786163818359374,0.9724650732421874
-0.1472633984375,0.07286399658203124,0.897506259765625
-0.21972046875,0.07261890625,0.9537868115234375
-0.20051205078125,0.053992041015625,0.945676513671875
-0.11103486328125,0.08021670654296875,0.9336339501953125
-0.17133470703125,0.00423870361328125,0.94223578125
-0.27005138671875,0.08217742919921875,0.9768888720703125
-0.20148462890625,0.06649164794921875,0.9970417333984375
-0.32986494140625,0.04786478271484375,1.009575830078125
-0.2386857421875,0.114774443359375,1.0049062646484375
-0.20926525390625,0.07629526123046874,0.9154472216796875
-0.2104809765625,0.09835339111328124,0.910286123046875
-0.1637972265625,0.09492212646484376,0.9410069482421874
-0.28269490234375,0.06502110595703126,0.912252255859375
-0.19175884765625,0.12678386962890625,0.9198710205078124
-0.17668388671875,0.07261890625,0.851793671875
-0.2406308984375,0.11649007568359375,0.895540126953125
-0.24281919921875,0.101049384765625,1.02579642578125
-0.2824517578125,0.13266603759765624,1.0019570654296874
-0.26616107421875,0.143204921875,0.9419900146484375
-0.23017568359375,0.14639109619140625,0.951574912109375
-0.236254296875,0.143204921875,0.9601767431640625
-0.3427516015625,0.16648850341796875,1.0314490576171875
-0.30409162109375,0.14443037353515625,0.970253173828125
-0.2722396875,0.15717507080078125,0.8004284521484375
-0.2065906640625,0.1378129345703125,0.7365291357421875
-0.1560166015625,0.08364797119140625,0.7576650634765625
-0.13778076171875,0.073599267578125,0.8259881787109375
-0.13948277343749999,0.16648850341796875,1.0550426513671876
-0.24938410156250002,0.127519140625,1.210121376953125
-0.26640421875,0.02433611083984375,1.2634527294921876
-0.34250845703125,0.10276501708984374,1.0781447119140626
-0.27272597656249997,0.11109808837890625,0.952557978515625
-0.32354318359375,0.02335574951171875,0.8623616357421875
-0.2698082421875,-0.00850599365234375,0.7842078564453125
-0.18884111328125,-0.05311243408203125,0.733825703125
-0.22579908203125,-0.06585713134765625,0.6768078515625
-0.273212265625,-0.0229663232421875,0.6696806201171875
-0.24476435546875,0.00987578125,0.652722724609375
-0.222638203125,0.08070688720703124,0.7026133447265624
-0.2766162890625,0.1270289599609375,0.8751414990234375
-0.265431640625,0.157910341796875,1.0491442529296875
-0.3038484765625,0.11992134033203125,1.1218911669921874
-0.3033621875,0.10521592041015625,1.0815854443359374
-0.30846822265625,0.1446754638671875,1.072000546875
-0.33910443359375,0.1466361865234375,1.0643817822265624
-0.32402947265625,0.12629368896484375,0.9901602685546875
-0.31527626953125,0.2547210229492187,1.0019570654296874
-0.27151025390625,0.17923320068359375,0.97271083984375
-0.17668388671875,0.1231075146484375,0.987948369140625
-0.2099946875,0.16085142578125,1.0221099267578124
-0.26032560546875,0.03217900146484375,1.0098215966796875
-0.18592337890625,-0.0018885546875000003,0.9562444775390625
-0.21655958984375,0.06649164794921875,0.9402696484374999
-0.24816837890625,0.06257020263671875,0.8952943603515625
-0.27515742187500003,0.06796218994140625,0.9729566064453125
-0.267376796875,0.07580508056640625,1.0638902490234374
-0.26372962890625,0.071638544921875,1.1833328173828126
-0.267376796875,0.010856142578125,1.2113502099609375
-0.29874244140625,0.08707923583984375,1.194392314453125
-0.3427516015625,0.05031568603515625,0.9874568359375
-0.1861665234375,0.0074248779296875,0.828691611328125
-0.18227621093750002,0.02360083984375,0.798216552734375
-0.08769298828125,-0.00262382568359375,0.869980400390625
-0.11492517578125,-0.0009081933593750001,0.93338818359375
-0.15820490234375,-0.0006631030273437505,1.095102607421875
-0.30117388671875,0.0858537841796875,1.1263149658203124
-0.2523018359375,0.07825598388671876,1.0363643896484376
-0.27053767578125,0.0613447509765625,0.9186421875
-0.3573402734375,0.0897752294921875,0.846386806640625
-0.21753216796875,0.0593840283203125,0.7488174658203125
-0.21558701171875,0.0348749951171875,0.694011513671875
-0.15164,0.09296140380859375,0.759876962890625
-0.3033621875,0.124578056640625,0.8812856640625
-0.15869119140625,0.1574201611328125,1.0899415087890625
-0.23892888671875,0.248103583984375,1.2280623388671874
-0.22871681640625,0.24540759033203124,1.2408422021484375
-0.22774423828125,0.138303115234375,1.2020110791015626
-0.27491427734375,0.20864404052734375,1.217985908203125
-0.26664736328125,0.11747043701171875,1.1958669140625
-0.32159802734375,0.10668646240234375,1.144255927734375
-0.237226875,0.16550814208984374,1.118696201171875
-0.37314466796875,0.06894255126953125,1.02383029296875
-0.37654869140625,0.08805959716796875,0.9960586669921875
-0.2785614453125,0.0574233056640625,0.9051250244140625
-0.22142248046875002,0.0819323388671875,0.8380307421875
-0.20342978515625,0.04688442138671875,0.854251337890625
-0.16647181640625,-0.065612041015625,0.86653966796875
-0.210967265625,0.00791505859375,0.911269189453125
-0.22361078125,-0.03693647216796875,0.9685328076171875
-0.1477496875,0.03217900146484375,1.0186691943359376
-0.1424005078125,-0.0141430712890625,1.00613509765625
-0.27418484375,0.07923634521484375,1.0427543212890624
-0.30652306640625,0.10129447509765625,1.056271484375
-0.34421046875,0.09492212646484376,0.990897568359375
-0.271267109375,0.16893940673828126,1.0201437939453124
-0.422989296875,0.0358553564453125,1.08379734375
-0.31746457031249997,0.1314405859375,1.157035791015625
-0.31138595703125,0.04247279541015625,0.9756600390625
-0.35904228515625003,-0.0023787353515625003,0.833606943359375
-0.236254296875,0.0407571630859375,0.8348357763671875
-0.27831830078124997,0.02580665283203125,0.8441749072265625
-0.35806970703125,0.07261890625,0.90193005859375
-0.3291355078125,0.0701680029296875,0.9410069482421874
-0.27929087890625,0.0922261328125,0.9097945898437501
-0.29096181640625,0.11599989501953126,0.7468513330078125
-0.21412814453125,0.08217742919921875,0.630112197265625
-0.1633109375,0.02286556884765625,0.661570322265625
-0.269321953125,0.10325519775390625,0.8874298291015625
-0.279047734375,0.16624341308593749,1.201273779296875
-0.33861814453125,0.07678544189453125,1.32268248046875
-0.35028908203125,0.09933375244140626,1.2285538720703124
-0.222638203125,0.0848734228515625,1.095594140625
-0.33326896484375,0.0897752294921875,1.0457035205078125
-0.24281919921875,0.059874208984374996,1.0633987158203124
-0.17862904296875,0.00399361328125,1.0289913916015625
-0.29509527343749997,0.03413972412109375,0.9808211376953125
-0.1579617578125,0.0015427099609375003,0.9245405859375
-0.1248941015625,0.02286556884765625,0.95698177734375
-0.265431640625,0.05374695068359375,1.1081282373046875
-0.33813185546875,0.11894097900390625,1.30302115234375
-0.3408064453125,0.0686974609375,1.2509186328125
-0.3057936328125,0.1221271533203125,1.228799638671875
-0.29922873046875,0.05962911865234375,1.0973145068359376
-0.25303126953125,-0.05654369873046875,1.0383305224609374
-0.2124261328125,-0.01487834228515625,1.0845346435546874
-0.30311904296875003,0.024581201171875,1.1132893359375
-0.236254296875,-0.029338671875,1.0759328125
-0.25838044921875,-0.04870080810546875,0.9842618701171875
-0.23892888671875,-0.011201987304687501,0.9385492822265625
-0.2766162890625,-0.037916833496093746,0.8717007666015625
-0.20197091796875,-0.028113220214843748,0.78789435546875
-0.2561921484375,-0.0612004150390625,0.6888504150390625
-0.226528515625,-0.0749254736328125,0.71318130859375
-0.2620276171875,-0.04085791748046875,0.7952673535156249
-0.2931501171875,-0.015368522949218751,0.8540055712890625
-0.2450075,0.00472888427734375,0.83704767578125
-0.26227076171875,0.0280124658203125,0.828200078125
-0.28804408203125,0.0535018603515625,0.9154472216796875
-0.25497642578125,0.07825598388671876,0.97467697265625
-0.2396583203125,0.1123235400390625,1.0810939111328124
-0.3787369921875,0.2137909375,1.164900322265625
-0.31284482421875,0.1789881103515625,1.1130435693359375
-0.2450075,0.13903838623046874,1.04152548828125
-0.29193439453125003,0.1358522119140625,1.035135556640625
-0.2698082421875,0.0652661962890625,1.1243488330078124
-0.34639876953125,0.0765403515625,1.1447474609375
-0.34396732421875,0.12678386962890625,1.084288876953125
-0.35320681640625,0.04712951171875,0.9528037451171875
-0.343237890625,0.053992041015625,0.867031201171875
-0.2309051171875,-0.02370159423828125,0.7746229589843749
-0.237226875,0.0030132519531249997,0.8220559130859375
-0.27637314453125,0.03266918212890625,0.9247863525390625
-0.24938410156250002,-0.00850599365234375,1.0525849853515625
-0.19710802734375,0.06453092529296875,1.1381117626953126
-0.2299325390625,0.02923791748046875,1.1150097021484375
-0.18154677734375,0.055952763671875,1.0638902490234374
-0.22336763671875,0.00399361328125,1.0189149609375
-0.22361078125,0.03413972412109375,1.0496357861328125
-0.30457791015625,-0.0435539111328125,1.03759322265625
-0.32694720703125,-0.046004814453125,0.9862280029296875
-0.2484115234375,-0.04821062744140625,0.885709462890625
-0.27515742187500003,-0.11536537841796875,0.813945615234375
-0.2328502734375,-0.052867343750000004,0.833606943359375
-0.30895451171875,-0.07909200927734375,0.909303056640625
-0.237226875,-0.0170841552734375,1.0250591259765625
-0.25084296875,0.050070595703125,1.010558896484375
-0.2566784375,0.04051207275390625,0.934862783203125
-0.1774133203125,0.010611052246093749,0.8970147265625
-0.232363984375,0.05889384765625,0.8773533984374999
-0.26154132812499997,0.07531489990234375,0.9478884130859375
-0.28269490234375,0.0069346972656249995,0.9822957373046874
-0.2688356640625,0.07065818359375,1.0299744580078125
-0.35223423828125,0.01183650390625,1.0643817822265624
-0.339347578125,0.0387964404296875,1.088221142578125
-0.29728357421875,0.07065818359375,1.066593681640625
-0.3408064453125,0.07580508056640625,1.0211268603515624
-0.23917203125,-0.07026875732421875,1.00613509765625
-0.36487775390625,-0.04036773681640625,0.951574912109375
-0.28026345703125,-0.0567887890625,0.920116787109375
-0.21461443359375,-0.06267095703125,0.855234404296875
-0.1871391015625,-0.01193725830078125,0.89209939453125
-0.228473671875,-0.036201201171875,0.953541044921875
-0.2591098828125,0.02580665283203125,1.032186357421875
-0.349073359375,0.02727719482421875,1.0368559228515626
-0.298499296875,0.0348749951171875,0.9469053466796875
-0.20342978515625,0.05497240234375,0.9061080908203125
-0.302389609375,0.085363603515625,0.906353857421875
-0.20537494140625,0.0368357177734375,0.8572005371093749
-0.29363640625,0.03536517578125,0.8407341748046875
-0.14215736328125,0.0608545703125,0.91372685546875
-0.27929087890625,-0.051886982421875,0.8844806298828125
-0.2805066015625,-0.03301502685546875,0.9660751416015625
-0.21607330078125,-0.012427438964843749,0.9065996240234375
-0.2882872265625,-0.0729647509765625,0.8638362353515625
-0.18981369140625,0.00178780029296875,0.905370791015625
-0.2853694921875,-0.006790361328125,0.8574463037109374
-0.19953947265625,0.0530116796875,0.956490244140625
-0.2503566796875,0.0008074389648437498,0.9719735400390626
-0.29339326171875,0.0069346972656249995,1.0206353271484374
-0.23990146484375,0.0250713818359375,1.0661021484375
-0.31697828125,0.0133070458984375,1.003677431640625
-0.32208431640625,0.07727562255859374,0.9940925341796875
-0.30117388671875,-0.025662316894531252,0.932896650390625
-0.24962724609375,-0.02958376220703125,0.93732044921875
-0.2785614453125,-0.0161037939453125,0.92159138671875
-0.2756437109375,-0.09428760986328125,0.94911724609375
-0.22385392578125,0.00717978759765625,0.9604225097656249
-0.2853694921875,0.01551285888671875,0.9596852099609375
-0.32743349609375,-0.010711806640625,0.99630443359375
-0.32013916015625,0.032424091796875,0.992863701171875
-0.26227076171875,0.0397768017578125,1.02776255859375
-0.30798193359375,0.024581201171875,1.025304892578125
-0.3583128515625,0.03953171142578125,1.0604495166015624
-0.2805066015625,0.015022678222656249,1.037101689453125
-0.34785763671875003,0.0162481298828125,0.9324051171875
-0.29631099609375,-0.028113220214843748,0.8800568310546875
-0.21947732421875,-0.02149578125,0.8712092333984375
-0.27831830078124997,0.0255615625,0.9336339501953125
-0.33910443359375,0.01453249755859375,0.94321884765625
-0.24038775390625,0.008405239257812499,0.9164302880859375
-0.27005138671875,-0.02615249755859375,0.8340984765625
-0.27613,-0.05409279541015625,0.818860947265625
-0.1706052734375,-0.0249270458984375,0.90782845703125
-0.31624884765625,-0.03522083984375,1.0176861279296876
-0.31527626953125,7.216796875000007e-05,1.096085673828125
-0.34591248046875,0.04982550537109375,1.1022298388671874
-0.29728357421875,0.04100225341796875,0.9999909326171875
-0.199296328125,0.00668960693359375,0.9208540869140625
-0.25449013671875,0.07825598388671876,0.9144641552734375
-0.2688356640625,0.087324326171875,1.0481611865234375
-0.265431640625,0.0020328906249999995,1.1513831591796875
-0.304334765625,-0.025662316894531252,1.1037044384765624
-0.20877896484375,0.01649322021484375,1.1096028369140625
-0.25303126953125,-0.01561361328125,0.99237216796875
-0.244034921875,-0.02762303955078125,0.971236240234375
-0.30117388671875,0.0142874072265625,1.0024485986328124
-0.34421046875,-0.046740085449218746,0.99040603515625
-0.296554140625,-0.0268877685546875,0.956490244140625
-0.34299474609375,-0.0332601171875,0.900455458984375
-0.2450075,0.028502646484374998,0.86850580078125
-0.25449013671875,0.03266918212890625,0.8136998486328125
-0.23552486328125,0.01012087158203125,0.83114927734375
-0.2172890234375,0.0172284912109375,0.8721922998046875
-0.2668905078125,-0.0592396923828125,0.9196252539062499
-0.16525609375,-0.0592396923828125,1.02383029296875
-0.30214646484375,-0.10997339111328125,1.0245675927734375
-0.253760703125,-0.046249904785156254,1.0417712548828124
-0.28901666015625,-0.04085791748046875,0.9557529443359375
-0.34834392578125,-0.05605351806640625,0.9139726220703125
-0.25084296875,0.0613447509765625,0.9621428759765625
-0.23528171875,0.019434304199218752,1.0171945947265626
-0.2075632421875,-0.0092412646484375,0.9936010009765625
-0.20391607421875,-0.07443529296875,0.9508376123046876
-0.189570546875,-0.12026718505859375,0.9179048876953125
-0.18081734375,-0.0219859619140625,0.9547698779296875
-0.20804953125,-0.0690433056640625,1.03562708984375
-0.36390517578125,-0.09575815185546875,1.0250591259765625
-0.27807515625,0.01600303955078125,0.9262609521484375
-0.2600824609375,-0.0661022216796875,0.81935248046875
-0.29485212890625,0.0037485229492187503,0.8159117480468749
-0.25059982421875,0.12384278564453124,0.9233117529296875
-0.22093619140625,0.09345158447265625,1.0142453955078126
-0.20780638671875,0.09026541015625,1.106899404296875
-0.22190876953125,0.0780108935546875,1.12803533203125
-0.25108611328125,-0.01487834228515625,1.120662333984375
-0.3038484765625,0.07629526123046874,1.080356611328125
-0.40815748046875,0.04884514404296875,1.0427543212890624
-0.4254207421875,0.00816014892578125,1.0189149609375
-0.290718671875,0.014777587890624999,1.083305810546875
-0.32475890625,0.02531647216796875,1.063644482421875
-0.33132380859375,-0.08791526123046875,0.994829833984375
-0.24525064453125,-0.0788469189453125,0.8815314306640625
-0.28512634765625,-0.0876701708984375,0.729401904296875
-0.27151025390625,-0.046740085449218746,0.6623076220703125
-0.2698082421875,-0.05458297607421875,0.6701721533203124
-0.26275705078125,-0.0543378857421875,0.7439021337890624
-0.27272597656249997,-0.07443529296875,0.868997333984375
-0.30530734375,-0.0249270458984375,0.9454307470703125
-0.28220861328125,-0.036201201171875,0.9818042041015624
-0.2386857421875,-0.00777072265625,1.0294829248046875
-0.3072525,0.022620478515625,1.0250591259765625
-0.292663828125,-0.02419177490234375,0.9638632421875
-0.32257060546875,0.0358553564453125,0.9405154150390624
-0.3797095703125,0.0613447509765625,0.8692431005859375
-0.25935302734375,-0.05874951171875,0.756927763671875
-0.20002576171875,-0.09379742919921875,0.6888504150390625
-0.1569891796875,-0.03889719482421875,0.7404614013671875
-0.20537494140625,-0.0974737841796875,0.7905977880859375
-0.18884111328125,-0.15065838623046876,0.8382765087890625
-0.25205869140625,-0.02664267822265625,0.9537868115234375
-0.33715927734375,-0.03595611083984375,1.0511103857421875
-0.33959072265625,0.0691876416015625,1.0427543212890624
-0.329621796875,0.0584036669921875,0.870963466796875
-0.175954453125,0.0505607763671875,0.6859012158203125
-0.17279357421875,0.05105095703125,0.61979
-0.1633109375,-0.00777072265625,0.677299384765625
-0.1715778515625,-0.0009081933593750001,0.8417172412109375
-0.2279873828125,0.07384435791015626,1.0928907080078125
-0.30652306640625,0.11649007568359375,1.2904870556640624
-0.34737134765625,0.1079119140625,1.3506998730468749
-0.29509527343749997,0.08070688720703124,1.2280623388671874
-0.39308251953125,0.13805802490234376,0.9936010009765625
-0.33108066406250003,0.059874208984374996,0.9513291455078126
-0.28415376953125,0.0966377587890625,0.8984893261718749
-0.29436583984375,0.06281529296875,0.94223578125
-0.20464550781250002,-0.0406128271484375,0.9631259423828125
-0.20829267578125,-0.09575815185546875,1.0024485986328124
-0.24379177734375002,-0.07419020263671874,1.0058893310546875
-0.29874244140625,-0.08497417724609375,1.0334151904296875
-0.29971501953125,-0.0631611376953125,1.0899415087890625
-0.30871136718750003,0.0152677685546875,1.0778989453125
-0.21607330078125,-0.05899460205078125,1.0393135888671874
-0.28561263671875,-0.0396324658203125,1.0211268603515624
-0.2853694921875,0.0054641552734375,1.0486527197265625
-0.3184371484375,-0.09477779052734375,1.0928907080078125
-0.3388612890625,-0.05997496337890625,1.1739936865234375
-0.3485870703125,-0.11879664306640625,1.1081282373046875
-0.29922873046875,-0.19379428466796875,0.9837703369140625
-0.21947732421875,-0.07370002197265625,0.80067421875
-0.1881116796875,-0.011201987304687501,0.702859111328125
-0.09450103515625,-0.05409279541015625,0.7227662060546876
-0.164283515625,-0.0857094482421875,0.9591936767578125
-0.21607330078125,0.0593840283203125,1.2865547900390626
-0.4278521875,-0.02321141357421875,1.4222179541015625
-0.5217059765625,-0.030319033203124998,1.3686408349609376
-0.3699837890625,0.0358553564453125,1.0289913916015625
-0.30652306640625,0.0037485229492187503,0.8456495068359375
-0.30166017578125,0.0005623486328125002,0.828691611328125
-0.3524773828125,0.1466361865234375,0.8938197607421875
-0.28950294921874997,0.016738310546875,0.9007012255859375
-0.27807515625,-0.076396015625,0.8510563720703125
-0.31624884765625,-0.05090662109375,0.820827080078125
-0.28415376953125,-0.060710234375,0.723503505859375
-0.2124261328125,0.0074248779296875,0.6480531591796875
-0.2571647265625,-0.07124911865234375,0.599637138671875
-0.24525064453125,0.07531489990234375,0.7751144921875
-0.2552195703125,0.04982550537109375,1.000728232421875
-0.35977171875,0.08266760986328126,1.148188193359375
-0.34299474609375,0.1780077490234375,1.1533492919921875
-0.27394169921875,0.0995788427734375,1.1376202294921876
-0.34810078125,0.09982393310546875,1.154578125
-0.26032560546875,0.04296297607421875,1.1882481494140624
-0.26032560546875,-0.06340622802734375,1.09854333984375
-0.247925234375,-0.08105273193359375,1.0363643896484376
-0.2221519140625,-0.0803174609375,0.96288017578125
-0.18884111328125,-0.136198056640625,0.9346170166015625
-0.29971501953125,-0.11095375244140625,0.973202373046875
-0.3189234375,-0.0523771630859375,1.0103131298828125
-0.28755779296875,-0.046004814453125,1.0503730859375
-0.28998923828125,-0.02174087158203125,1.151137392578125
-0.4059691796875,-0.02762303955078125,1.091170341796875
-0.24038775390625,-0.12173772705078124,0.938795048828125
-0.12440781249999999,-0.00507472900390625,1.0334151904296875
-0.237226875,-0.06267095703125,1.1631799560546874
-0.3388612890625,-0.0788469189453125,1.274020693359375
-0.31965287109375,-0.03914228515625,1.1970957470703125
-0.4137498046875,-0.0670825830078125,1.1159927685546875
-0.35904228515625003,-0.02076051025390625,0.9921264013671875
-0.25400384765625,-0.1180613720703125,0.7905977880859375
-0.2085358203125,-0.098944326171875,0.68172318359375
-0.29363640625,-0.02737794921875,0.65223119140625
-0.17425244140625,-0.0602200537109375,0.6804943505859375
-0.12027435546875,-0.027868129882812502,0.7640549951171876
-0.29971501953125,0.08217742919921875,0.8436833740234375
-0.3344846875,0.0123266845703125,0.926998251953125
-0.222638203125,-0.028113220214843748,1.1420440283203126
-0.30263275390625,0.06257020263671875,1.3583186376953125
-0.3126016796875,0.0966377587890625,1.3951836279296874
-0.28074974609375003,-0.02149578125,1.2315030712890624
-0.27418484375,0.08511851318359374,1.0122792626953125
-0.210967265625,0.07825598388671876,0.8893959619140624
-0.18227621093750002,-0.0006631030273437505,0.840488408203125
-0.2488978125,0.0530116796875,0.999745166015625
-0.25084296875,-0.09575815185546875,0.94321884765625
-0.18738224609375,-0.10262068115234375,0.8854636962890625
-0.14507509765624998,0.00178780029296875,0.9245405859375
-0.1414279296875,-0.1308060693359375,0.9203625537109374
-0.29485212890625,-0.0631611376953125,1.0235845263671874
-0.2989855859375,0.0466393310546875,1.0638902490234374
-0.2406308984375,0.02090484619140625,0.994829833984375
-0.33667298828125003,0.0525214990234375,0.9501003125
-0.1997826171875,0.01453249755859375,0.9754142724609375
-0.19710802734375,-0.05654369873046875,0.985490703125
-0.28172232421875,-0.006790361328125,1.02776255859375
-0.24865466796875,-0.0866898095703125,0.95894791015625
-0.26324333984375,-0.098944326171875,0.8441749072265625
-0.28609892578125,-0.122472998046875,0.755944697265625
-0.1336473046875,-0.091101435546875,0.647315859375
-0.0966893359375,-0.08938580322265625,0.6795112841796875
-0.20245720703125,-0.01732924560546875,0.852285205078125
-0.2367405859375,0.0505607763671875,0.903404658203125
-0.24379177734375002,0.00399361328125,0.86457353515625
-0.23455228515625,-0.01781942626953125,0.90193005859375
-0.22750109375,-0.0092412646484375,0.977134638671875
-0.20391607421875,0.014777587890624999,1.1228742333984374
-0.30700935546875,0.014777587890624999,1.1941465478515625
-0.33326896484375,-0.00605509033203125,1.175714052734375
-0.27977716796875,0.0436982470703125,1.023338759765625
-0.3164919921875,0.0319339111328125,0.9011927587890625
-0.22044990234375,0.12188206298828125,0.8594124365234375
-0.23649744140625,0.130460224609375,0.860149736328125
-0.2955815625,0.0069346972656249995,0.8948028271484375
-0.22920310546875,-0.12467881103515625,0.850319072265625
-0.21218298828125,-0.03522083984375,0.73874103515625
-0.14629082031250001,0.00570924560546875,0.7153932080078125
-0.1414279296875,0.021640117187500002,0.854251337890625
-0.2396583203125,-0.0038492773437499997,1.07494974609375
-0.310170234375,0.00227798095703125,1.2737749267578125
-0.44219771484375,0.06355056396484375,1.18701931640625
-0.39016478515624997,0.036345537109375,1.0053977978515625
-0.39016478515624997,0.008405239257812499,0.863098935546875
-0.2775888671875,-0.060710234375,0.752012431640625
-0.1978374609375,-0.10654212646484375,0.6092220361328125
-0.12708240234375,-0.0960032421875,0.5512211181640625
-0.08137123046875,-0.0857094482421875,0.6414174609375
-0.18446451171875,-0.042083369140625,0.8284458447265625
-0.26372962890625,0.05570767333984375,1.0179318945312499
-0.27442798828125,0.026296833496093748,1.1823497509765626
-0.3164919921875,0.08070688720703124,1.252884765625
-0.35758341796875,0.13340130859375,1.159001923828125
-0.27880458984375,0.085363603515625,1.200290712890625
-0.251815546875,0.05668803466796875,1.1597392236328126
-0.26859251953125,-0.034240478515625,1.1329506640625
-0.236254296875,-0.13350206298828124,1.1027213720703124
-0.2347954296875,-0.046249904785156254,0.9857364697265625
-0.21315556640625,-0.038161923828125,0.8230389794921875
-0.13632189453125,-0.09796396484375,0.702859111328125
-0.0266637109375,-0.07909200927734375,0.733334169921875
-0.11346630859375,-0.046004814453125,0.846386806640625
-0.11322316406249999,0.04835496337890625,1.0289913916015625
-0.3369161328125,0.02139502685546875,1.20274837890625
-0.48693630859375,0.07629526123046874,1.25190169921875
-0.36293259765625,0.07850107421875,1.0692971142578125
-0.35806970703125,0.03757098876953125,0.94911724609375
-0.428824765625,0.01110123291015625,0.9936010009765625
-0.3408064453125,0.046149150390625,1.1430270947265626
-0.3126016796875,0.01575794921875,1.1061621044921874
-0.1453182421875,0.04443351806640625,1.0130165625
-0.10228166015625,-0.0055649096679687505,1.0162115283203126
-0.22336763671875,-0.02149578125,1.0914161083984375
-0.1560166015625,0.04394333740234375,1.144255927734375
-0.2698082421875,-0.03448556884765625,1.1046875048828124
-0.33424154296874997,-0.01634888427734375,1.0904330419921875
-0.33813185546875,-0.0259074072265625,1.05528841796875
-0.3067662109375,-0.09012107421875,1.1538408251953125
-0.3057936328125,-0.08056255126953125,1.2506728662109374
-0.316005703125,-0.0001729223632812504,1.384124130859375
-0.405482890625,0.1025199267578125,1.2378930029296875
-0.349073359375,0.00472888427734375,1.058729150390625
-0.17473873046875,0.1466361865234375,1.07101748046875
-0.34688505859375,-0.0543378857421875,1.096085673828125
-0.18227621093750002,-0.0072805419921875,1.1612138232421876
-0.12708240234375,0.01551285888671875,0.9262609521484375
-0.1093328515625,-0.03938737548828125,0.7763433251953125
-0.12951384765625001,-0.14698203125,0.7928096875
-0.13972591796875,-0.09232688720703125,1.0149826953125
-0.1832487890625,0.063795654296875,1.2737749267578125
-0.3077387890625,0.03315936279296875,1.4359808837890624
-0.18835482421875,-0.020515419921875,1.299580419921875
-0.39818855468750003,-0.03154448486328125,1.1794005517578126
-0.40475345703125,0.02482629150390625,1.173747919921875
-0.3524773828125,0.03266918212890625,1.21257904296875
-0.34810078125,-0.0229663232421875,1.188493916015625
-0.249870390625,-0.032279755859375,1.0786362451171876
-0.12124693359375,-0.0553182470703125,0.933879716796875
-0.1399690625,-0.063651318359375,0.817877880859375
-0.0918264453125,-0.1430605859375,0.7321053369140624
-0.04878986328125,-0.11561046875,0.77216529296875
0.09539484375,-0.05458297607421875,0.971236240234375
-0.13972591796875,0.00865032958984375,1.3649543359375
-0.2309051171875,-0.0097314453125,1.425904453125
-0.30360533203125,7.216796875000007e-05,1.39542939453125
-0.411318359375,0.0613447509765625,1.2098756103515624
-0.2834243359375,-0.10972830078125,1.1848074169921876
-0.40694175781249997,-0.00997653564453125,1.3853529638671875
-0.485234296875,0.0358553564453125,1.3229282470703125
-0.38238416015625,-0.0337502978515625,0.96877857421875
-0.17327986328125,-0.01291761962890625,0.7586481298828125
-0.21461443359375,-0.08423890625,0.702859111328125
-0.0597313671875,-0.15899145751953125,0.625196865234375
0.0234240625,-0.16487362548828124,0.7399698681640625
-0.18640966796875,-0.20016663330078124,0.820827080078125
-0.2377131640625,-0.153844560546875,0.8087845166015625
-0.28464005859375,-0.09477779052734375,0.8122252490234375
-0.24768208984375,-0.060710234375,0.80067421875
-0.18786853515625002,-0.022476142578125,0.9778719384765625
-0.3378887109375,-0.04723026611328125,1.1356540966796875
-0.3271903515625,0.04786478271484375,1.2902412890625
-0.28196546875,0.08707923583984375,1.339886142578125
-0.3500459375,0.057913486328125,1.1683410546875
-0.2065906640625,0.0878145068359375,1.1086197705078125
-0.16598552734375,-0.01978014892578125,1.016948828125
-0.0577862109375,-0.02664267822265625,0.8852179296875
-0.156502890625,-0.08105273193359375,0.8112421826171875
-0.1803310546875,-0.0827683642578125,0.8579378369140624
-0.18884111328125,-0.04870080810546875,0.79772501953125
-0.280992890625,-0.01095689697265625,0.7915808544921875
-0.2202067578125,0.02286556884765625,0.86850580078125
-0.34445361328125,-0.03742665283203125,0.9306847509765624
-0.27588685546875,0.0299731884765625,0.8830060302734375
-0.2474389453125,-0.00948635498046875,0.7576650634765625
-0.29096181640625,-0.013407800292968751,0.76921609375
-0.17084841796875,-0.08497417724609375,0.84097994140625
-0.26810623046875,-0.02713285888671875,1.013508095703125
-0.2736985546875,0.00816014892578125,1.0189149609375
-0.20342978515625,-0.17639287109375001,0.8633447021484375
-0.2503566796875,-0.09673851318359375,0.832623876953125
-0.1866528125,-0.09820905517578125,0.8451579736328125
-0.23601115234375,-0.07320984130859375,0.82918314453125
-0.14069849609375001,-0.02027032958984375,0.7817501904296875
-0.17717017578125,-0.042328459472656246,0.7448852001953125
-0.24525064453125,-0.01438816162109375,0.8441749072265625
-0.24379177734375002,0.04786478271484375,0.9149556884765625
-0.290718671875,-0.048945898437499996,0.9009469921875
-0.28172232421875,0.017718671875,1.0049062646484375
-0.24573693359375,-0.06095532470703125,0.9953213671875
-0.20415921875,-0.04134809814453125,1.0496357861328125
-0.25643529296875,-0.0474753564453125,1.0815854443359374
-0.29387955078125,-0.11193411376953125,0.973202373046875
-0.3116291015625,-0.03742665283203125,0.9206083203125
-0.1239215234375,-0.15948163818359376,0.825742412109375
-0.13000013671875,-0.0778665576171875,0.72891037109375
-0.15334201171875,0.00717978759765625,0.8102591162109375
-0.22190876953125,0.05815857666015625,1.0255506591796875
-0.2318776953125,0.0922261328125,1.09067880859375
-0.24670951171875,0.1201664306640625,1.12803533203125
-0.29752671875000003,0.13315621826171875,1.09657720703125
-0.1783858984375,-0.00458454833984375,1.0973145068359376
-0.32159802734375,0.09002031982421875,1.12213693359375
-0.1628246484375,-0.0327699365234375,1.1228742333984374
-0.36341888671875,-0.104826494140625,1.0540595849609375
-0.27296912109375,0.0035034326171875,1.171781787109375
-0.2182616015625,-0.02762303955078125,1.0850261767578124
-0.24914095703125,-0.1013952294921875,1.0098215966796875
-0.2255559375,-0.028358310546875,0.96288017578125
-0.15139685546875,-0.0827683642578125,0.8874298291015625
-0.14410251953125,-0.07051384765625,0.9518206787109375
-0.28026345703125,-0.10311086181640625,1.0152284619140626
-0.20026890625,-0.04306373046875,0.9906518017578125
-0.31624884765625,-0.114630107421875,0.907336923828125
-0.271267109375,0.0025230712890624996,1.003677431640625
-0.1949197265625,-0.0513968017578125,0.9424815478515625
-0.27005138671875,-0.15212892822265625,0.8456495068359375
-0.15431458984375,0.026296833496093748,0.9503460791015625
-0.1064151171875,-0.0729647509765625,1.0149826953125
-0.30166017578125,-0.0033590966796874996,1.119679267578125
-0.1647698046875,0.04492369873046875,1.19684998046875
-0.24914095703125,0.00521906494140625,1.16145958984375
-0.3019033203125,0.01698340087890625,1.1243488330078124
-0.24670951171875,0.03119864013671875,1.0294829248046875
-0.2785614453125,-0.0641414990234375,0.9247863525390625
-0.1861665234375,0.01183650390625,0.970253173828125
-0.19224513671875,-0.07860182861328124,0.9267524853515625
-0.15674603515625,0.099088662109375,1.040542421875
-0.33667298828125003,-0.01389798095703125,0.951574912109375
-0.13948277343749999,0.07286399658203124,0.9970417333984375
-0.226528515625,0.014777587890624999,1.039067822265625
-0.33959072265625,-0.03399538818359375,1.1356540966796875
-0.20683380859375,-0.03914228515625,1.1612138232421876
-0.18543708984375,-0.10850284912109374,1.053813818359375
-0.24281919921875,0.08315779052734375,1.1526119921875
-0.28804408203125,-0.0415931884765625,1.048406953125
-0.35028908203125,0.02678701416015625,1.0621698828125
-0.20099833984375,0.13511694091796875,1.1390948291015626
-0.31235853515625,-0.0055649096679687505,1.027271025390625
-0.30360533203125,0.063795654296875,0.933879716796875
-0.07407689453124999,-0.0411030078125,0.9267524853515625
-0.25351755859375,-0.06732767333984375,0.932896650390625
-0.1229489453125,-0.0690433056640625,1.0270252587890625
-0.213885,-0.2053135302734375,1.041033955078125
-0.31746457031249997,0.02237538818359375,1.1135351025390625
-0.2591098828125,-0.1249239013671875,1.08478041015625
-0.26372962890625,0.04639424072265625,1.1159927685546875
-0.312115390625,0.0505607763671875,1.064627548828125
-0.20877896484375,-0.01095689697265625,0.9754142724609375
-0.3135742578125,-0.061690595703125004,0.9245405859375
-0.2960678515625,-0.10972830078125,0.949608779296875
-0.191515703125,-0.05311243408203125,0.931913583984375
-0.138996484375,-0.1376685986328125,0.782487490234375
-0.21607330078125,-0.116590830078125,0.8623616357421875
-0.237226875,-0.0768861962890625,0.9675497412109375
-0.07942607421875,-0.085219267578125,0.9129895556640625
-0.27831830078124997,-0.02860340087890625,0.9124980224609375
-0.2338228515625,0.07580508056640625,0.9891772021484375
-0.2036729296875,-0.0268877685546875,1.01203349609375
-0.15528716796875,0.09933375244140626,1.1916888818359375
-0.3072525,0.12629368896484375,1.2275708056640624
-0.2717533984375,0.04443351806640625,1.2253589062499999
-0.27272597656249997,0.063795654296875,1.2469863671875
-0.27296912109375,0.08707923583984375,1.1803836181640626
-0.31138595703125,-0.00948635498046875,1.0466865869140625
-0.1793584765625,-0.0006631030273437505,1.0938737744140625
-0.3369161328125,0.067717099609375,1.1302472314453125
-0.337402421875,-0.0881603515625,0.9582106103515625
-0.152612578125,-0.11487519775390626,0.7473428662109375
-0.1005796484375,-0.11634573974609375,0.6618160888671875
-0.0889087109375,-0.13889405029296875,0.6217561328125
-0.11930177734375,-0.0955130615234375,0.7178508740234375
-0.12854126953125,0.03536517578125,0.9159387548828125
-0.23892888671875,0.0182088525390625,1.0599579833984376
-0.2814791796875,0.1093824560546875,1.195375380859375
-0.18640966796875,0.03610044677734375,1.2260962060546876
-0.19419029296875,0.09345158447265625,1.2983515869140625
-0.352963671875,-0.03448556884765625,1.186527783203125
-0.29825615234375,0.11207844970703125,1.157035791015625
-0.28123603515625,-0.07468038330078125,0.995812900390625
-0.2766162890625,-0.0464949951171875,0.9400238818359374
-0.15528716796875,0.01600303955078125,0.888658662109375
-0.15042427734375,-0.1817848583984375,0.8171405810546875
-0.13778076171875,-0.014633251953124999,0.855234404296875
-0.13948277343749999,-0.07222947998046875,0.850319072265625
-0.23649744140625,-0.0945327001953125,0.9478884130859375
-0.25400384765625,0.038306259765625,1.0464408203125
-0.237226875,0.026541923828125,1.009575830078125
-0.210967265625,0.03144373046875,0.9980247998046875
-0.21753216796875,-0.0710040283203125,1.0501273193359375
-0.2688356640625,-0.0945327001953125,1.048898486328125
-0.19370400390625,-0.16928525146484374,0.9724650732421874
-0.27151025390625,-0.0504164404296875,1.000728232421875
-0.21947732421875,-0.04477936279296875,0.977626171875
-0.146777109375,-0.11193411376953125,0.8943112939453125
-0.195406015625,0.04884514404296875,1.039067822265625
-0.25351755859375,0.09982393310546875,1.103458671875
-0.14191421875,-0.0504164404296875,1.0348897900390626
-0.1171134765625,0.04712951171875,1.0314490576171875
-0.18932740234375,0.0030132519531249997,0.963371708984375
-0.18397822265625,-0.0011532836914062497,0.9542783447265625
-0.27734572265625,0.04688442138671875,0.9414984814453125
-0.1404553515625,0.0883046875,0.958456376953125
-0.32743349609375,-0.0023787353515625003,1.08871267578125
-0.29242068359375,0.044188427734375,1.2831140576171876
-0.2620276171875,-0.03105430419921875,1.2516559326171874
-0.3339983984375,-0.04919098876953125,1.060695283203125
-0.31722142578125,0.0044837939453125,0.78494515625
-0.26664736328125,-0.052867343750000004,0.5885776416015625
-0.1044699609375,-0.11757119140625,0.605535537109375
-0.183735078125,0.00619942626953125,0.740215634765625
-0.222638203125,0.07237381591796875,0.7404614013671875
-0.1005796484375,0.08953013916015624,0.7807671240234375
-0.168173828125,0.0593840283203125,0.80952181640625
-0.1968648828125,-0.02615249755859375,0.95304951171875
-0.1346198828125,0.1907524462890625,1.218968974609375
-0.18738224609375,0.13536203125,1.292207421875
-0.3446967578125,-0.0249270458984375,1.331530078125
-0.393811953125,0.04443351806640625,1.314326416015625
-0.25692158203125,-0.1582561865234375,1.174730986328125
-0.21947732421875,-0.18889247802734374,1.0334151904296875
-0.1229489453125,-0.169530341796875,0.9916348681640625
-0.092312734375,-0.027868129882812502,0.9793465380859375
-0.201241484375,-0.11193411376953125,1.109848603515625
-0.3111428125,-0.030319033203124998,1.2683680615234374
-0.3281629296875,-0.02174087158203125,1.222901240234375
-0.1715778515625,-0.05409279541015625,1.1014925390624999
-0.23066197265625,-0.05164189208984375,1.0157199951171876
-0.1540714453125,-0.02713285888671875,0.9759058056640625
-0.0743200390625,-0.09771887451171875,0.9041419580078125
-0.2464663671875,-0.036201201171875,0.9704989404296875
-0.3466419140625,-0.016593974609375,1.05135615234375
-0.3456693359375,-0.0768861962890625,1.0245675927734375
-0.284883203125,-0.032279755859375,1.03661015625
-0.19078626953125,-0.07762146728515625,0.9567360107421875
-0.22288134765625,0.018699033203125,0.9719735400390626
-0.23406599609375,-0.0288484912109375,1.041033955078125
-0.30141703125,0.108892275390625,0.99433830078125
-0.251815546875,0.01208159423828125,0.7733941259765625
-0.13024328125,-0.044534272460937496,0.6775451513671875
-0.09839134765625,-0.09379742919921875,0.6495277587890624
-0.09547361328125001,-0.05899460205078125,0.7173593408203125
-0.11200744140625,-0.042328459472656246,0.8387680419921875
-0.2542469921875,0.00791505859375,0.9999909326171875
-0.24379177734375002,0.07531489990234375,1.08871267578125
-0.10422681640625,0.04639424072265625,1.1140266357421875
