ax,ay,az
-0.27491427734375,0.0672269189453125,0.7910893212890625
-0.19127255859375,-0.0562986083984375,0.7711822265625
-0.26227076171875,0.08364797119140625,0.823776279296875
-0.23819945312500002,0.0270321044921875,0.8564632373046875
-0.25497642578125,0.171635400390625,0.8871840625
-0.30020130859375,0.0883046875,0.825742412109375
-0.2124261328125,0.14884199951171875,0.92650671875
-0.35466568359375,0.16256705810546876,0.981066904296875
-0.27053767578125,0.01796376220703125,1.0348897900390626
-0.31381740234375,0.12384278564453124,0.9994993994140625
-0.22361078125,0.10864718505859375,0.9916348681640625
-0.43247193359375,0.10325519775390625,0.9862280029296875
-0.19516287109375,0.0338946337890625,0.968287041015625
-0.299471875,0.06698182861328125,0.9950756005859375
-0.2065906640625,0.03806116943359375,1.0412797216796874
-0.3009307421875,0.0338946337890625,1.01399962890625
-0.331566953125,0.00276816162109375,1.039067822265625
-0.2532744140625,0.0069346972656249995,1.110831669921875
-0.21412814453125,0.04712951171875,1.06118681640625
-0.41885583984375,-0.03350520751953125,1.081339677734375
-0.244034921875,0.02433611083984375,1.2403506689453125
-0.3378887109375,0.0682072802734375,1.20668064453125
-0.36001486328125,-0.06683749267578125,1.0884669091796875
-0.27418484375,-0.01046671630859375,1.0948568408203125
-0.2882872265625,0.02752228515625,1.087238076171875
-0.3038484765625,-0.0249270458984375,1.1086197705078125
-0.35612455078125,0.034384814453125,1.164900322265625
-0.25011353515625,-0.0006631030273437505,1.112797802734375
-0.35515197265625,0.02090484619140625,1.095102607421875
-0.3067662109375,-0.04134809814453125,1.102967138671875
-0.27588685546875,-0.045024453125,1.0874838427734375
-0.33108066406250003,-0.02762303955078125,1.159984990234375
-0.30798193359375,0.05178622802734375,1.2069264111328124
-0.296554140625,-0.0474753564453125,1.0700344140625
-0.3033621875,0.0020328906249999995,1.0830600439453124
-0.30798193359375,0.075559990234375,1.11230626953125
-0.24695265625,-0.04968116943359375,1.0621698828125
-0.28755779296875,-0.013162709960937501,1.048406953125
-0.298499296875,-0.015368522949218751,1.10640787109375
-0.23601115234375,-0.0018885546875000003,1.065610615234375
-0.268349375,-0.0646316796875,1.0860092431640624
-0.34883021484375,-0.0396324658203125,1.18308705078125
-0.26956509765625,-0.0190448779296875,1.102967138671875
-0.21947732421875,-0.0011532836914062497,0.914218388671875
-0.24136033203125,-0.0847290869140625,0.9031588916015625
-0.244034921875,-0.08448399658203125,1.0825685107421874
-0.2785614453125,0.0137972265625,1.0737209130859375
-0.2921775390625,0.03928662109375,0.969270107421875
-0.25692158203125,-0.0582593310546875,1.0697886474609375
-0.2989855859375,0.0799716162109375,1.197341513671875
-0.263486484375,0.108892275390625,1.1720275537109375
-0.18081734375,0.04394333740234375,1.172764853515625
-0.3651208984375,0.03659062744140625,1.0378389892578126
-0.30263275390625,-0.03914228515625,0.9090572900390625
-0.268349375,0.0436982470703125,1.0058893310546875
-0.280992890625,-0.00581,1.0464408203125
-0.253760703125,0.03413972412109375,0.924049052734375
-0.29874244140625,0.0182088525390625,1.032186357421875
-0.30530734375,-0.01561361328125,1.0388220556640624
-0.277102578125,0.10987263671875,0.9744312060546875
-0.27053767578125,0.1280093212890625,1.1211538671875
-0.31478998046875,0.01453249755859375,1.009084296875
-0.21972046875,-0.03252484619140625,0.8446664404296875
-0.31868029296875,0.00766996826171875,0.90389619140625
-0.30871136718750003,-0.050661530761718754,0.9395323486328125
-0.15577345703125,-0.0001729223632812504,0.827708544921875
-0.2649453515625,-0.0857094482421875,0.7738856591796874
-0.29533841796875,-0.04477936279296875,0.81738634765625
-0.24136033203125,-0.10801266845703125,0.8751414990234375
-0.32937865234375,-0.046004814453125,0.972219306640625
-0.22725794921875,0.03855135009765625,0.965337841796875
-0.24330548828125,0.0020328906249999995,0.992863701171875
-0.20026890625,0.09810830078125,0.924049052734375
-0.29363640625,0.0280124658203125,0.77806369140625
-0.2075632421875,-0.0661022216796875,0.837539208984375
-0.29922873046875,0.06281529296875,0.9559987109375
-0.20877896484375,0.06943273193359376,1.001711298828125
-0.26324333984375,-0.01561361328125,0.9444476806640625
-0.35417939453125,0.05276658935546875,0.9166760546875
-0.23528171875,0.06109966064453125,0.9206083203125
-0.2736985546875,0.09688284912109375,0.974185439453125
-0.27613,0.08953013916015624,0.938303515625
-0.24962724609375,-0.065612041015625,0.9061080908203125
-0.175954453125,-0.01561361328125,0.9402696484374999
-0.26154132812499997,-0.01291761962890625,0.977626171875
-0.206104375,0.02923791748046875,1.0189149609375
-0.268349375,-0.00507472900390625,1.048406953125
-0.31284482421875,-0.055808427734375,1.026287958984375
-0.19832375,0.1476165478515625,0.937811982421875
-0.26616107421875,0.026051743164062502,0.936828916015625
-0.2488978125,0.04786478271484375,0.9901602685546875
-0.210967265625,0.04198261474609375,1.0324321240234375
-0.3505322265625,0.0152677685546875,1.0786362451171876
-0.31284482421875,0.05717821533203125,1.0221099267578124
-0.2484115234375,0.08119706787109375,0.9252778857421875
-0.2532744140625,0.08609887451171874,0.959439443359375
-0.2177753125,0.06551128662109375,1.0737209130859375
-0.2843969140625,0.055952763671875,1.062661416015625
-0.30992708984375,0.0593840283203125,1.116730068359375
-0.2649453515625,0.012816865234374999,1.04152548828125
-0.232363984375,0.03928662109375,0.895540126953125
-0.299471875,0.03953171142578125,0.8712092333984375
-0.28512634765625,0.01208159423828125,0.969761640625
-0.247925234375,0.03144373046875,1.0196522607421874
-0.304334765625,0.055952763671875,0.9990078662109375
-0.29922873046875,-0.08007237060546875,1.0407881884765624
-0.3349709765625,-0.0009081933593750001,1.0275167919921875
-0.29485212890625,0.15766525146484375,0.945676513671875
-0.23455228515625,0.00987578125,0.9842618701171875
-0.1920019921875,0.10913736572265625,0.9626344091796875
-0.23309341796875,0.08707923583984375,0.9614055761718749
-0.2333365625,0.104970830078125,1.1533492919921875
-0.36779548828124997,0.06011929931640625,1.1408151953125
-0.31989601562500003,0.026296833496093748,1.1882481494140624
-0.27053767578125,0.07776580322265625,1.1329506640625
-0.32402947265625,0.049090234375,1.0176861279296876
-0.2357680078125,0.0956573974609375,0.9238032861328125
-0.28561263671875,0.01992448486328125,0.949608779296875
-0.22920310546875,0.04884514404296875,1.1331964306640625
-0.20026890625,0.02580665283203125,1.1739936865234375
-0.3291355078125,0.059874208984374996,1.040542421875
-0.18932740234375,0.0603643896484375,0.92945591796875
-0.286828359375,0.011346323242187501,0.8952943603515625
-0.20537494140625,0.14345001220703124,1.06708521484375
-0.19467658203125,0.0691876416015625,1.100017939453125
-0.2970404296875,0.13315621826171875,1.0663479150390625
-0.22579908203125,0.0887948681640625,1.0014655322265624
-0.284883203125,-0.0200252392578125,0.9483799462890625
-0.298499296875,0.02531647216796875,1.0874838427734375
-0.32086859375,-0.048945898437499996,1.0879753759765625
-0.214857578125,-0.01634888427734375,1.0083469970703125
-0.1827625,0.07139345458984375,0.901438525390625
-0.29485212890625,0.01649322021484375,0.951574912109375
-0.214857578125,0.03561026611328125,1.1194335009765626
-0.249870390625,0.06624655761718751,1.0582376171875
-0.214857578125,0.1084020947265625,1.011541962890625
-0.27248283203125,0.09394176513671874,0.83311541015625
-0.29485212890625,0.012816865234374999,0.7075286767578125
-0.18397822265625,0.1123235400390625,0.8026403515625
-0.24136033203125,-0.01879978759765625,0.8082929833984375
-0.2221519140625,0.0574233056640625,0.9390408154296875
-0.29485212890625,0.03928662109375,0.900455458984375
-0.29387955078125,0.0012976196289062499,0.92945591796875
-0.2688356640625,0.07261890625,1.0457035205078125
-0.30409162109375,0.07482471923828125,1.0122792626953125
-0.222638203125,0.05325677001953125,0.95304951171875
-0.31284482421875,0.0878145068359375,0.8574463037109374
-0.21461443359375,0.08413815185546875,0.859658203125
-0.31478998046875,0.0927163134765625,0.9380577490234375
-0.31430369140625003,0.16085142578125,0.89209939453125
-0.19370400390625,0.16795904541015624,0.8498275390625
-0.3320532421875,0.06502110595703126,0.8259881787109375
-0.273212265625,0.0515411376953125,1.0088385302734375
-0.30627992187499997,0.10815700439453126,1.0697886474609375
-0.39089421875,0.101049384765625,0.8746499658203125
-0.1686601171875,0.032424091796875,0.88423486328125
-0.33618669921875,0.096147578125,0.9685328076171875
-0.32354318359375,0.0201695751953125,1.0184234277343749
-0.3184371484375,0.018699033203125,1.0304659912109375
-0.337402421875,0.0133070458984375,0.9021758251953125
-0.32889236328125,-0.06928839599609375,0.9405154150390624
-0.27929087890625,0.04124734375,1.0299744580078125
-0.37606240234375,-0.026397587890625,0.9621428759765625
-0.3952708203125,-0.02737794921875,0.906353857421875
-0.36828177734375,-0.0141430712890625,0.89996392578125
-0.38287044921875,0.16893940673828126,0.8864467626953125
-0.26129818359375,0.08413815185546875,0.9641090087890625
-0.411318359375,0.021640117187500002,1.0353813232421876
-0.24281919921875,-0.04306373046875,0.9857364697265625
-0.30360533203125,0.01747358154296875,0.8299204443359375
-0.35758341796875,-0.04698517578125,0.8205813134765625
-0.26567478515625,0.101049384765625,1.0604495166015624
-0.35369310546875,0.06306038330078124,1.329072412109375
-0.43052677734375,0.1848702783203125,1.489312236328125
-0.46991619140625,0.2534955712890625,1.2899955224609374
-0.48353228515625,0.1701648583984375,1.043983154296875
-0.2999581640625,0.04712951171875,0.9832788037109375
-0.3641483203125,0.077520712890625,1.0235845263671874
-0.24622322265625,0.130460224609375,0.867522734375
-0.205131796875,0.0069346972656249995,0.8264797119140626
-0.32791978515625,0.017718671875,0.8682600341796876
-0.26178447265625,0.11305881103515625,1.0692971142578125
-0.34007701171875,0.0691876416015625,1.224867373046875
-0.40183572265625,0.03928662109375,1.2233927734375
-0.33570041015625,0.044188427734375,1.2723003271484374
-0.3972159765625,-0.01144707763671875,1.2413337353515626
-0.34007701171875,-0.0200252392578125,1.2275708056640624
-0.3301080859375,-0.0523771630859375,1.1223827001953124
-0.15869119140625,-0.022476142578125,1.0756870458984376
-0.255705859375,-0.089140712890625,1.1268064990234374
-0.32159802734375,0.01551285888671875,1.324157080078125
-0.39697283203125,-0.0028689160156250004,1.3411149755859375
-0.41302037109375,0.02752228515625,1.270088427734375
-0.38773333984375,-0.02737794921875,1.242562568359375
-0.28974609375,0.0025230712890624996,1.1445016943359374
-0.22336763671875,-0.02174087158203125,1.024321826171875
-0.302389609375,0.02972809814453125,0.878827998046875
-0.271267109375,0.010856142578125,0.785436689453125
-0.2960678515625,-0.08423890625,0.85081060546875
-0.37168580078125,-0.015368522949218751,1.1223827001953124
-0.1949197265625,-0.11291447509765624,1.401819326171875
-0.35709712890625,0.08805959716796875,1.6286618994140625
-0.33108066406250003,0.1471263671875,1.5038124658203125
-0.36196001953125,-0.04772044677734375,1.0759328125
-0.29776986328125,0.077520712890625,0.8446664404296875
-0.3111428125,0.00791505859375,0.7360376025390625
-0.11346630859375,-0.096983603515625,0.577026611328125
-0.07383375,-0.0298288525390625,0.81148794921875
-0.33667298828125003,0.01600303955078125,0.9351085498046875
-0.35709712890625,0.0133070458984375,0.810996416015625
-0.31333111328125,-0.0028689160156250004,0.87243806640625
-0.31527626953125,0.04124734375,0.8082929833984375
-0.247925234375,0.03462990478515625,0.867031201171875
-0.28415376953125,-0.03301502685546875,0.9346170166015625
-0.3203823046875,0.0765403515625,1.0395593554687501
-0.2989855859375,-0.048945898437499996,0.7751144921875
-0.24670951171875,0.0348749951171875,0.8019030517578125
-0.2571647265625,0.0037485229492187503,0.7298934375
-0.129270703125,-0.027868129882812502,0.7620888623046875
-0.216802734375,-0.06634731201171876,0.9277355517578125
-0.21972046875,0.14590091552734374,1.037101689453125
-0.33375525390625,0.2544759326171875,1.2201978076171875
-0.471618203125,0.2240847314453125,1.227816572265625
-0.4536255078125,0.150067451171875,1.14376439453125
-0.42420501953125,0.05962911865234375,0.893573994140625
-0.129270703125,-0.07860182861328124,0.5384412548828125
-0.09595990234375,-0.13448242431640625,0.42342248535156246
-0.004780703125000001,-0.104826494140625,0.3742691650390625
-0.05316646484375,-0.13007079833984375,0.667468720703125
-0.24695265625,-0.035711020507812496,0.9191337207031249
-0.33570041015625,0.0799716162109375,1.2934362548828124
-0.42225986328125,0.07261890625,1.4281163525390626
-0.43782111328125,0.07531489990234375,1.2531305322265625
-0.455084375,0.1054610107421875,1.0071181640625
-0.3991611328125,-0.0474753564453125,0.6347817626953125
-0.2785614453125,-0.1641383544921875,0.4111341552734375
-0.185680234375,-0.17663796142578125,0.289971220703125
-0.105928828125,-0.16242272216796874,0.199037578125
-0.13534931640625,-0.14673694091796874,0.2779286572265625
-0.1171134765625,-0.112669384765625,0.367633466796875
-0.21169669921875,-0.0200252392578125,0.54802615234375
-0.386031328125,-0.05115171142578125,0.9061080908203125
-0.48645001953125,0.026296833496093748,1.1931634814453125
-0.610696875,0.111833359375,1.266156162109375
-0.4341739453125,0.2329079833984375,1.155069658203125
-0.31187224609374997,0.12555841796875,0.9508376123046876
-0.35101851562499997,-0.008996174316406251,0.8274627783203125
-0.19808060546875,-0.0504164404296875,0.768724560546875
-0.22385392578125,-0.08963089355468751,0.6736128857421875
-0.18227621093750002,-0.07566074462890625,0.8412257080078125
-0.25886673828125,0.018699033203125,1.0648733154296874
-0.43368765625,0.0162481298828125,1.147205126953125
-0.34931650390625,0.038306259765625,1.1474508935546874
-0.40183572265625,0.14394019287109375,1.1164843017578125
-0.32937865234375,0.16060633544921876,1.1565442578125
-0.49082662109375,-0.0268877685546875,0.827708544921875
-0.30311904296875003,0.009140510253906251,0.666485654296875
-0.32500205078125,-0.08497417724609375,0.6637822216796875
-0.12902755859375,-0.10752248779296875,0.7537327978515624
-0.20488865234375,0.09051050048828126,1.137374462890625
-0.38287044921875,0.1574201611328125,1.3524202392578124
-0.28755779296875,0.02727719482421875,1.0778989453125
-0.2552195703125,-0.015368522949218751,0.994829833984375
-0.35806970703125,-0.0298288525390625,0.9356000830078125
-0.33108066406250003,-0.12909043701171874,1.104933271484375
-0.1793584765625,0.057668395996093746,0.993355234375
-0.50541529296875,-0.0063001806640625,0.7080202099609375
-0.28123603515625,-0.0808076416015625,0.6291291308593749
-0.06921400390625,0.04100225341796875,0.868997333984375
-0.15917748046875,0.012816865234374999,1.2501813330078124
-0.481343984375,0.14982236083984374,1.46031177734375
-0.4798851171875,0.238299970703125,1.451955712890625
-0.37119951171875,0.165753232421875,1.154086591796875
-0.17765646484375,0.0093856005859375,0.953541044921875
-0.2999581640625,0.1309504052734375,1.0751955126953125
-0.27613,-0.0004180126953125,0.911269189453125
-0.10763083984374999,-0.0474753564453125,0.8171405810546875
-0.265431640625,0.07972652587890625,0.882760263671875
-0.314060546875,-0.03154448486328125,0.8662939013671875
-0.327676640625,0.11967625,1.01203349609375
-0.4079143359375,0.132420947265625,1.115747001953125
-0.48596373046875,0.18266446533203126,1.33841154296875
-0.35369310546875,0.21599675048828126,1.4337689843749999
-0.3573402734375,0.1495772705078125,1.2634527294921876
-0.170118984375,0.06257020263671875,1.0963314404296876
-0.3690112109375,0.02580665283203125,0.9596852099609375
-0.24622322265625,0.0701680029296875,0.9272440185546875
-0.29242068359375,-0.0425735498046875,0.91372685546875
-0.36585033203125,0.04639424072265625,1.0260421923828125
-0.41739697265625,0.04149243408203125,0.9872110693359375
-0.3408064453125,-0.06046514404296875,0.8869382958984375
-0.439523125,-0.0964934228515625,0.9685328076171875
-0.26907880859375,-0.02762303955078125,0.9478884130859375
-0.2873146484375,0.017718671875,0.71907970703125
-0.205131796875,-0.10580685546875,0.706791376953125
-0.26810623046875,-0.07713128662109375,0.868997333984375
-0.07213173828125,-0.1430605859375,1.1105859033203125
-0.08574783203125,0.15374380615234376,1.5102023974609375
-0.3563676953125,0.00791505859375,0.6863927490234375
-0.35563826171875,0.07727562255859374,0.97074470703125
-0.28512634765625,0.0191892138671875,1.1997991796875
-0.376305546875,0.12555841796875,1.3956751611328124
-0.48985404296875,0.2231043701171875,1.370852734375
-0.3242726171875,0.02972809814453125,1.033169423828125
-0.2017277734375,-0.06879821533203125,0.689096181640625
-0.08185751953125,-0.08227818359375,0.6328156298828125
-0.058272500000000005,-0.13717841796875,0.588823408203125
-0.138996484375,-0.19477464599609376,0.7498005322265625
-0.2756437109375,-0.16242272216796874,0.8928366943359375
-0.25449013671875,-0.1151202880859375,1.086255009765625
-0.52000396484375,0.02531647216796875,1.2076637109375
-0.51076447265625,0.14197947021484375,0.9311762841796875
-0.48547744140625,0.06404074462890624,0.6571465234375
-0.25935302734375,-0.0474753564453125,0.5610517822265625
-0.10544253906250001,-0.1219828173828125,0.56768748046875
-0.22336763671875,-0.12320826904296875,0.579975810546875
-0.20440236328125,-0.013162709960937501,0.5625263818359375
-0.03274232421875,-0.060710234375,0.716622041015625
-0.15577345703125,0.085363603515625,1.0152284619140626
-0.44803318359375,0.1858506396484375,1.4148449560546874
-0.4244481640625,0.2490839453125,1.500125966796875
-0.30457791015625,0.32873830322265624,1.430328251953125
-0.5392123828125,0.2044775048828125,1.035135556640625
-0.41812640624999997,0.1348718505859375,0.6800028173828125
-0.41812640624999997,0.1515379931640625,0.870963466796875
-0.4312562109375,0.14516564453125,0.8662939013671875
-0.438550546875,0.13952856689453125,0.7783094580078125
-0.23260712890625002,0.20815385986328125,0.8338527099609375
-0.0030786914062500004,-0.087179990234375,0.7699533935546875
-0.044899550781250006,0.0133070458984375,1.1538408251953125
-0.69895833984375,-0.061690595703125004,1.5667287158203125
-0.5003092578125,0.08511851318359374,1.572872880859375
-0.57787236328125,0.0505607763671875,1.2796733251953125
-0.51562736328125,0.049090234375,1.0825685107421874
-0.27272597656249997,0.0020328906249999995,0.927981318359375
-0.2892598046875,-0.07958218994140626,0.7741314257812499
-0.12513724609375,-0.11095375244140625,0.8505648388671875
-0.3446967578125,0.09026541015625,0.9700074072265625
-0.44219771484375,-0.0016434643554687498,0.9395323486328125
-0.1920019921875,0.0652661962890625,0.9557529443359375
-0.37800755859375,-0.093062158203125,0.9911433349609375
-0.3884627734375,-0.108747939453125,0.9970417333984375
-0.27734572265625,-0.07909200927734375,0.9449392138671875
-0.3631757421875,-0.17712814208984376,0.79379275390625
-0.2931501171875,-0.1013952294921875,0.7539785644531249
-0.2085358203125,-0.09771887451171875,0.74857169921875
-0.2912049609375,0.0152677685546875,0.9223286865234375
-0.08744984375,0.04443351806640625,1.0975602734375
-0.12027435546875,0.08854977783203125,1.2796733251953125
-0.2600824609375,0.189281904296875,1.5367451904296874
-0.5635268359375,0.14908708984375,1.6684760888671875
-0.40913005859375,0.04002189208984375,1.5775424462890624
-0.40621232421875,0.09835339111328124,1.4615406103515625
-0.50687416015625,0.152028173828125,1.2666476953124999
-0.36828177734375,0.0633054736328125,1.158510390625
-0.12343523437500001,0.02752228515625,0.9891772021484375
-0.08331638671875,0.08266760986328126,0.965829375
-0.14702025390625,-0.0464949951171875,1.1602307568359376
-0.2309051171875,-0.08252327392578125,1.4133703564453124
-0.36196001953125,0.030463369140625002,1.592534208984375
-0.60364568359375,0.0005623486328125002,1.386581796875
-0.35028908203125,0.028502646484374998,1.0818312109375
-0.13534931640625,-0.09404251953125001,0.8102591162109375
-0.212912421875,-0.01193725830078125,0.9414984814453125
-0.415208671875,0.028257556152343752,0.976151572265625
-0.35661083984374997,-0.03252484619140625,0.804606484375
-0.162338359375,-0.03129939453125,0.9778719384765625
-0.39745912109375,0.02041466552734375,0.93928658203125
-0.20197091796875,-0.012672529296875,0.93338818359375
-0.11930177734375,-0.1337471533203125,1.0034316650390624
-0.38238416015625,-0.116590830078125,0.9048792578125
-0.28585578125,-0.0866898095703125,0.6750874853515625
-0.28391062499999997,-0.0376717431640625,0.720554306640625
-0.36341888671875,-0.0180645166015625,0.7212916064453125
-0.2036729296875,0.07457962890625,0.709740576171875
-0.21996361328125,0.2142811181640625,0.8427003076171875
-0.25400384765625,-0.02517213623046875,0.785436689453125
-0.4186126953125,0.0338946337890625,0.8987350927734374
-0.34931650390625,0.05570767333984375,0.7188339404296875
-0.15966376953125,-0.0817880029296875,0.6116797021484375
-0.13607875,-0.03938737548828125,0.655671923828125
-0.11006228515625,0.05864875732421875,0.6514938916015625
-0.1710915625,0.1211467919921875,0.762826162109375
-0.27783201171875,0.00227798095703125,0.88423486328125
-0.39065107421875,0.13756784423828125,0.8348357763671875
-0.26956509765625,0.10595119140625,0.7633176953125
-0.2824517578125,-0.0200252392578125,0.7424275341796875
-0.30919765625,-0.0249270458984375,0.7517666650390625
-0.21266927734375,-0.07443529296875,0.55392455078125
-0.174009296875,-0.0680629443359375,0.42440555175781247
-0.185680234375,-0.042328459472656246,0.38262522949218747
-0.143859375,0.05889384765625,0.43472774902343747
-0.18884111328125,0.08903995849609375,0.6623076220703125
-0.1706052734375,0.0603643896484375,1.0083469970703125
-0.2878009375,0.053992041015625,1.2005364794921876
-0.47575166015625,0.096147578125,1.1533492919921875
-0.21899103515625,-0.03105430419921875,0.9501003125
-0.2192341796875,0.02482629150390625,0.8505648388671875
-0.40523974609375,-0.0406128271484375,0.8132083154296875
-0.22336763671875,-0.030073942871093752,0.920116787109375
-0.28512634765625,0.011346323242187501,0.873912666015625
-0.3505322265625,-0.0121823486328125,0.761843095703125
-0.2561921484375,0.0059543359375,0.75643623046875
-0.32475890625,-0.011201987304687501,0.694994580078125
-0.3344846875,0.15766525146484375,0.7424275341796875
-0.30506419921875,0.07090327392578125,0.6151204345703125
-0.12805498046875,-0.0612004150390625,0.65223119140625
-0.43976626953125,0.01404231689453125,0.8458952734375
-0.450221484375,-0.1219828173828125,0.8773533984374999
-0.21655958984375,-0.05090662109375,1.09067880859375
-0.27685943359375,0.1471263671875,1.1956211474609375
-0.44949205078125,0.242221416015625,1.204222978515625
-0.34226531250000003,0.0721287255859375,1.03366095703125
-0.35417939453125,-0.12369844970703125,1.0385762890625
-0.32889236328125,0.12874459228515625,1.0181776611328126
-0.39745912109375,0.1378129345703125,0.969761640625
-0.33375525390625,-0.0749254736328125,1.091170341796875
-0.3344846875,-0.0798272802734375,0.81345408203125
-0.21850474609375,-0.0092412646484375,0.749063232421875
-0.27831830078124997,-0.03840701416015625,0.687130048828125
-0.2250696484375,0.1427147412109375,0.756927763671875
-0.3388612890625,0.02531647216796875,1.0697886474609375
-0.3719289453125,0.14246965087890626,1.2378930029296875
-0.26567478515625,0.08021670654296875,1.425904453125
-0.3281629296875,0.0907555908203125,1.5340417578125
-0.3767918359375,0.10178465576171875,1.3538948388671874
-0.28804408203125,0.09590248779296875,1.244528701171875
-0.40621232421875,-0.08056255126953125,1.2666476953124999
-0.35369310546875,-0.1288453466796875,1.240596435546875
-0.2114535546875,-0.1033559521484375,1.104933271484375
-0.40961634765625,-0.26389011962890624,0.9985163330078125
-0.269321953125,-0.300898759765625,0.977626171875
-0.18300564453125,-0.20727425292968749,0.988931435546875
-0.14556138671875,-0.018554697265625,1.111814736328125
-0.387976484375,-0.03154448486328125,1.33644541015625
-0.26056875,-0.0994345068359375,1.497176767578125
-0.28561263671875,0.02727719482421875,1.389039462890625
-0.117599765625,0.00766996826171875,1.378717265625
-0.4900971875,-0.238155634765625,1.1356540966796875
-0.44803318359375,-0.1768830517578125,1.0550426513671876
-0.372415234375,-0.0724745703125,0.9641090087890625
-0.16355408203125,-0.20016663330078124,1.0948568408203125
-0.37800755859375,-0.014633251953124999,1.4000989599609375
-0.44462916015625,-0.018554697265625,1.2673849951171876
-0.31527626953125,-0.03938737548828125,0.93142205078125
-0.42590703125,-0.00262382568359375,0.9798380712890625
-0.3694975,-0.03522083984375,0.876861865234375
-0.1472633984375,0.0858537841796875,0.8360646093749999
-0.2561921484375,-0.098944326171875,0.8903790283203125
-0.26761994140625,0.20570295654296875,0.9704989404296875
-0.42760904296875,-0.0415931884765625,1.068559814453125
-0.352963671875,-0.0817880029296875,1.22437583984375
-0.4001337109375,0.0495804150390625,1.3089195507812499
-0.51708623046875,-0.22712656982421875,1.197341513671875
-0.26032560546875,-0.165608896484375,1.103950205078125
-0.30652306640625,-0.161687451171875,1.0088385302734375
-0.2022140625,-0.30580056640625,0.820827080078125
-0.298499296875,-0.302859482421875,0.75840236328125
-0.28950294921874997,-0.3013889404296875,0.8097675830078125
-0.206104375,-0.13105115966796876,0.8451579736328125
-0.2386857421875,-0.13889405029296875,0.8918536279296875
-0.3690112109375,0.0750698095703125,0.7790467578125
-0.52632572265625,-0.1121792041015625,0.8014115185546875
-0.30944080078125,0.024091020507812498,0.8348357763671875
-0.14312994140625,0.10227483642578125,0.760860029296875
-0.35612455078125,0.015022678222656249,0.567195947265625
-0.2017277734375,-0.13497260498046876,0.6510023583984375
-0.23528171875,-0.17247142578125,0.9877026025390625
-0.52438056640625,-0.14575657958984375,1.1558069580078125
-0.236254296875,-0.0009081933593750001,0.8967689599609375
-0.03955037109375,-0.05899460205078125,0.859658203125
-0.35466568359375,0.09002031982421875,0.969761640625
-0.41399294921875,0.2064382275390625,0.955507177734375
-0.3116291015625,0.03561026611328125,0.83704767578125
-0.2814791796875,0.028257556152343752,0.6610787890625
-0.2999581640625,-0.00262382568359375,0.4981355322265625
-0.08234380859375,-0.0955130615234375,0.6539515576171875
-0.01912623046875,-0.07835673828125,0.894557060546875
-0.4278521875,-0.0053198193359375,0.9994993994140625
-0.3515048046875,-0.02419177490234375,1.0555341845703126
-0.29387955078125,0.07482471923828125,1.270088427734375
-0.42809533203125,0.075559990234375,1.31875021484375
-0.24768208984375,0.10178465576171875,1.189476982421875
-0.27272597656249997,-0.1249239013671875,0.9198710205078124
-0.2240970703125,0.06747200927734374,0.7625803955078125
-0.3855450390625,-0.08963089355468751,0.71514744140625
-0.28074974609375003,-0.06830803466796875,0.777080625
-0.159420625,0.04884514404296875,0.718588173828125
-0.08380267578125,0.114774443359375,0.7743771923828124
-0.39089421875,0.16991976806640624,1.07298361328125
-0.455084375,0.026296833496093748,1.048898486328125
-0.12367837890625,0.0883046875,0.96484630859375
-0.470645625,0.16109651611328124,0.8987350927734374
-0.38870591796875,-0.1013952294921875,0.936828916015625
-0.1827625,-0.0161037939453125,1.124594599609375
-0.56522884765625,0.0358553564453125,1.09657720703125
-0.31868029296875,-0.10213050048828125,0.8365561425781249
-0.0694571484375,-0.0651218603515625,0.7085117431640625
-0.2411171875,-0.01683906494140625,0.769707626953125
-0.43830740234375,0.06698182861328125,0.7507835986328125
-0.18349193359375,0.0883046875,0.7247323388671875
-0.1774133203125,-0.05605351806640625,0.950591845703125
-0.38530189453125,-0.11536537841796875,1.0425085546875
-0.335457265625,0.06624655761718751,1.0688055810546875
-0.27345541015625,0.0985984814453125,0.9717277734375
-0.28318119140625,0.061834931640625,0.760860029296875
-0.25157240234375,0.03708080810546875,0.764792294921875
-0.2717533984375,0.0917359521484375,0.9124980224609375
-0.33910443359375,-0.07664110595703125,0.9906518017578125
-0.25983931640625,0.0721287255859375,1.0373474560546876
-0.3641483203125,-0.01438816162109375,0.8572005371093749
-0.2503566796875,-0.15801109619140624,0.74463943359375
-0.29144810546875,0.03855135009765625,1.0425085546875
-0.35612455078125,0.02752228515625,1.0071181640625
-0.34737134765625,-0.0386521044921875,0.954524111328125
-0.259596171875,0.0182088525390625,1.1250861328125
-0.29363640625,0.08021670654296875,1.0250591259765625
-0.29509527343749997,0.0407571630859375,0.8412257080078125
-0.25643529296875,0.03462990478515625,0.7581565966796875
-0.2338228515625,-0.05752406005859375,0.7596311962890625
-0.34542619140624997,-0.0906112548828125,0.9454307470703125
-0.34639876953125,-0.13889405029296875,1.3042499853515626
-0.39891798828125,-0.09624833251953124,1.331038544921875
-0.37533296875,-0.11634573974609375,0.933879716796875
-0.2805066015625,-0.01389798095703125,0.8422087744140625
-0.2795340234375,-0.11561046875,0.74857169921875
-0.35393625,-0.12075736572265625,0.703842177734375
-0.33326896484375,0.0564429443359375,1.0378389892578126
-0.34299474609375,0.0074248779296875,1.095102607421875
-0.41812640624999997,-0.076396015625,1.0830600439453124
-0.33424154296874997,0.04320806640625,0.9990078662109375
-0.2989855859375,-0.0406128271484375,0.798216552734375
-0.1920019921875,0.028502646484374998,0.766758427734375
-0.25692158203125,-0.042328459472656246,0.883251796875
-0.3048210546875,-0.04036773681640625,1.0683140478515625
-0.27029453125,-0.05874951171875,1.0717547802734375
-0.3155194140625,0.0633054736328125,1.019406494140625
-0.2824517578125,0.022620478515625,0.9552614111328125
-0.28998923828125,-0.03497574951171875,0.938795048828125
-0.35101851562499997,0.05374695068359375,1.15556119140625
-0.3904079296875,-0.00581,1.32464861328125
-0.36463460937500003,0.0329142724609375,1.28827515625
-0.34980279296875,0.114774443359375,1.177680185546875
-0.2912049609375,-0.0249270458984375,1.09461107421875
-0.2488978125,-0.03644629150390625,1.007609697265625
-0.2095083984375,0.03708080810546875,1.0088385302734375
-0.2056180859375,-0.045024453125,0.94518498046875
-0.29582470703125,-0.06536695068359374,1.0206353271484374
-0.221665625,-0.05752406005859375,0.9523122119140625
-0.16258150390625,0.06747200927734374,0.9036504248046875
-0.25862359375,-0.089140712890625,0.7355460693359375
-0.27783201171875,-0.0504164404296875,0.8242678125
-0.3378887109375,-0.013407800292968751,1.063644482421875
-0.26664736328125,-0.02027032958984375,1.1739936865234375
-0.4079143359375,0.0544822216796875,1.2020110791015626
-0.35369310546875,0.01600303955078125,1.166866455078125
-0.308225078125,-0.1474722119140625,0.9186421875
-0.25205869140625,-0.12222790771484375,0.70335064453125
-0.1861665234375,-0.04821062744140625,0.67582478515625
-0.15066742187499998,0.0123266845703125,0.6441208935546875
-0.26056875,0.0074248779296875,0.751029365234375
-0.4156949609375,-0.0210056005859375,0.80952181640625
-0.27880458984375,0.01551285888671875,0.8154202148437499
-0.39648654296875,0.050070595703125,0.8498275390625
-0.220693046875,0.148106728515625,1.0582376171875
-0.3670660546875,0.00619942626953125,1.0815854443359374
-0.44900576171875,-0.1013952294921875,1.0304659912109375
-0.44025255859375,-0.17247142578125,1.04152548828125
-0.28123603515625,-0.2229600341796875,0.8028861181640625
-0.26859251953125,-0.11732610107421874,0.4765080712890625
-0.19273142578125,-0.1700205224609375,0.3683707666015625
-0.1200312109375,-0.1994313623046875,0.404006923828125
-0.166228671875,-0.1798241357421875,0.5856284423828125
-0.294608984375,-0.12565917236328125,0.81148794921875
-0.38287044921875,-0.16193254150390626,0.823776279296875
-0.40815748046875,-0.03056412353515625,0.7714279931640625
-0.376305546875,0.08609887451171874,0.7746229589843749
-0.18689595703125,0.06624655761718751,0.783470556640625
-0.22823052734375,-0.134237333984375,0.83901380859375
-0.358799140625,-0.05874951171875,0.7984623193359375
-0.282938046875,-0.069533486328125,0.7537327978515624
-0.23819945312500002,-0.0999246875,0.59324720703125
-0.220693046875,-0.11928682373046876,0.521483359375
-0.16549923828125,-0.059729873046875,0.636993662109375
-0.2882872265625,-0.03350520751953125,0.935845849609375
-0.308225078125,-0.16634416748046876,1.01596576171875
-0.35320681640625,-0.10507158447265624,1.0936280078125
-0.392839375,-0.02370159423828125,0.953541044921875
-0.185680234375,-0.095022880859375,0.88620099609375
-0.255705859375,0.050070595703125,1.0717547802734375
-0.7142764453125,0.09051050048828126,1.2570627978515625
-0.42906791015625,-0.061690595703125004,0.978117705078125
-0.2620276171875,-0.11977700439453125,0.81738634765625
-0.199296328125,-0.02958376220703125,0.6839350830078125
-0.27248283203125,-0.06144550537109375,0.7724110595703125
-0.30263275390625,-0.10752248779296875,0.8884128955078126
-0.3806821484375,-0.0533575244140625,1.09657720703125
-0.42566388671875,-0.02762303955078125,1.112797802734375
-0.4409819921875,-0.008751083984375,1.2157740087890625
-0.22628537109375,0.0133070458984375,1.3661831689453126
-0.4059691796875,0.05889384765625,1.3067076513671876
-0.4302836328125,-0.077376376953125,1.2462490673828124
-0.38457246093749997,-0.0955130615234375,1.00613509765625
-0.34250845703125,0.012816865234374999,0.9523122119140625
-0.47842625,-0.20555862060546876,0.76626689453125
-0.34104958984375,-0.1273748046875,1.0108046630859375
-0.3155194140625,-0.02664267822265625,1.0786362451171876
-0.31478998046875,-0.15016820556640625,1.03562708984375
-0.25594900390624997,0.0074248779296875,1.2275708056640624
-0.27613,-0.09820905517578125,1.12803533203125
-0.26421591796875,0.028502646484374998,1.1902142822265624
-0.315033125,-0.0915916162109375,1.0597122167968749
-0.19467658203125,-0.18153976806640626,1.00515203125
-0.28585578125,-0.11830646240234374,1.2619781298828125
-0.45046462890625,-0.11536537841796875,1.4718628076171876
-0.45678638671875,0.0221302978515625,1.62350080078125
-0.47380650390625,-0.120512275390625,1.4315570849609376
-0.3767918359375,-0.00801581298828125,1.1184504345703126
-0.23309341796875,-0.03252484619140625,0.972219306640625
-0.15917748046875,-0.0876701708984375,1.0378389892578126
-0.3641483203125,-0.10188541015625,1.103458671875
-0.24306234375,-0.14771730224609375,1.0031858984375
-0.2153438671875,-0.18006922607421874,0.98942296875
-0.22434021484375,-0.03546593017578125,1.0550426513671876
-0.28318119140625,-0.05801424072265625,1.0339067236328126
-0.29509527343749997,0.10031411376953125,1.3013007861328125
-0.5353220703125,0.17923320068359375,1.374785
-0.3709563671875,0.0003172583007812497,1.2201978076171875
-0.15382830078125,0.02090484619140625,1.0975602734375
-0.41812640624999997,0.0966377587890625,1.080356611328125
-0.397702265625,-0.04772044677734375,1.206189111328125
-0.549424453125,-0.14575657958984375,1.0329236572265625
-0.298499296875,0.021885207519531248,0.769707626953125
-0.17279357421875,-0.07026875732421875,0.7114609423828124
-0.049276152343750004,-0.05654369873046875,0.6323240966796875
-0.08355953125,-0.10016977783203125,0.7473428662109375
-0.22701480468750002,0.06649164794921875,1.0103131298828125
-0.5674171484375,-0.00262382568359375,1.1071451708984374
-0.40572603515625,0.02433611083984375,1.19291771484375
-0.49763466796875,0.06281529296875,1.1486797265625
-0.37606240234375,0.01159141357421875,1.0520934521484375
-0.3067662109375,-0.00997653564453125,0.954524111328125
-0.3145468359375,-0.16046199951171874,0.901438525390625
-0.189570546875,-0.10213050048828125,0.7837163232421875
-0.20683380859375,-0.1180613720703125,0.7414444677734375
-0.2532744140625,-0.046740085449218746,0.8780906982421874
-0.34348103515625,-0.1170810107421875,0.818860947265625
-0.23066197265625,0.01453249755859375,0.8825144970703125
-0.3656071875,0.0123266845703125,0.8903790283203125
-0.366579765625,-0.12860025634765626,0.912252255859375
-0.31089966796875,0.07286399658203124,1.044966220703125
-0.349073359375,0.12433296630859375,0.9434646142578125
-0.2532744140625,0.00766996826171875,0.881777197265625
-0.10811712890625,0.1103628173828125,0.977134638671875
-0.19564916015625,0.0069346972656249995,1.159001923828125
-0.48888146484375,0.0711483642578125,1.328089345703125
-0.48207341796875003,0.08756941650390625,1.2811479248046875
-0.49423064453125,0.06796218994140625,1.0540595849609375
-0.2989855859375,0.01992448486328125,0.6863927490234375
-0.041495527343750005,-0.04526954345703125,0.5089492626953125
-0.09255587890625,-0.02909358154296875,0.59324720703125
-0.23941517578125,-0.01144707763671875,0.755944697265625
-0.325731484375,-0.0038492773437499997,1.0117877294921875
-0.30798193359375,0.07065818359375,1.1931634814453125
-0.35344996093750003,0.0843832421875,1.296631220703125
-0.23990146484375,0.148106728515625,1.3214536474609375
-0.30846822265625,0.08070688720703124,1.17817171875
-0.38821962890625,-0.06659240234375,0.9783634716796875
-0.40669861328125,0.01992448486328125,1.0388220556640624
-0.378250703125,7.216796875000007e-05,0.9188879541015624
-0.30214646484375,-0.060710234375,0.683197783203125
-0.1336473046875,-0.03742665283203125,0.8019030517578125
-0.2309051171875,-0.0219859619140625,0.951574912109375
-0.33229638671875,-0.05090662109375,0.9611598095703124
-0.221665625,0.0373258984375,1.0004824658203124
-0.25108611328125,0.06453092529296875,1.0368559228515626
-0.23917203125,0.04320806640625,0.97271083984375
-0.279047734375,-0.00409436767578125,1.0117877294921875
-0.2552195703125,0.02433611083984375,1.0078554638671875
-0.39210994140625,0.01012087158203125,0.7866655224609375
-0.331566953125,-0.05997496337890625,0.9542783447265625
-0.31576255859375,0.05105095703125,1.1213996337890624
-0.34810078125,-0.0043394580078125,1.049881552734375
-0.228473671875,-0.02027032958984375,1.0245675927734375
-0.228473671875,0.063795654296875,1.0343982568359376
-0.2357680078125,-0.08056255126953125,0.828200078125
-0.2099946875,-0.06879821533203125,0.8697346337890625
-0.2960678515625,-0.10213050048828125,0.9449392138671875
-0.30846822265625,-0.0259074072265625,0.9442019140625
-0.30141703125,-0.00458454833984375,0.934862783203125
-0.3271903515625,0.0280124658203125,0.9002096923828125
-0.16501294921875,-0.02174087158203125,0.8451579736328125
-0.30141703125,0.00668960693359375,0.82525087890625
-0.30457791015625,-0.0945327001953125,0.7586481298828125
-0.236254296875,-0.0298288525390625,0.7129355419921874
-0.2250696484375,0.032424091796875,0.7242408056640625
-0.315033125,-0.08742508056640624,0.81640328125
-0.27029453125,0.004973974609375,0.9773804052734375
-0.20829267578125,-0.006790361328125,0.977626171875
-0.29509527343749997,-0.0631611376953125,0.9842618701171875
-0.2639727734375,0.04100225341796875,0.903404658203125
-0.2659179296875,-0.05311243408203125,0.8451579736328125
-0.3252451953125,-0.00703545166015625,0.83311541015625
-0.22628537109375,0.0686974609375,0.87637033203125
-0.24476435546875,0.00766996826171875,0.8154202148437499
-0.259596171875,-0.0092412646484375,0.7871570556640625
-0.22288134765625,-0.0670825830078125,0.902913125
-0.32864921874999997,0.01600303955078125,0.9105318896484375
-0.28998923828125,0.024091020507812498,0.9559987109375
-0.26251390625,0.05105095703125,0.8721922998046875
-0.23747001953125,0.00423870361328125,0.8028861181640625
-0.321841171875,-0.057278969726562504,0.78494515625
-0.294608984375,-0.0254172265625,0.9439561474609375
-0.32694720703125,0.00521906494140625,1.00416896484375
-0.24719580078125,0.03904153076171875,0.908319990234375
-0.33959072265625,0.0525214990234375,1.04742388671875
-0.263486484375,0.0280124658203125,1.0068723974609375
-0.26567478515625,0.033404453125,0.9559987109375
-0.29339326171875,-0.0141430712890625,1.1150097021484375
-0.346155625,-0.02909358154296875,0.979100771484375
-0.2756437109375,-0.0016434643554687498,0.93437125
-0.27345541015625,0.0878145068359375,0.9552614111328125
-0.39308251953125,-0.01169216796875,0.938795048828125
-0.3135742578125,0.01306195556640625,0.9837703369140625
-0.3320532421875,-0.0141430712890625,1.030220224609375
-0.315033125,0.02286556884765625,1.1115689697265625
-0.30627992187499997,0.0182088525390625,1.027271025390625
-0.302389609375,0.0008074389648437498,0.9641090087890625
-0.22725794921875,0.05717821533203125,0.8967689599609375
-0.31308796875,-0.02076051025390625,0.9375662158203125
-0.26129818359375,-0.0092412646484375,1.1213996337890624
-0.24087404296875,0.018699033203125,1.08871267578125
-0.39210994140625,0.04002189208984375,1.1091113037109375
-0.37508982421875,0.05913893798828125,1.182595517578125
-0.34493990234375,-0.029338671875,1.1135351025390625
-0.37533296875,0.0152677685546875,1.199307646484375
-0.345183046875,-0.015368522949218751,1.110831669921875
-0.31576255859375,-0.1102184814453125,0.9604225097656249
-0.21947732421875,-0.00703545166015625,0.9292101513671875
-0.33326896484375,-0.132276611328125,0.8972604931640625
-0.2406308984375,-0.063651318359375,0.9609140429687499
-0.168173828125,-0.04085791748046875,0.9582106103515625
-0.1871391015625,-0.03522083984375,1.0402966552734374
-0.20829267578125,0.02752228515625,1.2509186328125
-0.269321953125,0.18609572998046875,1.4428623486328125
-0.34542619140624997,0.140263837890625,1.4118957568359374
-0.432715078125,0.1084020947265625,1.4200060546875
-0.37314466796875,0.12335260498046875,1.3420980419921875
-0.384086171875,-0.010711806640625,1.2895039892578124
-0.24962724609375,0.0731090869140625,1.2020110791015626
-0.32475890625,0.02286556884765625,0.9582106103515625
-0.2056180859375,0.0010525292968750002,0.985490703125
-0.19613544921875,-0.09012107421875,1.1002637060546876
-0.29144810546875,-0.0092412646484375,1.134916796875
-0.205131796875,0.04443351806640625,1.0604495166015624
-0.2104809765625,-0.02027032958984375,1.0582376171875
-0.2834243359375,0.04124734375,1.0525849853515625
-0.29436583984375,0.03708080810546875,1.1014925390624999
-0.312115390625,0.0201695751953125,1.2418252685546876
-0.3806821484375,-0.013162709960937501,1.2860632568359376
-0.30409162109375,0.16011615478515626,1.3799460986328125
-0.37800755859375,0.18045865234375,1.1017383056640626
-0.3155194140625,-0.0259074072265625,0.868997333984375
-0.27418484375,0.0652661962890625,0.838522275390625
-0.2309051171875,0.0397768017578125,0.7593854296875
-0.22361078125,0.04002189208984375,0.8078014501953125
-0.2075632421875,0.00276816162109375,0.6976980126953125
-0.10033650390625,-0.0033590966796874996,0.6642737548828125
-0.2367405859375,0.0162481298828125,0.810013349609375
-0.232363984375,0.132420947265625,1.0132623291015626
-0.29193439453125003,0.18462518798828126,1.1604765234375
-0.24914095703125,0.2182025634765625,1.1194335009765626
-0.3267040625,0.06404074462890624,1.043000087890625
-0.24306234375,0.06257020263671875,0.997779033203125
-0.26713365234374997,-0.0396324658203125,0.9528037451171875
-0.2143712890625,-0.047965537109375,0.7842078564453125
-0.160393203125,-0.03301502685546875,0.6008659716796875
-0.16501294921875,-0.07075893798828126,0.5785012109375
-0.175954453125,-0.0082609033203125,0.675333251953125
-0.2571647265625,0.03413972412109375,0.749063232421875
-0.146777109375,0.06796218994140625,0.8785822314453124
-0.26956509765625,0.09884357177734375,1.0304659912109375
-0.25449013671875,0.19050735595703125,1.1388490625
-0.2882872265625,0.2103596728515625,1.1774344189453125
-0.29533841796875,0.17090012939453125,1.088221142578125
-0.1881116796875,0.11452935302734375,0.9572275439453125
-0.20245720703125,0.03266918212890625,1.0481611865234375
-0.33642984375,-0.0082609033203125,0.9975332666015625
-0.2503566796875,0.09737302978515625,0.83311541015625
-0.218747890625,0.009140510253906251,0.5841538427734375
-0.14264365234375,-0.1308060693359375,0.4593044091796875
-0.11638404296875,-0.1102184814453125,0.53819548828125
-0.18154677734375,-0.0023787353515625003,0.7286646044921875
-0.15747546875,0.03708080810546875,0.7746229589843749
-0.33132380859375,-0.06487677001953125,0.7534870312499999
-0.35369310546875,-0.04526954345703125,0.7670041943359375
-0.21169669921875,0.07776580322265625,0.8259881787109375
-0.22044990234375,0.150067451171875,0.829674677734375
-0.31989601562500003,0.0397768017578125,0.7778179248046875
-0.2104809765625,-0.01953505859375,0.7242408056640625
-0.286828359375,-0.01781942626953125,0.676316318359375
-0.16890326171875,-0.07958218994140626,0.69548611328125
-0.17036212890625,0.04247279541015625,0.6465785595703125
-0.20099833984375,0.00668960693359375,0.6399428613281251
-0.1424005078125,0.0054641552734375,0.8073099169921875
-0.29363640625,0.07629526123046874,1.0884669091796875
-0.40256515625,0.08168724853515624,1.2668934619140626
-0.3262177734375,0.053992041015625,1.1749767529296875
-0.21218298828125,0.09688284912109375,0.9975332666015625
-0.282938046875,0.02923791748046875,0.9041419580078125
-0.24670951171875,-0.07051384765625,0.8633447021484375
-0.2114535546875,-0.0464949951171875,0.78494515625
-0.31624884765625,-0.0038492773437499997,0.685163916015625
-0.19662173828125,-0.0906112548828125,0.543602353515625
-0.2542469921875,-0.0768861962890625,0.43005818359375
-0.24306234375,-0.059484782714843754,0.509195029296875
-0.21193984375,-0.07468038330078125,0.52443255859375
-0.21704587890625,-0.02149578125,0.564246748046875
-0.218747890625,-0.06193568603515625,0.5492549853515625
-0.1900568359375,-0.09673851318359375,0.65911265625
-0.3048210546875,-0.0308092138671875,0.8775991650390624
-0.24695265625,-0.011201987304687501,0.998762099609375
-0.2513292578125,-0.0055649096679687505,1.0663479150390625
-0.1851939453125,0.03266918212890625,1.1857904833984374
-0.36633662109375,-0.0180645166015625,1.1474508935546874
-0.2182616015625,-0.04772044677734375,0.985982236328125
-0.30141703125,0.0446786083984375,0.8019030517578125
-0.24184662109375,-0.0435539111328125,0.7473428662109375
-0.28901666015625,-0.00458454833984375,0.8549886376953125
-0.384086171875,-0.0254172265625,0.9267524853515625
-0.25692158203125,0.016738310546875,1.09657720703125
-0.30068759765624997,0.06845237060546874,1.0142453955078126
-0.27029453125,-0.00311400634765625,0.9591936767578125
-0.20877896484375,0.015022678222656249,0.9972875
-0.29533841796875,0.06600146728515625,1.1784174853515625
-0.3816547265625,0.1221271533203125,1.24010490234375
-0.3388612890625,0.0436982470703125,1.1921804150390625
-0.29679728515625,0.028502646484374998,1.1408151953125
-0.259596171875,0.08217742919921875,1.04939001953125
-0.24816837890625,0.0037485229492187503,1.056271484375
-0.26081189453125,0.04786478271484375,1.1474508935546874
-0.2211793359375,0.10031411376953125,1.1445016943359374
-0.26081189453125,0.02139502685546875,1.1636714892578124
-0.299471875,0.046149150390625,1.0425085546875
-0.28609892578125,0.03806116943359375,1.035135556640625
-0.31624884765625,0.048109873046875,0.9385492822265625
-0.3009307421875,-0.00360418701171875,0.9331424169921875
-0.2912049609375,-0.01193725830078125,1.02383029296875
-0.28220861328125,0.05497240234375,1.0412797216796874
-0.27515742187500003,0.00791505859375,1.060695283203125
-0.2124261328125,0.0137972265625,1.129509931640625
-0.32889236328125,0.02360083984375,1.0597122167968749
-0.2532744140625,0.05374695068359375,1.0688055810546875
-0.26956509765625,0.0809519775390625,1.128526865234375
-0.4122909375,0.040266982421875,1.1985703466796875
-0.3116291015625,0.09149086181640625,1.2329776708984375
-0.2552195703125,0.1025199267578125,1.212087509765625
-0.3145468359375,0.1368325732421875,1.1159927685546875
-0.2347954296875,0.04247279541015625,1.116730068359375
-0.30700935546875,0.0436982470703125,1.1835785839843749
-0.3048210546875,0.00717978759765625,1.17325638671875
-0.28318119140625,-0.00703545166015625,1.1951296142578125
-0.28974609375,-0.0023787353515625003,1.081339677734375
-0.2581373046875,0.01404231689453125,1.1027213720703124
-0.26761994140625,0.097127939453125,1.177680185546875
-0.20926525390625,0.14541073486328124,1.2246216064453126
-0.33642984375,0.059874208984374996,1.12213693359375
-0.28318119140625,-0.0592396923828125,1.3809291650390625
-0.268349375,0.0829127001953125,1.275003759765625
-0.312115390625,-0.073454931640625,1.1459762939453124
-0.25108611328125,0.04443351806640625,1.1172216015625
-0.28658521484375,-0.073454931640625,0.922082919921875
-0.3038484765625,-0.096983603515625,0.910286123046875
-0.34202216796875,0.01110123291015625,0.8461410400390625
-0.28415376953125,-0.10458140380859375,0.9272440185546875
-0.22361078125,0.0436982470703125,1.01006736328125
-0.30020130859375,0.09810830078125,0.962388642578125
-0.2571647265625,0.1005592041015625,0.812471015625
-0.156502890625,0.0172284912109375,0.7276815380859375
-0.2347954296875,0.00963069091796875,0.9852449365234375
-0.24622322265625,0.1044806494140625,1.0629071826171874
-0.2941226953125,0.0378160791015625,0.9631259423828125
-0.3145468359375,0.12825441162109374,0.84491220703125
-0.29776986328125,0.11967625,0.808047216796875
-0.22142248046875002,0.12188206298828125,1.13393373046875
-0.277102578125,0.1348718505859375,1.09067880859375
-0.18786853515625002,0.0608545703125,0.9520664453125
-0.17814275390625,0.0025230712890624996,0.9616513427734374
-0.21315556640625,0.0936966748046875,0.945676513671875
-0.23601115234375,0.12972495361328126,0.996795966796875
-0.2260422265625,0.11943115966796874,0.965829375
-0.237226875,0.10962754638671875,0.8844806298828125
-0.2464663671875,0.0525214990234375,0.86653966796875
-0.2464663671875,0.06453092529296875,0.8830060302734375
-0.3019033203125,-0.03350520751953125,0.840488408203125
-0.2620276171875,0.00521906494140625,0.8618701025390625
-0.26640421875,0.075559990234375,0.8422087744140625
-0.30409162109375,0.02360083984375,0.876861865234375
-0.15066742187499998,0.0456589697265625,0.81345408203125
-0.2484115234375,0.0142874072265625,0.8510563720703125
-0.17911533203125,-0.02027032958984375,1.057746083984375
-0.22677166015625,0.143204921875,1.1430270947265626
-0.3135742578125,0.06673673828125,1.167849521484375
-0.31308796875,0.10521592041015625,1.19684998046875
-0.19856689453125,0.12163697265625,1.1843158837890626
-0.24087404296875,0.1079119140625,1.1567900244140625
-0.26859251953125,0.07972652587890625,1.0250591259765625
-0.2941226953125,0.1231075146484375,0.9154472216796875
-0.22239505859375,-0.02149578125,0.787402822265625
-0.25254498046875,0.062080021972656246,0.7279273046875
-0.2980130078125,-0.0170841552734375,0.72497810546875
-0.2620276171875,0.00472888427734375,0.765775361328125
-0.29485212890625,0.05227640869140625,0.7419360009765625
-0.26081189453125,-0.0016434643554687498,0.704825244140625
-0.23917203125,0.00717978759765625,0.8023945849609375
-0.34153587890625,-0.01928996826171875,0.9188879541015624
-0.29193439453125003,0.07580508056640625,1.1115689697265625
-0.33813185546875,0.10864718505859375,0.9818042041015624
-0.3437241796875,0.0843832421875,1.010558896484375
-0.28901666015625,0.04394333740234375,1.0058893310546875
-0.3835998828125,0.00816014892578125,0.921099853515625
-0.31868029296875,0.0280124658203125,0.900455458984375
-0.32208431640625,-0.04134809814453125,0.781012890625
-0.27880458984375,-0.05482806640625,0.6984353125
-0.2843969140625,-0.0161037939453125,0.78396208984375
-0.23455228515625,-0.0347306591796875,0.8889044287109376
-0.25935302734375,0.081442158203125,1.05332228515625
-0.2411171875,0.02727719482421875,1.1641630224609374
-0.27151025390625,0.010611052246093749,1.2142994091796875
-0.300444453125,0.0740894482421875,1.2312573046875
-0.2785614453125,-0.040122646484374996,1.1784174853515625
-0.24306234375,0.05668803466796875,1.1440101611328124
-0.27807515625,0.0358553564453125,1.0796193115234376
-0.20391607421875,-0.00213364501953125,1.0162115283203126
-0.298499296875,0.09982393310546875,0.9424815478515625
-0.38092529296875,-0.0200252392578125,0.9638632421875
-0.28464005859375,0.057668395996093746,1.00416896484375
-0.30020130859375,-0.006790361328125,0.9326508837890625
-0.310170234375,0.053992041015625,1.0110504296875
-0.3583128515625,0.028257556152343752,1.0250591259765625
-0.33035123046875,-0.030319033203124998,1.1037044384765624
-0.32791978515625,0.0255615625,1.2548508984375
-0.2678630859375,0.00570924560546875,1.3799460986328125
-0.3777644140625,-0.0494360791015625,1.341852275390625
-0.269321953125,-0.046249904785156254,1.2796733251953125
-0.3096839453125,0.03364954345703125,1.1499085595703125
-0.265431640625,-0.03129939453125,1.05135615234375
-0.27029453125,-0.03399538818359375,1.14769666015625
-0.26567478515625,-0.07222947998046875,1.1695698876953124
-0.28196546875,-0.010221625976562499,1.0638902490234374
-0.29776986328125,-0.07811164794921875,0.8146829150390625
-0.31235853515625,-0.038161923828125,0.863098935546875
-0.2644590625,-0.035711020507812496,0.9282270849609375
-0.28707150390625,0.062080021972656246,0.9454307470703125
-0.29533841796875,0.01257177490234375,1.056271484375
-0.3106565234375,0.10619628173828125,1.213070576171875
-0.24379177734375002,0.0887948681640625,1.0157199951171876
-0.31138595703125,-0.01487834228515625,1.037101689453125
-0.23819945312500002,0.111833359375,1.21651130859375
-0.46991619140625,-0.08252327392578125,1.1307387646484375
-0.32475890625,-0.0513968017578125,1.2233927734375
-0.30360533203125,0.01747358154296875,1.2560797314453125
-0.36147373046875,-0.11928682373046876,0.9734481396484375
-0.28464005859375,-0.07370002197265625,0.9749227392578125
-0.1521262890625,0.05913893798828125,1.123611533203125
-0.2114535546875,-0.05752406005859375,0.9341254833984375
-0.21023783203125002,-0.05115171142578125,1.0889584423828125
-0.2464663671875,-0.0055649096679687505,1.16342572265625
-0.28074974609375003,-0.14502130859375,1.00416896484375
-0.2644590625,-0.0200252392578125,1.2157740087890625
-0.35077537109375,-0.05115171142578125,1.2115959765625
-0.321841171875,-0.00605509033203125,1.06118681640625
-0.317950859375,0.157910341796875,1.010558896484375
-0.3933256640625,-0.030073942871093752,0.91372685546875
-0.408400625,-0.13987441162109376,0.7773263916015625
-0.27272597656249997,-0.1004148681640625,0.7517666650390625
-0.23406599609375,-0.1092381201171875,0.5630179150390625
-0.1633109375,-0.14109986328125,0.5138645947265625
-0.0704297265625,-0.15850127685546875,0.5234494921875
-0.1161408984375,-0.12418863037109375,0.5064915966796875
-0.2328502734375,-0.059484782714843754,0.5600687158203125
-0.207076953125,0.062080021972656246,0.6669771875
-0.0626491015625,0.0427178857421875,0.84884447265625
-0.1715778515625,0.14443037353515625,1.099034873046875
-0.41934212890625,0.04198261474609375,1.2491982666015624
-0.37144265625,-0.0327699365234375,1.4841511376953125
-0.3048210546875,0.06551128662109375,1.548296220703125
-0.27248283203125,0.03413972412109375,1.28925822265625
-0.21583015625000002,-0.00409436767578125,1.078390478515625
-0.2571647265625,0.08560869384765625,1.0108046630859375
-0.298499296875,0.0740894482421875,0.9075826904296875
-0.24768208984375,-0.02125069091796875,0.9483799462890625
-0.3233000390625,-0.00752563232421875,0.8810398974609375
-0.237226875,-0.0288484912109375,0.803131884765625
-0.25084296875,-0.07835673828125,0.6967149462890625
-0.25351755859375,-0.16438344482421874,0.6367478955078125
-0.17522501953125,-0.23742036376953124,0.7512751318359375
-0.2843969140625,-0.09869923583984375,0.86457353515625
-0.3835998828125,-0.05090662109375,0.9501003125
-0.33813185546875,-0.040122646484374996,0.862115869140625
-0.304334765625,0.022620478515625,0.7679872607421875
-0.27296912109375,-0.09673851318359375,0.6957318798828125
-0.26640421875,-0.07075893798828126,0.67189251953125
-0.28974609375,-0.07713128662109375,0.5640009814453125
-0.2289599609375,-0.10458140380859375,0.6455954931640625
-0.26640421875,-0.01487834228515625,0.6677144873046875
-0.30627992187499997,-0.03693647216796875,0.710723642578125
-0.0621628125,0.14001874755859375,0.867522734375
-0.16160892578125,0.1549692578125,0.903404658203125
-0.2591098828125,0.1319307666015625,0.9306847509765624
-0.3485870703125,0.10815700439453126,0.965337841796875
-0.3019033203125,0.01257177490234375,1.1361456298828125
-0.32402947265625,0.021640117187500002,1.197341513671875
-0.48353228515625,0.048109873046875,1.1961126806640625
-0.199296328125,0.06673673828125,1.132459130859375
-0.26713365234374997,0.0750698095703125,1.1346710302734375
-0.18835482421875,0.10913736572265625,1.2310115380859374
-0.286828359375,0.11158826904296874,1.3268605126953126
-0.27880458984375,0.1211467919921875,1.321207880859375
-0.2882872265625,0.06109966064453125,1.3081822509765626
-0.37144265625,0.05864875732421875,1.17718865234375
-0.2192341796875,0.0407571630859375,0.9798380712890625
-0.23844259765625,-0.01732924560546875,0.7709364599609375
-0.23844259765625,-0.11757119140625,0.6067643701171875
-0.2659179296875,-0.23129310546875,0.5905437744140625
-0.2649453515625,-0.20653898193359374,0.76921609375
-0.18786853515625002,-0.16536380615234375,0.94321884765625
-0.33035123046875,-0.048455717773437504,1.124594599609375
-0.3446967578125,-0.0504164404296875,1.0938737744140625
-0.24719580078125,0.01600303955078125,1.1449932275390624
-0.08283009765625,0.06698182861328125,1.2064348779296874
-0.18835482421875,0.116735166015625,1.0791277783203126
-0.15723232421875,0.087324326171875,1.043000087890625
-0.16112263671875,0.0025230712890624996,1.022355693359375
-0.27442798828125,-0.04036773681640625,0.8775991650390624
-0.177899609375,0.01698340087890625,0.765283828125
-0.26567478515625,0.06943273193359376,0.8166490478515624
-0.29290697265625,0.0731090869140625,0.9070911572265625
-0.40134943359374997,-0.012672529296875,1.2226554736328126
-0.38967849609375,0.1035002880859375,1.451955712890625
-0.213885,0.1593808837890625,1.32071634765625
-0.370470078125,0.13266603759765624,1.2201978076171875
-0.33472783203125,0.03610044677734375,1.1051790380859374
-0.24670951171875,-0.055073156738281254,1.0058893310546875
-0.2873146484375,0.030463369140625002,0.87047193359375
-0.3267040625,-0.06634731201171876,0.7709364599609375
-0.13243158203125,-0.1553151025390625,0.592755673828125
-0.06678255859375,-0.12149263671875,0.5295936572265625
-0.28853037109375,-0.15114856689453124,0.5974252392578125
-0.2192341796875,-0.193059013671875,0.749554765625
-0.33618669921875,-0.12149263671875,0.9061080908203125
-0.37849384765625,-0.04281864013671875,1.037101689453125
-0.37071322265625,-0.06193568603515625,1.2929447216796874
-0.4721044921875,0.187321181640625,1.36986966796875
-0.4302836328125,0.23364325439453126,1.311377216796875
-0.37606240234375,0.1584005224609375,1.2044687451171874
-0.37995271484375,0.038306259765625,0.986965302734375
-0.1492085546875,0.05129604736328125,0.8923451611328125
-0.2211793359375,-0.06193568603515625,0.8127167822265625
-0.249870390625,-0.0876701708984375,0.8092760498046875
-0.259596171875,-0.21928367919921876,0.8353273095703125
-0.33083751953125,-0.1190417333984375,0.902913125
-0.19613544921875,-0.1494329345703125,0.8156659814453124
-0.17862904296875,0.030708459472656248,0.847369873046875
-0.36439146484375,0.0162481298828125,0.8989808593749999
-0.27005138671875,0.12874459228515625,0.9660751416015625
-0.34056330078125,0.10717664306640624,1.015474228515625
-0.35806970703125,0.0133070458984375,1.0982975732421876
-0.257651015625,-0.02762303955078125,1.0683140478515625
-0.2202067578125,0.10276501708984374,0.8707177001953125
-0.24525064453125,0.0255615625,0.6863927490234375
-0.1793584765625,-0.0396324658203125,0.6234764990234375
-0.02787943359375,-0.08619962890625,0.786419755859375
-0.22093619140625,-0.00213364501953125,1.0358728564453126
-0.2620276171875,0.148106728515625,1.2418252685546876
-0.1827625,0.287318037109375,1.3042499853515626
-0.33472783203125,0.14246965087890626,1.345784541015625
-0.21218298828125,0.07041309326171875,1.4109126904296876
-0.44414287109375,0.00963069091796875,1.4064888916015625
-0.3787369921875,0.0584036669921875,1.3357081103515624
-0.3203823046875,0.05276658935546875,1.1253318994140624
-0.35101851562499997,0.0133070458984375,0.98843990234375
-0.14361623046875,-0.1298257080078125,0.9591936767578125
-0.3038484765625,-0.16487362548828124,1.0958399072265625
-0.34785763671875003,-0.13987441162109376,1.1828412841796876
-0.20975154296875,-0.05801424072265625,1.0840431103515624
-0.29193439453125003,0.04590406005859375,0.78592822265625
-0.2367405859375,-0.01095689697265625,0.548517685546875
-0.05365275390625,-0.03840701416015625,0.4612705419921875
-0.1453182421875,0.083402880859375,0.61979
-0.35174794921875,0.1084020947265625,0.7694618603515625
-0.28220861328125,0.0574233056640625,0.949608779296875
-0.33278267578125,0.07727562255859374,1.165883388671875
-0.3913805078125,-0.02762303955078125,1.0884669091796875
-0.26227076171875,0.04247279541015625,1.021372626953125
-0.23601115234375,-0.023456503906250002,0.9520664453125
-0.26032560546875,-0.136198056640625,0.9400238818359374
-0.31965287109375,0.05325677001953125,1.119187734375
-0.34737134765625,-0.09624833251953124,1.0034316650390624
-0.1555303125,-0.01487834228515625,0.8982435595703124
-0.18081734375,0.014777587890624999,0.823776279296875
-0.29631099609375,0.05864875732421875,0.965829375
-0.28512634765625,-0.01389798095703125,0.9587021435546875
-0.236254296875,0.122617333984375,0.830657744140625
-0.13486302734375,0.0299731884765625,0.7896147216796875
-0.2892598046875,-0.010711806640625,0.875387265625
-0.42274615234375,-0.01561361328125,1.03169482421875
-0.29776986328125,0.01453249755859375,1.090187275390625
-0.38530189453125,0.00276816162109375,1.168832587890625
-0.3563676953125,-0.03987755615234375,1.22240970703125
-0.25449013671875,-0.0406128271484375,1.0739666796875
-0.113709453125,-0.0053198193359375,0.9953213671875
-0.22944625,0.02482629150390625,0.85867513671875
-0.20804953125,-0.0876701708984375,0.6991726123046875
-0.22336763671875,-0.06634731201171876,0.9191337207031249
-0.26713365234374997,-0.020515419921875,0.809030283203125
-0.33083751953125,-0.1308060693359375,0.78789435546875
-0.2255559375,-0.11585555908203125,0.8734211328125
-0.23114826171875,0.0799716162109375,0.7729025927734375
-0.36220316406249997,0.0451687890625,0.8451579736328125
-0.2027003515625,0.10423555908203125,1.043983154296875
-0.17814275390625,0.07874616455078125,1.04545775390625
-0.41253408203124997,0.06845237060546874,1.04152548828125
-0.25205869140625,0.0897752294921875,1.1975872802734375
-0.2299325390625,-0.0028689160156250004,1.06511908203125
-0.2644590625,0.03512008544921875,1.09657720703125
-0.2989855859375,0.1515379931640625,1.182103984375
-0.36682291015625,-0.05654369873046875,0.9655836083984375
-0.24670951171875,-0.0494360791015625,0.965829375
-0.23747001953125,0.021885207519531248,1.015474228515625
-0.42760904296875,-0.07443529296875,1.0184234277343749
-0.3242726171875,-0.049926259765625,0.94125271484375
-0.24816837890625,-0.0876701708984375,0.83901380859375
-0.17473873046875,-0.00605509033203125,0.8363103759765624
-0.3033621875,-0.0055649096679687505,1.0597122167968749
-0.2143712890625,-0.04036773681640625,1.3071991845703126
-0.34931650390625,-0.02958376220703125,1.3642170361328125
-0.28998923828125,0.17482157470703125,1.2123332763671875
-0.2878009375,0.03168882080078125,1.022355693359375
-0.35855599609375,0.03462990478515625,1.0031858984375
-0.23406599609375,0.03757098876953125,0.9609140429687499
-0.28585578125,-0.0001729223632812504,0.7554531640625
-0.0966893359375,-0.03889719482421875,0.6328156298828125
-0.06970029296875,-0.0739451123046875,0.8092760498046875
-0.33424154296874997,0.0887948681640625,1.0830600439453124
-0.27296912109375,0.07188363525390624,1.2457575341796876
-0.38724705078125,0.13217585693359374,1.5716440478515625
-0.60170052734375,0.3064350830078125,1.5632879833984374
-0.4944737890625,0.2490839453125,1.3327589111328124
-0.0821006640625,0.1966346142578125,1.592534208984375
-0.5990259375,0.03144373046875,1.45637951171875
-0.32062544921875,0.01845394287109375,1.0589749169921876
-0.190543125,-0.1062970361328125,0.7670041943359375
-0.13583560546875,-0.12712971435546874,0.7478343994140625
-0.12756869140625,-0.12811007568359375,0.7507835986328125
-0.38384302734375,-0.04821062744140625,1.0245675927734375
-0.39259623046875003,-0.15654055419921875,0.9972875
-0.37703498046875,-0.16242272216796874,0.8721922998046875
-0.3515048046875,-0.00507472900390625,0.8230389794921875
-0.1958923046875,-0.06830803466796875,0.8026403515625
-0.195406015625,0.01257177490234375,1.0240760595703124
-0.34032015625,0.0221302978515625,1.171781787109375
-0.27053767578125,0.12972495361328126,1.262223896484375
-0.3680386328125,0.093206494140625,1.2924531884765624
-0.31041337890625,-0.0641414990234375,1.2241300732421876
-0.19467658203125,0.02678701416015625,0.953541044921875
-0.21315556640625,-0.09869923583984375,0.736283369140625
-0.24938410156250002,-0.15212892822265625,0.752012431640625
-0.2523018359375,-0.07026875732421875,0.851302138671875
-0.36876806640625,0.08413815185546875,0.9414984814453125
-0.26129818359375,-0.28986969482421876,0.9813126708984374
-0.1248941015625,-0.049926259765625,1.1172216015625
-0.5207333984375,0.140263837890625,0.888658662109375
-0.15236943359375,-0.07075893798828126,0.6544430908203125
-0.01669478515625,-0.122472998046875,0.6706636865234374
-0.2075632421875,0.046149150390625,0.725961171875
-0.08234380859375,-0.21560732421875,0.9085657568359375
-0.3408064453125,-0.13595296630859374,1.0019570654296874
-0.39818855468750003,-0.09428760986328125,0.8038691845703125
-0.10471310546875,-0.0719843896484375,0.9186421875
-0.40694175781249997,-0.060710234375,1.1243488330078124
-0.26518849609375,0.1456558251953125,1.2300284716796874
-0.2678630859375,0.29197475341796875,1.2993346533203125
-0.25886673828125,0.00227798095703125,1.2555881982421875
-0.1900568359375,-0.029338671875,1.163917255859375
-0.298499296875,0.028502646484374998,0.8269712451171874
-0.1530988671875,-0.01193725830078125,0.600128671875
-0.2464663671875,-0.07860182861328124,0.6084847363281249
-0.30409162109375,-0.171491064453125,0.8141913818359375
-0.38481560546875,0.12531332763671876,0.989914501953125
-0.23601115234375,0.08242251953125,0.8987350927734374
-0.199296328125,0.1897720849609375,0.8540055712890625
-0.17765646484375,0.19442880126953124,0.8559717041015625
-0.22750109375,0.10202974609375,1.00810123046875
-0.27783201171875,0.09835339111328124,1.3602847705078125
-0.45192349609375,0.0956573974609375,1.2076637109375
-0.2805066015625,0.11649007568359375,0.77806369140625
-0.02058509765625,0.10178465576171875,0.582925009765625
-0.057299921875,0.12163697265625,0.7456225
-0.23357970703125,0.24638795166015626,1.0712632470703125
-0.424934453125,0.246142861328125,1.4541676123046874
-0.37849384765625,0.16893940673828126,1.4526930126953124
-0.50541529296875,0.10815700439453126,1.2351895703125
-0.3145468359375,-0.08742508056640624,1.0004824658203124
-0.133161015625,0.05889384765625,0.9763973388671875
-0.23455228515625,-0.036201201171875,0.9520664453125
-0.28415376953125,-0.0239466845703125,0.897506259765625
-0.27394169921875,0.09002031982421875,0.796250419921875
-0.24865466796875,-0.0006631030273437505,0.579975810546875
-0.19321771484375,0.016738310546875,0.436448115234375
-0.148722265625,0.019679394531249998,0.4371854150390625
-0.037848359375,-0.0759058349609375,0.63060373046875
-0.1569891796875,-0.10065995849609374,1.07494974609375
-0.5324043359375,-0.01732924560546875,1.3681493017578126
-0.37800755859375,-0.128355166015625,1.40132779296875
-0.33618669921875,0.09688284912109375,1.3755222998046874
-0.2488978125,0.0843832421875,0.978117705078125
-0.26081189453125,0.15570452880859376,0.75840236328125
-0.19759431640625,0.0319339111328125,0.7323511035156249
-0.2255559375,-0.0011532836914062497,0.783470556640625
-0.2056180859375,0.09100068115234375,0.7534870312499999
-0.1754681640625,-0.02615249755859375,0.6937657470703125
-0.13632189453125,-0.00948635498046875,0.6760705517578125
-0.15966376953125,0.00325834228515625,0.779538291015625
-0.21023783203125002,0.01600303955078125,0.9041419580078125
-0.35369310546875,0.0789912548828125,1.041033955078125
-0.28269490234375,0.077520712890625,1.10640787109375
-0.24768208984375,0.14688127685546876,1.1666206884765624
-0.32159802734375,-0.028113220214843748,1.1356540966796875
-0.29485212890625,0.0133070458984375,1.139340595703125
-0.33278267578125,-0.0690433056640625,0.930438984375
-0.23309341796875,-0.025662316894531252,0.7928096875
-0.2085358203125,-0.081297822265625,0.66206185546875
-0.158448046875,-0.0651218603515625,0.560806015625
-0.13826705078125,-0.0562986083984375,0.5079661962890625
-0.07018658203125,-0.029338671875,0.57948427734375
-0.0461152734375,-0.03840701416015625,0.7856824560546875
-0.3028758984375,-0.02615249755859375,1.016948828125
-0.25351755859375,0.0515411376953125,1.0894499755859375
-0.30846822265625,0.13609730224609376,1.1803836181640626
-0.18470765625,0.05178622802734375,1.175714052734375
-0.3344846875,0.14835181884765625,1.2565712646484375
-0.39162365234375,0.1642826904296875,1.263206962890625
-0.38967849609375,0.09394176513671874,1.087238076171875
-0.3656071875,0.11771552734375,0.85867513671875
-0.1477496875,0.040266982421875,0.7458682666015625
-0.02058509765625,0.03315936279296875,0.7350545361328125
-0.16744439453124998,0.13756784423828125,0.72202890625
-0.23698373046875,0.0985984814453125,0.804606484375
-0.3057936328125,0.122617333984375,0.8481071728515625
-0.31041337890625,-0.0121823486328125,0.895540126953125
-0.22385392578125,0.04443351806640625,1.0447204541015624
-0.49131291015625,0.016738310546875,1.06315294921875
-0.36779548828124997,-0.00801581298828125,0.9582106103515625
-0.30068759765624997,0.09443194580078125,0.8891501953125
-0.49957982421875,0.04124734375,0.8662939013671875
-0.27053767578125,-0.03203466552734375,0.9169218212890625
-0.279047734375,-0.00948635498046875,0.844420673828125
-0.20415921875,0.06747200927734374,0.7266984716796875
-0.177899609375,-0.107767578125,0.6033236376953125
-0.12221951171875,-0.1288453466796875,0.604552470703125
-0.12805498046875,0.0012976196289062499,0.7168678076171875
-0.41107521484375,0.07923634521484375,0.8795652978515625
-0.2668905078125,0.11943115966796874,1.1395863623046876
-0.25059982421875,0.08903995849609375,1.3047415185546876
-0.31527626953125,0.08364797119140625,1.301546552734375
-0.3048210546875,0.05619785400390625,1.3244028466796876
-0.34785763671875003,0.0672269189453125,1.276478359375
-0.35563826171875,-0.06659240234375,1.067576748046875
-0.3135742578125,-0.03129939453125,1.0034316650390624
-0.179844765625,-0.04772044677734375,0.92650671875
-0.13291787109375,-0.059484782714843754,0.8141913818359375
-0.23455228515625,0.03855135009765625,0.703842177734375
-0.232363984375,-0.0249270458984375,0.7203085400390625
-0.13632189453125,-0.024436865234375,0.7645465283203124
-0.12367837890625,-0.0641414990234375,0.7045794775390625
-0.14896541015625,0.1485969091796875,1.0289913916015625
-0.3967296875,0.09982393310546875,1.163917255859375
-0.4040240234375,-0.10360104248046875,1.1862820166015624
-0.27491427734375,0.15717507080078125,1.562059150390625
-0.56571513671875,0.13364639892578126,1.20864677734375
-0.2630001953125,-0.08203309326171875,0.95304951171875
-0.24865466796875,0.14124419921875,0.944693447265625
-0.18835482421875,0.11599989501953126,0.788877421875
-0.18786853515625002,0.13413657958984376,0.8918536279296875
-0.21510072265625,0.1152646240234375,1.0206353271484374
-0.25692158203125,-0.03840701416015625,0.9036504248046875
-0.185680234375,-0.0646316796875,0.9604225097656249
-0.2649453515625,0.02041466552734375,1.0486527197265625
-0.2941226953125,-0.016593974609375,0.9867195361328125
-0.317950859375,0.05962911865234375,0.9793465380859375
-0.34591248046875,0.00178780029296875,1.0267794921875
-0.41302037109375,-0.1121792041015625,0.994829833984375
-0.35417939453125,0.0466393310546875,1.1172216015625
-0.273212265625,0.06355056396484375,0.9945840673828125
-0.21023783203125002,0.05717821533203125,0.9636174755859375
-0.11152115234375,0.04394333740234375,1.0275167919921875
-0.222638203125,0.011346323242187501,1.083305810546875
-0.15066742187499998,0.02335574951171875,1.042017021484375
-0.17376615234375,0.02531647216796875,0.8891501953125
-0.195406015625,0.024091020507812498,0.845403740234375
-0.18349193359375,0.0035034326171875,0.9198710205078124
-0.279047734375,0.04786478271484375,1.0147369287109376
-0.2561921484375,0.0608545703125,0.9186421875
-0.38287044921875,0.08658905517578125,0.887675595703125
-0.2921775390625,0.09688284912109375,0.8360646093749999
-0.3155194140625,0.1250682373046875,0.772656826171875
-0.2955815625,-0.011201987304687501,0.751029365234375
-0.29752671875000003,-0.0886505322265625,0.868997333984375
-0.36585033203125,-0.0072805419921875,0.915201455078125
-0.27637314453125,-0.05752406005859375,0.946659580078125
-0.26956509765625,0.06894255126953125,1.03562708984375
-0.03274232421875,0.034384814453125,0.99827056640625
-0.1579617578125,-0.0543378857421875,1.04742388671875
-0.2007551953125,0.06992291259765625,1.139340595703125
-0.2406308984375,0.021640117187500002,1.0732293798828125
-0.28196546875,0.1182057080078125,1.00416896484375
-0.24427806640625,0.0946770361328125,0.90389619140625
-0.2960678515625,0.0005623486328125002,0.72497810546875
-0.21193984375,0.05276658935546875,0.6151204345703125
-0.1851939453125,0.17433139404296874,0.624213798828125
-0.2017277734375,0.191242626953125,0.784453623046875
-0.28901666015625,0.03708080810546875,0.98647376953125
-0.3135742578125,0.08756941650390625,1.197833046875
-0.3111428125,-0.0121823486328125,1.1479424267578124
-0.36755234375,-0.05605351806640625,0.9842618701171875
-0.24695265625,0.020659755859375,1.01006736328125
-0.26154132812499997,0.04198261474609375,1.0525849853515625
-0.2075632421875,-0.0347306591796875,1.056763017578125
-0.29436583984375,0.07335417724609375,1.02579642578125
-0.18057419921875,0.0878145068359375,0.9975332666015625
-0.26154132812499997,0.026296833496093748,0.9872110693359375
-0.24330548828125,0.257907197265625,1.1388490625
-0.2474389453125,0.1201664306640625,1.1400778955078126
-0.22579908203125,0.06355056396484375,1.14376439453125
-0.3466419140625,0.0564429443359375,1.02776255859375
-0.2853694921875,0.0270321044921875,0.9606682763671874
-0.36098744140625,0.020659755859375,0.9048792578125
-0.3592854296875,-0.0641414990234375,0.920116787109375
-0.31673513671875,0.05423713134765625,0.9464138134765625
-0.3145468359375,-0.07958218994140626,0.8930824609375
-0.33667298828125003,-0.044044091796875,0.8525309716796875
-0.197351171875,0.0123266845703125,0.653705791015625
-0.1530988671875,0.0064445166015625,0.6337986962890625
-0.11103486328125,0.03413972412109375,0.57358587890625
-0.05413904296875,0.10325519775390625,0.6834435498046875
-0.1686601171875,0.17286085205078125,0.9874568359375
-0.4672416015625,0.14345001220703124,1.30302115234375
-0.3738741015625,0.1133039013671875,1.394446328125
-0.2892598046875,0.173596123046875,1.3425895751953125
-0.290718671875,0.0750698095703125,1.16342572265625
-0.23212083984375,0.019679394531249998,0.9813126708984374
-0.29971501953125,-0.03595611083984375,0.8726838330078125
-0.2065906640625,0.02972809814453125,1.011541962890625
-0.25059982421875,-0.0268877685546875,1.0031858984375
-0.27151025390625,-0.0249270458984375,1.02972869140625
-0.13923962890625,0.0466393310546875,1.0943653076171875
-0.30530734375,0.111833359375,0.92159138671875
-0.24938410156250002,0.0378160791015625,0.903404658203125
-0.32864921874999997,0.12335260498046875,0.91765912109375
-0.27880458984375,0.0221302978515625,0.8977520263671875
-0.1754681640625,-0.04526954345703125,0.86260740234375
-0.2591098828125,-0.0317895751953125,0.922574453125
-0.271267109375,-0.07222947998046875,1.0948568408203125
-0.300444453125,-0.05017135009765625,1.21847744140625
-0.37995271484375,0.07261890625,1.2079094775390624
-0.23455228515625,-0.02615249755859375,0.986965302734375
-0.16501294921875,-0.02468195556640625,0.8466325732421875
-0.27783201171875,0.04933532470703125,0.7979707861328125
-0.20586123046875,0.04124734375,0.7802755908203125
-0.2318776953125,0.07188363525390624,0.808047216796875
-0.16063634765625,0.11379408203125,0.82721701171875
-0.28804408203125,0.0133070458984375,0.8436833740234375
-0.1715778515625,0.0544822216796875,1.0053977978515625
-0.30895451171875,0.0819323388671875,1.0250591259765625
-0.35199109375,0.09541230712890625,1.0722463134765625
-0.3952708203125,0.1260485986328125,1.166866455078125
-0.3456693359375,0.010611052246093749,1.18701931640625
-0.26616107421875,0.16795904541015624,1.1676037548828124
-0.31430369140625003,0.17139031005859376,1.1852989501953124
-0.34007701171875,0.08266760986328126,1.1287726318359375
-0.2202067578125,0.1152646240234375,1.0739666796875
-0.20829267578125,0.004973974609375,0.8485987060546875
-0.170118984375,-0.0121823486328125,0.759876962890625
-0.1647698046875,-0.06340622802734375,0.6878673486328125
-0.1633109375,-0.01169216796875,0.8166490478515624
-0.22434021484375,-0.01193725830078125,1.00810123046875
-0.42323244140625,0.07727562255859374,1.1371286962890625
-0.31138595703125,0.124578056640625,1.1852989501953124
-0.2386857421875,0.16869431640625,1.2015195458984376
-0.42809533203125,0.1584005224609375,1.1582646240234376
-0.16525609375,0.055462583007812497,1.02383029296875
-0.22628537109375,0.0069346972656249995,0.94321884765625
-0.28901666015625,-0.0435539111328125,0.9242948193359375
-0.27515742187500003,0.07065818359375,0.9324051171875
-0.2644590625,0.02531647216796875,0.77609755859375
-0.24476435546875,0.0037485229492187503,0.6780366845703125
-0.19029998046875,-0.011201987304687501,0.5915268408203125
-0.19905318359375002,-0.04036773681640625,0.5694078466796875
-0.15917748046875,-0.03546593017578125,0.7291561376953125
-0.1210037890625,0.089285048828125,0.9134810888671875
-0.33424154296874997,0.11403917236328125,1.217002841796875
-0.24184662109375,0.07678544189453125,1.410175390625
-0.37168580078125,0.20374223388671875,1.3932174951171874
-0.325731484375,0.20129133056640625,1.23813876953125
-0.331566953125,0.077520712890625,1.093136474609375
-0.40062,0.04737460205078125,1.0071181640625
-0.25546271484375,0.008405239257812499,0.9950756005859375
-0.21801845703125,0.0378160791015625,0.851793671875
-0.21169669921875,-0.11487519775390626,0.692045380859375
-0.1166271875,-0.12565917236328125,0.6335529296875
-0.1599069140625,-0.08497417724609375,0.7581565966796875
-0.22482650390625,0.0574233056640625,0.90193005859375
-0.18786853515625002,-0.0837487255859375,0.9857364697265625
-0.29096181640625,0.09933375244140626,1.053813818359375
-0.37898013671874997,0.05080586669921875,0.99237216796875
-0.32402947265625,0.03217900146484375,0.8834975634765625
-0.252788125,0.13168567626953126,0.8726838330078125
-0.249870390625,0.06257020263671875,0.9090572900390625
-0.2318776953125,0.03315936279296875,1.0830600439453124
-0.1944334375,-0.0347306591796875,1.08084814453125
-0.30506419921875,0.01649322021484375,1.0975602734375
-0.3359435546875,0.019679394531249998,0.9768888720703125
-0.25740787109375,0.061834931640625,0.9795923046875
-0.29971501953125,0.0201695751953125,0.963371708984375
-0.24768208984375,0.06624655761718751,0.9945840673828125
-0.3388612890625,0.11158826904296874,0.94911724609375
-0.26713365234374997,0.0750698095703125,0.79182662109375
-0.01280447265625,0.02286556884765625,0.8643277685546875
-0.3262177734375,-0.0038492773437499997,1.1228742333984374
-0.51562736328125,0.0809519775390625,1.288766689453125
-0.34250845703125,-0.0396324658203125,1.3204705810546875
-0.47429279296875,0.015022678222656249,1.234698037109375
-0.438550546875,0.11698025634765626,0.950591845703125
-0.09012443359375,-0.16340308349609375,0.7792925244140625
-0.07504947265625,-0.1430605859375,0.7094948095703125
-0.07699462890625,-0.0964934228515625,0.8146829150390625
-0.056084199218750005,-0.08007237060546875,0.9287186181640625
-0.236254296875,-0.05409279541015625,1.027271025390625
-0.3515048046875,0.1907524462890625,1.2054518115234374
-0.3874901953125,0.18560554931640624,1.2526389990234374
-0.4458448828125,0.19736988525390625,1.3789630322265625
-0.5236511328125,0.23658433837890624,1.4396673828125
-0.4312562109375,0.07850107421875,1.04545775390625
-0.2221519140625,-0.07320984130859375,0.85081060546875
-0.2450075,-0.02737794921875,0.7778179248046875
-0.1210037890625,-0.029338671875,0.5531872509765625
-0.02009880859375,-0.061690595703125004,0.6298664306640624
-0.10033650390625,-0.0386521044921875,0.978117705078125
-0.25449013671875,0.13413657958984376,1.230765771484375
-0.34639876953125,0.15864561279296874,1.5382197900390624
-0.35393625,0.1706550390625,1.5190499951171874
