ax,ay,az
-0.226528515625,-0.1906081103515625,1.005643564453125
-0.28950294921874997,-0.051886982421875,1.2546051318359375
-0.22142248046875002,0.0770305322265625,1.2418252685546876
-0.24306234375,-0.0043394580078125,1.0329236572265625
-0.13826705078125,-0.0415931884765625,1.0130165625
-0.19127255859375,-0.08301345458984374,0.9518206787109375
-0.2104809765625,-0.167569619140625,0.8687515673828125
-0.14799283203125,-0.10580685546875,0.7389868017578125
-0.10471310546875,0.0035034326171875,0.7478343994140625
-0.2766162890625,-0.06977857666015624,0.816894814453125
-0.25303126953125,0.06624655761718751,0.8289373779296875
-0.11152115234375,0.1260485986328125,0.8097675830078125
-0.20634751953125,0.04712951171875,0.76626689453125
-0.0850183984375,0.0995788427734375,0.86359046875
-0.269321953125,0.01992448486328125,0.951574912109375
-0.2221519140625,0.06281529296875,0.9972875
-0.16306779296875,0.11747043701171875,0.9911433349609375
-0.2571647265625,0.0691876416015625,0.9301932177734376
-0.1404553515625,0.0010525292968750002,0.8893959619140624
-0.13802390625,0.04100225341796875,1.039067822265625
-0.129270703125,-0.02713285888671875,1.0294829248046875
-0.19175884765625,-0.10311086181640625,1.051847685546875
-0.21315556640625,0.04933532470703125,1.1582646240234376
-0.28366748046875,-0.07320984130859375,1.1204165673828126
-0.2552195703125,0.0309535498046875,1.0643817822265624
-0.23698373046875,0.01649322021484375,0.9169218212890625
-0.14896541015625,-0.0259074072265625,0.8712092333984375
-0.17425244140625,-0.0945327001953125,0.9048792578125
-0.2435486328125,-0.02174087158203125,0.9360916162109375
-0.044170117187499996,-0.02272123291015625,0.9252778857421875
-0.17133470703125,-0.05801424072265625,0.8908705615234375
-0.21461443359375,0.0054641552734375,1.0503730859375
-0.23114826171875,0.00570924560546875,1.0395593554687501
-0.273212265625,0.0319339111328125,0.99827056640625
-0.190543125,0.0701680029296875,1.005643564453125
-0.2221519140625,-0.0866898095703125,0.9402696484374999
-0.1073876953125,-0.123453359375,0.8156659814453124
-0.01620849609375,-0.20359789794921876,0.79182662109375
-0.11443888671875,-0.10213050048828125,0.9601767431640625
-0.129270703125,0.06257020263671875,1.1336879638671875
-0.2999581640625,0.00325834228515625,1.2182316748046875
-0.1375376171875,-0.0072805419921875,1.210121376953125
-0.16306779296875,0.093206494140625,1.1250861328125
-0.1881116796875,-0.0023787353515625003,0.999745166015625
-0.07310431640625001,0.0476196923828125,0.92159138671875
-0.18640966796875,0.1231075146484375,1.1081282373046875
-0.356853984375,0.065756376953125,1.233714970703125
-0.11443888671875,-0.0001729223632812504,1.1946380810546875
-0.19564916015625,0.09786321044921875,1.0299744580078125
-0.20683380859375,0.040266982421875,0.80952181640625
-0.03322861328125,-0.00850599365234375,0.7714279931640625
-0.14410251953125,0.081442158203125,0.906845390625
-0.1268392578125,0.11379408203125,1.0442289208984374
-0.11443888671875,0.00619942626953125,1.118696201171875
-0.24330548828125,0.0799716162109375,1.2093840771484374
-0.2581373046875,-0.08301345458984374,1.1813666845703126
-0.2707808203125,-0.01978014892578125,1.1076367041015625
-0.17230728515625,0.022620478515625,1.0029401318359374
-0.07261802734375,-0.05311243408203125,1.0697886474609375
-0.28512634765625,-0.01193725830078125,1.1218911669921874
-0.01863994140625,-0.076396015625,1.097068740234375
-0.07261802734375,-0.11561046875,0.9233117529296875
-0.09498732421875,0.0201695751953125,0.912252255859375
-0.0334717578125,0.01110123291015625,0.9242948193359375
-0.03079716796875,0.02286556884765625,0.94518498046875
-0.1112780078125,0.04198261474609375,1.100017939453125
-0.0587587890625,0.05889384765625,1.207172177734375
-0.11054857421875,-0.03301502685546875,1.1243488330078124
-0.20197091796875,-0.08105273193359375,1.067576748046875
-0.12416466796875,-0.0006631030273437505,1.1562984912109375
-0.19637859375,-0.09967959716796874,1.11525546875
-0.1647698046875,-0.02223105224609375,1.097068740234375
-0.15091056640625,-0.0411030078125,1.0884669091796875
-0.18981369140625,-0.06634731201171876,0.9719735400390626
-0.2007551953125,-0.0474753564453125,0.9061080908203125
-0.1355924609375,0.00717978759765625,0.8014115185546875
-0.100093359375,0.02335574951171875,0.6716467529296875
0.027557519531249998,0.04982550537109375,0.698926845703125
0.04263248046875,0.01404231689453125,0.820827080078125
-0.0932853125,-0.0082609033203125,0.9837703369140625
-0.20342978515625,0.0358553564453125,1.072000546875
-0.21023783203125002,0.04149243408203125,0.955507177734375
-0.2367405859375,0.1280093212890625,0.901438525390625
-0.19273142578125,0.189281904296875,1.0422627880859374
-0.144831953125,-0.02076051025390625,1.0609410498046874
-0.1890842578125,0.0917359521484375,1.21847744140625
-0.2099946875,-0.0092412646484375,1.2587831640625
-0.22750109375,0.0387964404296875,1.1100943701171875
-0.09790505859375,0.021885207519531248,0.902421591796875
-0.13413359375,0.06894255126953125,0.81738634765625
-0.04100923828125,-0.01291761962890625,0.834590009765625
-0.09206958984375,-0.06438658935546875,0.8731753662109375
-0.11978806640625,0.00399361328125,0.9559987109375
-0.13632189453125,-0.15065838623046876,0.9284728515625
-0.050491875000000006,-0.0190448779296875,1.0179318945312499
-0.17303671874999998,-0.09183670654296874,1.133442197265625
-0.22579908203125,-0.04428918212890625,1.235681103515625
-0.23139140625,-0.02909358154296875,1.216019775390625
-0.31965287109375,-0.06732767333984375,1.10247560546875
-0.14458880859375,-0.027868129882812502,1.04545775390625
-0.22239505859375,-0.07566074462890625,0.92552365234375
-0.1205175,0.0137972265625,0.89504859375
-0.097175625,-0.05360261474609375,0.789368955078125
-0.12902755859375,-0.0151234326171875,0.8105048828125
-0.129270703125,-0.02149578125,0.86359046875
-0.17571130859375,0.0012976196289062499,0.9621428759765625
-0.2571647265625,0.10202974609375,0.97860923828125
-0.156502890625,0.030463369140625002,0.913235322265625
-0.183735078125,0.05031568603515625,0.8525309716796875
-0.183735078125,0.0231106591796875,0.8525309716796875
-0.19662173828125,-0.01953505859375,0.916184521484375
-0.2240970703125,0.00472888427734375,0.91077765625
-0.12635296875,-0.0249270458984375,0.9793465380859375
-0.15334201171875,-0.0092412646484375,1.043983154296875
-0.2022140625,0.00816014892578125,1.016457294921875
-0.1151683203125,-0.09232688720703125,0.9562444775390625
-0.03760521484375,0.0064445166015625,1.00023669921875
-0.30409162109375,0.018699033203125,0.976151572265625
-0.14312994140625,0.019434304199218752,1.08478041015625
-0.089395,0.01183650390625,1.1243488330078124
-0.34688505859375,0.02237538818359375,1.0196522607421874
-0.16063634765625,0.00987578125,0.8549886376953125
-0.030067734375000002,-0.05164189208984375,0.765283828125
-0.15066742187499998,0.07188363525390624,0.76626689453125
-0.19710802734375,-0.04183827880859375,0.874895732421875
-0.14847912109375,-0.09379742919921875,1.0476696533203125
-0.2231244921875,0.07482471923828125,1.148188193359375
-0.148722265625,-0.0582593310546875,1.02186416015625
-0.060947089843749996,-0.0411030078125,1.0088385302734375
-0.158448046875,-0.049926259765625,1.045949287109375
-0.199296328125,-0.14673694091796874,1.0171945947265626
-0.15139685546875,0.01257177490234375,1.0963314404296876
-0.14458880859375,-0.09036616455078125,0.9714820068359376
-0.11346630859375,-0.04330882080078125,0.942727314453125
-0.1414279296875,-0.010221625976562499,0.9169218212890625
-0.06435111328125,-0.04183827880859375,0.9331424169921875
-0.1307295703125,-0.0641414990234375,0.9641090087890625
-0.17473873046875,-0.029338671875,1.001711298828125
-0.10519939453125,0.026541923828125,1.0589749169921876
-0.15139685546875,-0.03497574951171875,1.1096028369140625
-0.2289599609375,0.0535018603515625,1.1277895654296874
-0.189570546875,0.1240878759765625,1.1132893359375
-0.2095083984375,0.0035034326171875,1.080356611328125
-0.174981875,0.1941837109375,1.133442197265625
-0.1258666796875,0.0995788427734375,1.0614325830078124
-0.15139685546875,0.06281529296875,0.984016103515625
0.004701933593749999,0.1005592041015625,0.965337841796875
-0.1229489453125,-0.0876701708984375,0.8741584326171875
-0.15091056640625,-0.04085791748046875,1.040050888671875
-0.1034973828125,-0.067572763671875,1.11623853515625
-0.23528171875,-0.068553125,1.1435186279296874
-0.12319208984375,-0.05899460205078125,1.2374014697265625
-0.170118984375,-0.09477779052734375,1.1228742333984374
-0.26810623046875,-0.09012107421875,1.008592763671875
-0.0821006640625,0.03561026611328125,1.070525947265625
-0.206104375,-0.0053198193359375,1.09657720703125
-0.13583560546875,-0.00458454833984375,1.1427813281249999
-0.2435486328125,-0.047965537109375,1.0068723974609375
-0.020828242187500002,0.03462990478515625,1.048898486328125
-0.129270703125,0.01551285888671875,1.0712632470703125
-0.19832375,-0.11438501708984375,1.1243488330078124
-0.19808060546875,-0.06879821533203125,1.065610615234375
-0.12173322265625,-0.0011532836914062497,0.86064126953125
-0.20829267578125,-0.04526954345703125,0.72497810546875
0.0248829296875,-0.16683434814453124,0.7271900048828125
-0.014992773437499999,-0.089140712890625,0.8643277685546875
-0.26664736328125,0.03144373046875,1.0157199951171876
-0.2853694921875,0.034384814453125,1.0865007763671874
-0.10665826171875001,0.10031411376953125,1.036118623046875
-0.28998923828125,0.1564397998046875,0.9523122119140625
0.01540029296875,0.0564429443359375,0.9795923046875
-0.00696900390625,0.0358553564453125,1.103458671875
-0.19637859375,-0.02762303955078125,1.1351625634765625
-0.07553576171875,-0.03914228515625,1.0638902490234374
-0.17911533203125,-0.0239466845703125,0.972219306640625
-0.09547361328125001,-0.05801424072265625,0.8559717041015625
-0.1064151171875,0.0005623486328125002,0.8048522509765625
-0.16720125,0.04198261474609375,0.883251796875
-0.08866556640625001,-0.05605351806640625,0.8274627783203125
0.01369828125,-0.01585870361328125,0.8242678125
-0.16136578125,-0.03938737548828125,0.9262609521484375
-0.06410796875,-0.0097314453125,1.05332228515625
-0.06021765625,0.12874459228515625,1.09854333984375
-0.3690112109375,0.01575794921875,1.088221142578125
-0.1088465625,-0.02321141357421875,1.003677431640625
-0.07991236328125,-0.03742665283203125,0.849336005859375
0.007133378906249998,-0.11389483642578124,0.7279273046875
0.032177265625,-0.14722712158203125,0.702367578125
-0.040766093749999996,-0.14232531494140624,0.8382765087890625
-0.10374052734375,-0.0435539111328125,0.8928366943359375
-0.20926525390625,-0.06046514404296875,0.8254966455078125
-0.1375376171875,0.03708080810546875,0.79379275390625
-0.0451426953125,-0.0043394580078125,0.8520394384765625
-0.18738224609375,-0.04428918212890625,1.0697886474609375
-0.26081189453125,0.0505607763671875,1.23617263671875
-0.21583015625000002,-0.0739451123046875,1.0938737744140625
-0.026420566406250002,0.0093856005859375,0.925032119140625
-0.17473873046875,-0.0533575244140625,0.800182685546875
-0.1346198828125,-0.03522083984375,0.808047216796875
-0.0577862109375,0.09418685546875,0.96288017578125
-0.10422681640625,-0.06144550537109375,0.9532952783203125
-0.1287844140625,-0.0960032421875,1.0122792626953125
-0.12513724609375,-0.10850284912109374,1.098051806640625
-0.0607039453125,-0.0533575244140625,0.8844806298828125
-0.03566005859375,-0.07051384765625,0.676316318359375
-0.03663263671875,-0.0724745703125,0.6650110546875
-0.09401474609375,0.02678701416015625,0.642892060546875
-0.1205175,-0.106787216796875,0.62765453125
0.048711093750000004,0.04639424072265625,0.6696806201171875
-0.16136578125,0.02727719482421875,0.7556989306640625
-0.1268392578125,0.09026541015625,0.7950215869140624
-0.012075039062500001,0.1740863037109375,0.7613515625
0.0676763671875,0.0809519775390625,0.7773263916015625
0.12967822265625,0.02090484619140625,0.8903790283203125
0.156667265625,-0.06634731201171876,1.1882481494140624
0.21137478515625,-0.03129939453125,1.556160751953125
0.2412815625,0.05668803466796875,1.651518193359375
0.0871279296875,0.046149150390625,1.863860537109375
-0.329621796875,-0.15899145751953125,1.741960302734375
-0.54042810546875,0.116735166015625,1.38953099609375
-0.53459263671875,0.187321181640625,1.1430270947265626
-0.553314765625,0.19148771728515626,1.2781987255859375
-0.299471875,-0.0827683642578125,1.5495250537109375
-0.121490078125,-0.4464824169921875,1.508973564453125
0.05868001953125,-0.29771258544921875,1.1032129052734374
0.047009082031249996,-0.25947849365234377,1.3312843115234374
0.10779521484375,-0.28594824951171877,1.9294802197265626
-0.15091056640625,-0.26241957763671875,2.129718558349609
-1.2209896484375,-0.146001669921875,2.129718558349609
-0.93164765625,-0.285212978515625,2.129718558349609
-0.3271903515625,-0.06585713134765625,0.7429190673828125
-0.1025248046875,-0.12369844970703125,0.3025053173828125
-0.07869664062500001,-0.05703387939453125,0.244750166015625
-0.1764407421875,-0.2915853271484375,0.6190527001953126
-0.3038484765625,-0.3102121923828125,1.014491162109375
-0.50784673828125,-0.24232217041015625,1.3263689794921876
-0.55890708984375,-0.0621807763671875,0.8812856640625
-0.26081189453125,-0.08938580322265625,0.6485446923828125
-0.00891416015625,-0.1004148681640625,0.682214716796875
0.06257033203125,-0.1523740185546875,0.606518603515625
-0.07748091796875001,-0.1759026904296875,0.641908994140625
-0.07164544921875,0.015022678222656249,0.5669501806640624
-0.23649744140625,-0.186196484375,0.4696266064453125
-0.13632189453125,-0.2023724462890625,0.4484906787109375
-0.10908970703125,-0.046249904785156254,0.578009677734375
-0.21169669921875,0.10815700439453126,0.6303579638671875
-0.1375376171875,0.10864718505859375,0.7043337109375
-0.013777050781250001,0.07923634521484375,0.7556989306640625
0.043605058593749996,-0.02149578125,0.6917996142578124
0.0540602734375,0.01649322021484375,0.6470700927734375
0.0151571484375,0.056933125,0.582925009765625
-0.08355953125,-0.03301502685546875,0.4750334716796875
-0.05316646484375,0.0451687890625,0.3374041748046875
-0.01669478515625,-0.0190448779296875,0.2258261376953125
0.01953375,-0.11757119140625,0.1722490185546875
0.0012979101562499984,-0.1151202880859375,0.0729593115234375
-0.031769746093749995,-0.09281706787109376,0.009059995117187497
-0.022773398437500002,-0.06683749267578125,-0.04500865722656251
-0.0354169140625,-0.0435539111328125,-0.018220097656250003
-0.040279804687500004,-0.0317895751953125,0.040272353515625
-0.04246810546875,-0.020515419921875,0.094341005859375
0.006890234374999998,-0.00777072265625,0.18625771484374998
0.0803198828125,0.03462990478515625,0.700892978515625
0.2174533984375,0.053992041015625,1.8473941748046876
0.561259765625,0.00791505859375,2.129718558349609
-0.0859909765625,-0.1572758251953125,2.129718558349609
-0.37946642578125,0.28903366943359377,2.129718558349609
-0.2591098828125,0.49588990966796875,2.129718558349609
-0.64108994140625,0.26648535888671876,2.129718558349609
-0.10228166015625,0.214771298828125,1.6050683056640624
-0.08526154296874999,-0.06683749267578125,1.0142453955078126
0.1941115234375,-0.310702373046875,1.3617593701171875
0.07205296875,-0.385209833984375,2.129718558349609
-0.36536404296875,-0.112669384765625,2.129718558349609
-0.27734572265625,0.12163697265625,2.129718558349609
-0.44535859375,-0.03840701416015625,2.129718558349609
-0.358799140625,-0.0670825830078125,2.0213969287109377
-0.2095083984375,-0.0268877685546875,1.6483232275390625
-0.17182099609375,-0.18815720703125,1.174239453125
-0.296554140625,-0.3121729150390625,1.1371286962890625
-0.3281629296875,-0.31437872802734373,1.0496357861328125
-0.3164919921875,-0.33006450927734376,0.8360646093749999
-0.31527626953125,-0.27246828125,0.6529684912109375
-0.2999581640625,-0.21095060791015624,0.5379497216796875
-0.1920019921875,-0.1670794384765625,0.2951323193359375
-0.14118478515625,-0.14036459228515624,0.242784033203125
-0.10276794921875,-0.11781628173828125,0.2661318603515625
-0.10763083984374999,-0.1053166748046875,0.2145208740234375
-0.13437673828125,-0.10213050048828125,0.20763940917968748
-0.16160892578125,-0.092081796875,0.222139638671875
-0.15334201171875,-0.1004148681640625,0.1427570263671875
-0.16647181640625,-0.08644471923828125,0.17618128417968748
-0.17765646484375,-0.1092381201171875,0.2169785400390625
-0.214857578125,-0.1229631787109375,0.32585314453125
-0.34591248046875,-0.12418863037109375,0.5276275244140625
-0.43344451171875,-0.09036616455078125,0.6200357666015625
-0.510521328125,-0.0229663232421875,0.8154202148437499
-0.5756840625,0.06624655761718751,0.87243806640625
-0.5119801953125,0.13707766357421874,0.796741953125
-0.4234755859375,0.2015364208984375,0.654688857421875
-0.26275705078125,0.19835024658203124,0.6099593359375
-0.174009296875,0.195164072265625,0.6279002978515625
-0.137051328125,0.18560554931640624,0.6790197509765625
-0.133161015625,0.2270258154296875,0.817877880859375
-0.279047734375,0.22678072509765626,0.9228202197265625
-0.329621796875,0.237319609375,0.8970147265625
-0.23357970703125,0.19638952392578124,0.951574912109375
-0.259596171875,0.27726933349609373,1.0530765185546875
-0.24038775390625,0.20790876953125,1.0697886474609375
-0.152612578125,0.21991819580078126,1.0958399072265625
-0.25497642578125,0.11992134033203125,1.07494974609375
-0.23698373046875,0.138303115234375,1.1447474609375
-0.25789416015625,0.0750698095703125,1.118696201171875
-0.26081189453125,0.0142874072265625,1.0707717138671875
-0.23163455078125,0.033404453125,1.00023669921875
-0.26032560546875,-0.01438816162109375,0.8751414990234375
-0.1851939453125,-0.0239466845703125,0.88423486328125
-0.2882872265625,-0.08497417724609375,0.9046334912109375
-0.36536404296875,-0.0327699365234375,0.9835245703125
-0.22944625,-0.06046514404296875,0.953541044921875
-0.28585578125,-0.09012107421875,0.9419900146484375
-0.2756437109375,-0.10115013916015625,0.9520664453125
-0.31722142578125,-0.10556176513671875,0.97467697265625
-0.22944625,-0.069533486328125,1.0201437939453124
-0.26251390625,-0.08963089355468751,1.037101689453125
-0.2114535546875,-0.04330882080078125,1.05233921875
-0.29290697265625,-0.1210024560546875,1.0540595849609375
-0.27199654296875,-0.036201201171875,1.0599579833984376
-0.24865466796875,-0.13595296630859374,0.99040603515625
-0.1501811328125,-0.0925719775390625,0.9906518017578125
-0.17571130859375,-0.076396015625,1.058729150390625
-0.23357970703125,-0.07517056396484376,1.155069658203125
-0.21193984375,-0.0553182470703125,1.199307646484375
-0.28269490234375,0.00399361328125,1.127052265625
-0.17279357421875,-0.01683906494140625,1.134916796875
-0.29047552734375,-0.06291604736328126,1.1213996337890624
-0.2484115234375,-0.03203466552734375,1.147205126953125
-0.17960162109375,-0.0004180126953125,1.13196759765625
-0.23990146484375,-0.092081796875,1.10247560546875
-0.17717017578125,-0.08154291259765625,1.1213996337890624
-0.26470220703125,-0.096983603515625,1.03759322265625
-0.1569891796875,-0.07271966064453125,1.012525029296875
-0.11784291015625001,-0.0700236669921875,1.0029401318359374
-0.20294349609375,-0.087179990234375,0.9975332666015625
-0.2318776953125,-0.08619962890625,1.0189149609375
-0.14507509765624998,-0.053847705078125,0.9616513427734374
-0.26616107421875,-0.046740085449218746,0.9778719384765625
-0.1764407421875,-0.06389640869140625,0.999745166015625
-0.23990146484375,-0.04330882080078125,0.955507177734375
-0.16598552734375,-0.0411030078125,0.994829833984375
-0.277102578125,-0.049926259765625,0.97074470703125
-0.19564916015625,-0.07370002197265625,0.9940925341796875
-0.25303126953125,-0.06193568603515625,0.97271083984375
-0.1482359765625,-0.08203309326171875,0.9591936767578125
-0.20829267578125,-0.010711806640625,1.091661875
-0.2571647265625,-0.057278969726562504,1.0299744580078125
-0.2600824609375,-0.05115171142578125,1.0471781201171875
-0.220693046875,0.0054641552734375,1.033169423828125
-0.19248828125,-0.1004148681640625,0.9609140429687499
-0.1920019921875,-0.01879978759765625,1.0122792626953125
-0.2309051171875,0.014777587890624999,1.0570087841796876
-0.26372962890625,-0.0710040283203125,1.0179318945312499
-0.25303126953125,-0.037916833496093746,1.0230929931640624
-0.21364185546875,0.0074248779296875,1.011541962890625
-0.21801845703125,-0.05801424072265625,1.023338759765625
-0.20975154296875,-0.073454931640625,1.0294829248046875
-0.28512634765625,-0.01438816162109375,0.9832788037109375
-0.255705859375,-0.09526797119140624,0.96877857421875
-0.2202067578125,-0.05360261474609375,0.973202373046875
-0.26227076171875,-0.0097314453125,0.954032578125
-0.24136033203125,-0.0690433056640625,0.958456376953125
-0.2172890234375,-0.07370002197265625,1.0142453955078126
-0.27151025390625,-0.027868129882812502,1.06511908203125
-0.3009307421875,-0.09330724853515625,1.0778989453125
-0.29825615234375,-0.04870080810546875,1.04939001953125
-0.2104809765625,-0.05311243408203125,0.988931435546875
-0.236254296875,-0.08546435791015625,0.9326508837890625
-0.26859251953125,-0.076396015625,1.0260421923828125
-0.2416034765625,-0.0729647509765625,1.0294829248046875
-0.30409162109375,-0.0474753564453125,0.9891772021484375
-0.30409162109375,-0.0670825830078125,0.9724650732421874
-0.21461443359375,-0.0151234326171875,0.9827872705078124
-0.28561263671875,-0.02713285888671875,0.9520664453125
-0.23649744140625,-0.052867343750000004,0.9877026025390625
-0.26567478515625,-0.06340622802734375,0.93732044921875
-0.25692158203125,-0.10850284912109374,0.891116328125
-0.1813036328125,-0.060710234375,0.899472392578125
-0.29485212890625,-0.1023755908203125,0.8913620947265625
-0.2333365625,-0.08963089355468751,0.97664310546875
-0.20099833984375,-0.1038461328125,0.9881941357421875
-0.27807515625,-0.063651318359375,1.0425085546875
-0.265431640625,-0.10556176513671875,0.97860923828125
-0.18689595703125,-0.025662316894531252,0.9351085498046875
-0.25108611328125,-0.0347306591796875,0.952557978515625
-0.27783201171875,-0.0803174609375,0.9650920751953125
-0.25084296875,-0.0298288525390625,1.0589749169921876
-0.2800203125,0.0211499365234375,1.0388220556640624
-0.17692703125,-0.048945898437499996,1.0029401318359374
-0.26810623046875,-0.0464949951171875,1.048898486328125
-0.29582470703125,0.0054641552734375,1.064136015625
-0.23260712890625002,-0.0288484912109375,0.9599309765625
-0.21850474609375,-0.07075893798828126,0.9196252539062499
-0.26907880859375,-0.023456503906250002,0.98942296875
-0.197351171875,-0.12811007568359375,0.900455458984375
-0.2177753125,-0.10972830078125,0.860149736328125
-0.24573693359375,-0.05017135009765625,0.9719735400390626
-0.23139140625,-0.10850284912109374,0.9488714794921875
-0.25497642578125,-0.1004148681640625,1.00416896484375
-0.24379177734375002,-0.110708662109375,0.9936010009765625
-0.28634207031250003,-0.02860340087890625,0.9080742236328125
-0.18446451171875,-0.11438501708984375,0.8498275390625
-0.109819140625,-0.03522083984375,0.88226873046875
-0.2488978125,-0.0455146337890625,0.99040603515625
-0.191515703125,-0.03350520751953125,1.103950205078125
-0.2766162890625,-0.06634731201171876,1.052830751953125
-0.25303126953125,-0.034240478515625,0.985490703125
-0.16306779296875,-0.11242429443359375,0.9400238818359374
-0.2435486328125,0.0037485229492187503,0.99630443359375
-0.17960162109375,-0.09012107421875,0.98450763671875
-0.18349193359375,-0.038161923828125,1.0157199951171876
-0.26372962890625,-0.00507472900390625,1.0825685107421874
-0.1725504296875,-0.07222947998046875,1.0599579833984376
-0.31916658203125,-0.052867343750000004,0.9670582080078125
-0.24038775390625,-0.0945327001953125,0.9360916162109375
-0.13972591796875,-0.0038492773437499997,0.9449392138671875
-0.20488865234375,-0.13007079833984375,0.9847534033203125
-0.33035123046875,-0.0523771630859375,1.0592206835937499
-0.17911533203125,-0.00948635498046875,1.073475146484375
-0.2542469921875,-0.12565917236328125,0.9100403564453124
-0.290718671875,-0.08105273193359375,0.9301932177734376
-0.1433730859375,0.0012976196289062499,0.946659580078125
-0.20099833984375,-0.1317864306640625,0.913235322265625
-0.2221519140625,-0.07468038330078125,1.0267794921875
-0.22968939453125,-0.07320984130859375,1.0520934521484375
-0.279047734375,-0.07419020263671874,1.072000546875
-0.23649744140625,-0.0288484912109375,1.02383029296875
-0.2931501171875,-0.065612041015625,0.9429730810546875
-0.16841697265625,-0.0455146337890625,0.9680412744140625
-0.2600824609375,-0.091101435546875,0.9469053466796875
-0.24233291015625,-0.07026875732421875,0.9518206787109375
-0.16015005859375,-0.07443529296875,0.91176072265625
-0.3213548828125,-0.059484782714843754,0.95108337890625
-0.1477496875,-0.14379585693359376,1.024321826171875
-0.28318119140625,-0.03350520751953125,0.9444476806640625
-0.2211793359375,-0.0151234326171875,1.0179318945312499
-0.16720125,-0.08227818359375,0.961897109375
-0.26129818359375,-0.01732924560546875,1.0378389892578126
-0.24865466796875,-0.00581,1.086255009765625
-0.2892598046875,-0.0582593310546875,0.95796484375
-0.1633109375,-0.02860340087890625,0.9321593505859375
-0.25084296875,-0.05458297607421875,0.8972604931640625
-0.24525064453125,-0.0974737841796875,0.9464138134765625
-0.19808060546875,-0.06267095703125,0.9926179345703126
-0.3184371484375,-0.0700236669921875,1.035135556640625
-0.2085358203125,-0.03497574951171875,1.041033955078125
-0.21801845703125,-0.04821062744140625,0.95698177734375
-0.280992890625,-0.071494208984375,1.0211268603515624
-0.199296328125,-0.0396324658203125,1.0031858984375
-0.18543708984375,-0.10850284912109374,0.9488714794921875
-0.24914095703125,-0.01144707763671875,1.05233921875
-0.26518849609375,-0.0376717431640625,1.0171945947265626
-0.22044990234375,-0.00360418701171875,1.038084755859375
-0.27442798828125,-0.11144393310546875,1.0174403613281249
-0.22361078125,-0.022476142578125,1.024321826171875
-0.23309341796875,-0.0960032421875,0.955507177734375
-0.267376796875,-0.0778665576171875,0.9808211376953125
-0.22361078125,-0.09845414550781251,0.9159387548828125
-0.24525064453125,-0.08350363525390625,0.930930517578125
-0.15285572265625,-0.05850442138671875,0.932896650390625
-0.3291355078125,-0.06659240234375,0.9120064892578125
-0.2289599609375,0.04443351806640625,0.985490703125
-0.174981875,-0.0881603515625,0.9523122119140625
-0.230418828125,-0.09722869384765626,0.999745166015625
-0.27248283203125,-0.01978014892578125,1.0540595849609375
-0.22361078125,-0.1455114892578125,1.0260421923828125
-0.30871136718750003,-0.0464949951171875,1.0093300634765625
-0.2649453515625,-0.0999246875,0.9660751416015625
-0.15382830078125,-0.09085634521484375,0.9316678173828125
-0.25473328125,-0.07124911865234375,1.0309575244140625
-0.22750109375,-0.0915916162109375,1.0737209130859375
-0.17133470703125,-0.06242586669921875,1.0353813232421876
-0.2328502734375,-0.063651318359375,1.092153408203125
-0.29387955078125,-0.0018885546875000003,1.0810939111328124
-0.26956509765625,-0.06487677001953125,0.99237216796875
-0.30068759765624997,-0.06046514404296875,0.9405154150390624
-0.160393203125,-0.09379742919921875,0.89209939453125
-0.209022109375,-0.07909200927734375,0.9120064892578125
-0.22142248046875002,-0.09330724853515625,0.977134638671875
-0.23066197265625,-0.10409122314453124,0.978117705078125
-0.24038775390625,-0.00752563232421875,1.0584833837890626
-0.23601115234375,-0.010221625976562499,0.9985163330078125
-0.21996361328125,-0.0553182470703125,0.9395323486328125
-0.245980078125,-0.032279755859375,1.0103131298828125
-0.13243158203125,-0.03742665283203125,1.0255506591796875
-0.25449013671875,-0.045024453125,1.03366095703125
-0.27029453125,-0.015368522949218751,1.072000546875
-0.18251935546875,-0.00605509033203125,0.976151572265625
-0.3057936328125,-0.04870080810546875,0.9601767431640625
-0.18786853515625002,-0.0327699365234375,1.00810123046875
-0.267376796875,-0.023456503906250002,0.927981318359375
-0.2114535546875,0.0054641552734375,0.9896687353515625
-0.16720125,-0.045024453125,0.9709904736328125
-0.24427806640625,-0.0494360791015625,0.9685328076171875
-0.26907880859375,-0.05164189208984375,1.04152548828125
-0.22482650390625,-0.1239435400390625,0.9228202197265625
-0.21412814453125,-0.04036773681640625,0.9238032861328125
-0.21558701171875,-0.0553182470703125,0.9336339501953125
-0.280992890625,-0.11781628173828125,0.9520664453125
-0.1229489453125,-0.0001729223632812504,1.004660498046875
-0.28853037109375,-0.05899460205078125,0.98254150390625
-0.25205869140625,-0.014633251953124999,1.061678349609375
-0.24306234375,-0.023456503906250002,0.9815584374999999
-0.18397822265625,-0.04698517578125,0.985490703125
-0.22823052734375,-0.018554697265625,0.950591845703125
-0.25059982421875,-0.10801266845703125,0.930930517578125
-0.13972591796875,0.02874773681640625,0.9719735400390626
-0.30117388671875,-0.061690595703125004,0.95304951171875
-0.22871681640625,-0.04428918212890625,1.013508095703125
-0.12708240234375,-0.03644629150390625,1.0034316650390624
-0.1988100390625,-0.035711020507812496,1.004660498046875
-0.207076953125,-0.046740085449218746,1.040542421875
-0.2766162890625,-0.04183827880859375,1.0179318945312499
-0.253760703125,-0.0038492773437499997,0.9798380712890625
-0.206104375,-0.08644471923828125,0.9400238818359374
-0.29533841796875,-0.04085791748046875,0.9936010009765625
-0.14945169921875,-0.0710040283203125,1.02972869140625
-0.26421591796875,-0.0533575244140625,0.92355751953125
-0.23795630859375,-0.045024453125,0.9400238818359374
-0.14021220703125,-0.0592396923828125,0.91569298828125
-0.300444453125,-0.07370002197265625,1.001219765625
-0.22750109375,-0.03522083984375,1.1145181689453125
-0.2824517578125,-0.107767578125,0.9842618701171875
-0.22579908203125,-0.022476142578125,0.9065996240234375
-0.16914640625,-0.09673851318359375,0.88816712890625
-0.2853694921875,-0.068553125,1.0073639306640625
-0.18932740234375,0.03953171142578125,1.112797802734375
-0.26640421875,-0.08963089355468751,1.0422627880859374
-0.26032560546875,0.0025230712890624996,1.0658563818359374
-0.22628537109375,-0.0259074072265625,0.99040603515625
-0.19029998046875,-0.0592396923828125,0.9675497412109375
-0.174009296875,-0.05311243408203125,0.9950756005859375
-0.28026345703125,-0.06634731201171876,0.9911433349609375
-0.18203306640625,-0.0259074072265625,1.0117877294921875
-0.1997826171875,-0.057769150390625,0.9795923046875
-0.2221519140625,0.02139502685546875,1.02579642578125
-0.22944625,-0.07419020263671874,1.0334151904296875
-0.2746711328125,-0.046740085449218746,0.98254150390625
-0.18640966796875,-0.02664267822265625,1.01006736328125
-0.2766162890625,-0.0055649096679687505,0.9820499707031249
-0.27831830078124997,-0.0710040283203125,0.9874568359375
-0.1939471484375,-0.05090662109375,0.9729566064453125
-0.3048210546875,-0.05311243408203125,0.9110234228515625
-0.14361623046875,-0.04870080810546875,0.907336923828125
-0.19710802734375,-0.0425735498046875,0.8893959619140624
-0.2688356640625,-0.03497574951171875,0.993355234375
-0.19710802734375,-0.04477936279296875,1.0031858984375
-0.28269490234375,-0.04477936279296875,0.9886856689453125
-0.23017568359375,0.04051207275390625,1.034152490234375
-0.19175884765625,-0.06046514404296875,0.9936010009765625
-0.28196546875,-0.012672529296875,1.04939001953125
-0.2056180859375,-0.0141430712890625,1.093136474609375
-0.2600824609375,-0.01879978759765625,1.0324321240234375
-0.292663828125,-0.11928682373046876,0.9134810888671875
-0.14653396484375,-0.03056412353515625,0.91372685546875
-0.2065906640625,-0.09869923583984375,0.9007012255859375
-0.16452666015625,-0.02149578125,1.0294829248046875
-0.2338228515625,-0.0415931884765625,1.0314490576171875
-0.25449013671875,-0.04477936279296875,1.0284998583984375
-0.14167107421875,0.03144373046875,1.0245675927734375
-0.3267040625,-0.03987755615234375,0.971236240234375
-0.16549923828125,-0.02272123291015625,1.0189149609375
-0.19613544921875,-0.05605351806640625,0.9874568359375
-0.3242726171875,-0.016593974609375,1.0024485986328124
-0.18543708984375,-0.0803174609375,0.9395323486328125
-0.18786853515625002,-0.046004814453125,0.8864467626953125
-0.25157240234375,-0.03105430419921875,0.9277355517578125
-0.2172890234375,-0.0803174609375,0.942727314453125
-0.21169669921875,-0.030319033203124998,0.9695158740234375
-0.1540714453125,-0.07664110595703125,0.9459222802734375
-0.25546271484375,-0.0670825830078125,0.9429730810546875
-0.18543708984375,0.024091020507812498,1.0137538623046876
-0.2172890234375,-0.13105115966796876,0.950591845703125
-0.1939471484375,-0.0219859619140625,1.0147369287109376
-0.25157240234375,-0.01438816162109375,1.05725455078125
-0.26081189453125,-0.06340622802734375,1.061678349609375
-0.19832375,0.042227705078125,1.036118623046875
-0.26324333984375,-0.02762303955078125,0.9714820068359376
-0.20488865234375,-0.0018885546875000003,1.0289913916015625
-0.268349375,-0.02125069091796875,1.0098215966796875
-0.1764407421875,-0.03914228515625,0.952557978515625
-0.16136578125,-0.010221625976562499,0.8972604931640625
-0.21169669921875,-0.01953505859375,0.9559987109375
-0.24038775390625,-0.0249270458984375,1.0142453955078126
-0.2027003515625,0.015022678222656249,1.0609410498046874
-0.2644590625,-0.0298288525390625,1.04349162109375
-0.2484115234375,-0.03742665283203125,1.075441279296875
-0.282938046875,0.030708459472656248,1.0810939111328124
-0.28026345703125,-0.06830803466796875,0.993846767578125
-0.20415921875,-0.076396015625,0.9655836083984375
-0.26129818359375,0.00717978759765625,0.9360916162109375
-0.2065906640625,-0.1043363134765625,0.8989808593749999
-0.23552486328125,-0.042083369140625,0.8540055712890625
-0.16160892578125,-0.042083369140625,0.8655566015625
-0.1443456640625,-0.068553125,0.933879716796875
-0.23917203125,-0.03252484619140625,1.0103131298828125
-0.205131796875,-0.077376376953125,1.032186357421875
-0.2099946875,-0.0803174609375,1.010558896484375
-0.27199654296875,0.04443351806640625,1.048406953125
-0.2552195703125,-0.03203466552734375,1.060695283203125
-0.26275705078125,-0.04919098876953125,1.043983154296875
-0.21364185546875,-0.013407800292968751,0.996795966796875
-0.23698373046875,-0.013652890625,0.916184521484375
-0.2581373046875,-0.0646316796875,0.9609140429687499
-0.18251935546875,-0.0371815625,0.93732044921875
-0.1628246484375,0.05227640869140625,0.9488714794921875
-0.23114826171875,-0.05409279541015625,0.9877026025390625
-0.212912421875,-0.030073942871093752,1.0221099267578124
-0.2022140625,-0.01953505859375,0.9822957373046874
-0.23601115234375,-0.052867343750000004,1.0130165625
-0.19808060546875,-0.00777072265625,0.9999909326171875
-0.32791978515625,-0.01879978759765625,0.97271083984375
-0.22677166015625,-0.0011532836914062497,1.02186416015625
-0.221665625,0.055952763671875,0.9842618701171875
-0.30846822265625,-0.095022880859375,0.9469053466796875
-0.20002576171875,0.0037485229492187503,0.9704989404296875
-0.1710915625,-0.01438816162109375,0.8972604931640625
-0.22871681640625,-0.09869923583984375,0.9041419580078125
-0.1725504296875,-0.03448556884765625,0.9818042041015624
-0.22579908203125,-0.013407800292968751,1.015474228515625
-0.27613,-0.1308060693359375,0.9994993994140625
-0.1929745703125,0.0025230712890624996,0.96288017578125
-0.15431458984375,-0.0072805419921875,0.9636174755859375
-0.30555048828125,-0.036201201171875,1.0162115283203126
-0.20804953125,0.011346323242187501,1.0661021484375
-0.244034921875,-0.01683906494140625,0.9965502001953125
-0.2644590625,0.0211499365234375,0.9891772021484375
-0.207076953125,0.01747358154296875,0.9808211376953125
-0.24087404296875,-0.0710040283203125,0.89996392578125
-0.19248828125,0.0064445166015625,0.9191337207031249
-0.15820490234375,0.018699033203125,0.9719735400390626
-0.2659179296875,-0.0523771630859375,0.9872110693359375
-0.2279873828125,-0.0092412646484375,0.99040603515625
-0.20245720703125,0.010611052246093749,0.9567360107421875
-0.115654609375,-0.046740085449218746,1.00810123046875
-0.2800203125,-0.05409279541015625,1.0009739990234374
-0.26275705078125,-0.0161037939453125,1.04349162109375
-0.1890842578125,0.01159141357421875,1.027271025390625
-0.28512634765625,-0.0935523388671875,0.97664310546875
-0.22677166015625,-0.02370159423828125,0.9759058056640625
-0.15917748046875,-0.092081796875,0.920116787109375
-0.22482650390625,-0.0200252392578125,0.9744312060546875
-0.19078626953125,-0.03448556884765625,0.9990078662109375
-0.26154132812499997,-0.07517056396484376,1.0324321240234375
-0.17522501953125,0.024091020507812498,1.0825685107421874
-0.2639727734375,-0.046740085449218746,1.03759322265625
-0.199296328125,0.020659755859375,1.0329236572265625
-0.2581373046875,-0.0082609033203125,0.976151572265625
-0.1813036328125,-0.0072805419921875,1.042017021484375
-0.232363984375,-0.02223105224609375,1.0270252587890625
-0.29363640625,-0.01585870361328125,0.967303974609375
-0.222638203125,-0.05752406005859375,0.9402696484374999
-0.230418828125,-0.01095689697265625,0.93732044921875
-0.13437673828125,-0.055073156738281254,0.913235322265625
-0.321841171875,-0.02321141357421875,0.9815584374999999
-0.268349375,-0.0523771630859375,1.133442197265625
-0.152612578125,0.056933125,1.0280083251953125
-0.23114826171875,-0.130315888671875,0.944693447265625
-0.26664736328125,0.04149243408203125,1.05233921875
-0.13024328125,-0.00654527099609375,1.0189149609375
-0.21193984375,-0.01683906494140625,1.0108046630859375
-0.25205869140625,0.02874773681640625,1.0825685107421874
-0.265431640625,-0.05899460205078125,1.094119541015625
-0.24379177734375002,0.009140510253906251,1.07298361328125
-0.23309341796875,-0.05090662109375,0.9891772021484375
-0.18106048828125,-0.06585713134765625,1.0019570654296874
-0.18981369140625,-0.02958376220703125,1.0759328125
-0.28901666015625,-0.00850599365234375,1.098051806640625
-0.24038775390625,-0.044534272460937496,1.0857634765625
-0.26178447265625,0.04492369873046875,1.0633987158203124
-0.31333111328125,-0.14967802490234375,0.981066904296875
-0.207076953125,-0.004829638671875,0.9827872705078124
-0.14069849609375001,-0.026397587890625,0.9363373828125
-0.29047552734375,-0.1587463671875,0.8967689599609375
-0.2333365625,-0.06585713134765625,0.8485987060546875
-0.15528716796875,-0.03252484619140625,0.78986048828125
-0.09839134765625,0.01845394287109375,0.7876485888671875
-0.300444453125,0.0030132519531249997,0.87440419921875
-0.21655958984375,0.03855135009765625,0.9631259423828125
-0.10519939453125,-0.0612004150390625,0.832623876953125
-0.16598552734375,-0.05874951171875,0.8073099169921875
-0.0480604296875,0.01992448486328125,0.9134810888671875
-0.18008791015625,-0.06928839599609375,0.9700074072265625
-0.302389609375,0.1093824560546875,1.1366371630859375
-0.4302836328125,0.12874459228515625,1.1494170263671875
-0.3330258203125,0.024581201171875,1.1027213720703124
-0.25059982421875,0.10815700439453126,0.93338818359375
-0.11492517578125,0.05913893798828125,0.8348357763671875
-0.02787943359375,-0.07909200927734375,0.770690693359375
-0.14069849609375001,-0.047965537109375,0.7969877197265625
-0.1083602734375,-0.01144707763671875,0.793301220703125
-0.19808060546875,-0.0533575244140625,0.8852179296875
-0.197351171875,0.03806116943359375,1.042017021484375
-0.22725794921875,0.06845237060546874,1.0673309814453125
-0.218747890625,-0.012672529296875,1.1027213720703124
-0.17133470703125,0.05497240234375,1.1774344189453125
-0.2843969140625,0.05227640869140625,1.1931634814453125
-0.40280830078125,-0.0592396923828125,1.1479424267578124
-0.370470078125,-0.013162709960937501,1.036118623046875
-0.2503566796875,-0.02321141357421875,0.9203625537109374
-0.20440236328125,-0.12320826904296875,0.8262339453125
-0.18008791015625,-0.0562986083984375,0.9675497412109375
-0.1453182421875,0.0338946337890625,1.093136474609375
-0.2561921484375,-0.10507158447265624,1.056271484375
-0.24427806640625,0.0397768017578125,1.1093570703125
-0.11054857421875,0.019679394531249998,1.13098453125
-0.27102396484375,-0.04281864013671875,1.0810939111328124
-0.25838044921875,-0.0170841552734375,1.1386032958984376
-0.22725794921875,-0.05017135009765625,1.03366095703125
-0.24427806640625,-0.02860340087890625,1.0855177099609374
-0.1910294140625,0.024581201171875,1.2364184033203125
-0.40134943359374997,-0.059729873046875,1.271071494140625
-0.3495596484375,-0.0190448779296875,1.3229282470703125
-0.29485212890625,-0.077376376953125,1.1621968896484376
-0.2824517578125,-0.01438816162109375,1.062661416015625
-0.29728357421875,-0.2513905126953125,0.9370746826171875
-0.19346085937500002,-0.1680597998046875,0.845403740234375
-0.13000013671875,-0.20065681396484375,0.6728755859375
-0.09498732421875,-0.23521455078125,0.5787469775390625
0.001541054687499998,-0.1582561865234375,0.63256986328125
0.012968847656250001,-0.20702916259765625,0.7935469873046875
-0.19224513671875,-0.10580685546875,1.0442289208984374
-0.354908828125,0.04835496337890625,1.0818312109375
-0.290718671875,0.1221271533203125,1.069542880859375
-0.3972159765625,-0.02125069091796875,0.906353857421875
-0.3009307421875,0.12874459228515625,0.7738856591796874
-0.14653396484375,0.057668395996093746,0.5684247802734375
-0.20877896484375,0.0780108935546875,0.5391785546875
-0.1229489453125,0.05497240234375,0.4526687109375
0.022451484375,0.010611052246093749,0.523941025390625
-0.09304216796875,0.15031254150390624,0.7198170068359375
-0.14191421875,0.16354741943359374,0.90193005859375
-0.17522501953125,0.23535888671875,1.1312302978515625
-0.236254296875,0.3221208642578125,1.2698426611328124
-0.17084841796875,0.31550342529296876,1.3494710400390626
-0.20197091796875,0.10227483642578125,1.261240830078125
-0.27029453125,0.13021513427734374,1.1533492919921875
-0.3330258203125,0.050070595703125,1.06905134765625
-0.3437241796875,-0.07566074462890625,1.075441279296875
-0.24719580078125,-0.110708662109375,1.0363643896484376
-0.265431640625,-0.19526482666015624,0.9183964208984375
-0.12635296875,-0.2136466015625,0.8618701025390625
-0.05243703125,-0.23987126708984374,0.92355751953125
-0.045628984375,-0.22124440185546876,0.9218371533203125
-0.0957167578125,-0.24281235107421875,0.8564632373046875
-0.1710915625,-0.2504101513671875,0.7493089990234375
-0.1958923046875,-0.24183198974609374,0.7134270751953125
-0.04003666015625,-0.27957590087890627,0.7488174658203125
-0.08283009765625,-0.2293323828125,0.9562444775390625
-0.18081734375,-0.045024453125,1.11820466796875
-0.31624884765625,0.1015395654296875,1.2895039892578124
-0.53459263671875,0.1510478125,1.328089345703125
-0.33813185546875,0.20962440185546874,1.17522251953125
-0.2698082421875,0.2623188232421875,1.172764853515625
-0.15820490234375,0.238299970703125,1.14376439453125
-0.3077387890625,0.07286399658203124,1.209138310546875
-0.3213548828125,0.17482157470703125,1.274020693359375
-0.31673513671875,-0.0001729223632812504,1.16342572265625
-0.299471875,0.03021827880859375,1.0373474560546876
-0.18397822265625,0.02286556884765625,0.93535431640625
-0.11200744140625,-0.04968116943359375,0.865065068359375
-0.199296328125,-0.004829638671875,0.9599309765625
-0.15188314453125001,-0.028358310546875,1.0334151904296875
-0.3223274609375,-0.1210024560546875,1.0737209130859375
-0.3189234375,-0.0562986083984375,1.0162115283203126
-0.22385392578125,-0.17835359375,0.798216552734375
-0.22361078125,-0.14918784423828124,0.698926845703125
-0.15820490234375,7.216796875000007e-05,0.792318154296875
-0.28318119140625,-0.00581,0.907336923828125
-0.30652306640625,0.024581201171875,1.0896957421875
-0.32013916015625,0.14590091552734374,1.109848603515625
-0.269321953125,0.20006587890625,0.980083837890625
-0.299471875,0.04933532470703125,0.8087845166015625
-0.05413904296875,0.02360083984375,0.6903250146484375
-0.0344443359375,0.0280124658203125,0.640925927734375
-0.17230728515625,-0.0371815625,0.7200627734375
-0.20245720703125,-0.144040947265625,0.8176321142578125
-0.1190586328125,-0.01193725830078125,0.9788550048828125
-0.18495080078125,0.064776015625,1.0417712548828124
-0.10908970703125,-0.0567887890625,1.1818582177734376
-0.41934212890625,0.0294830078125,1.2924531884765624
-0.22142248046875002,0.16256705810546876,1.147205126953125
-0.346155625,0.14908708984375,0.9815584374999999
-0.4438997265625,0.06894255126953125,0.8530225048828125
-0.1239215234375,-0.05997496337890625,0.7802755908203125
-0.10665826171875001,-0.2945264111328125,0.8068183837890625
-0.07748091796875001,-0.32540779296875,0.83704767578125
-0.049519296875,-0.257762861328125,0.8451579736328125
0.002756777343749999,-0.2043331689453125,0.8623616357421875
0.06305662109375,-0.037916833496093746,1.063644482421875
-0.06775513671875,0.0525214990234375,1.327106279296875
-0.41058892578125,0.1407540185546875,1.6380010302734376
-0.5000661132812501,0.2280061767578125,1.756706298828125
-0.467727890625,0.14148928955078124,1.51143123046875
-0.2172890234375,0.0897752294921875,1.2037314453125
-0.25473328125,0.08242251953125,1.095594140625
-0.32013916015625,0.010856142578125,1.092153408203125
-0.3252451953125,0.040266982421875,1.0860092431640624
-0.2338228515625,0.07923634521484375,0.897506259765625
-0.1939471484375,0.0966377587890625,0.8092760498046875
-0.16306779296875,-0.0337502978515625,0.65911265625
0.049197382812499996,-0.006790361328125,0.6136458349609375
0.0482248046875,-0.032279755859375,0.7298934375
-0.1404553515625,-0.08203309326171875,0.96877857421875
-0.3145468359375,-0.025662316894531252,1.284834423828125
-0.4565432421875,-0.10850284912109374,1.3883021630859376
-0.29776986328125,-0.05213207275390625,1.2934362548828124
-0.2834243359375,-0.0288484912109375,1.155069658203125
-0.29509527343749997,0.01306195556640625,1.0329236572265625
-0.2600824609375,0.0137972265625,0.979100771484375
-0.27248283203125,0.0003172583007812497,0.9007012255859375
-0.22944625,-0.0092412646484375,0.8746499658203125
-0.1205175,0.03462990478515625,0.862115869140625
-0.09206958984375,0.0064445166015625,0.85081060546875
-0.046358417968749996,0.0191892138671875,0.89996392578125
-0.09912078125,-0.0543378857421875,0.8267254785156251
-0.07650833984375,-0.0960032421875,0.8205813134765625
-0.131215859375,-0.050661530761718754,0.97074470703125
-0.280992890625,-0.029338671875,1.0835515771484374
-0.2800203125,-0.010711806640625,1.06905134765625
-0.366579765625,0.11747043701171875,1.072000546875
-0.42080099609375,0.1299700439453125,1.0550426513671876
-0.3203823046875,0.11845079833984375,0.97074470703125
-0.2133987109375,0.0809519775390625,0.8102591162109375
-0.1064151171875,0.042227705078125,0.7753602587890625
-0.0821006640625,-0.1200220947265625,0.8159117480468749
-0.008671015625,0.0505607763671875,0.95304951171875
-0.15382830078125,0.048109873046875,1.08478041015625
-0.154557734375,0.16624341308593749,1.131476064453125
-0.20926525390625,0.11698025634765626,1.0899415087890625
-0.175954453125,0.0348749951171875,1.205206044921875
-0.46067669921875,0.073599267578125,1.08379734375
-0.3942982421875,0.07457962890625,1.08478041015625
-0.25789416015625,0.05619785400390625,1.0071181640625
-0.31819400390625,0.10472573974609375,0.90586232421875
-0.175954453125,0.12972495361328126,0.8461410400390625
-0.26470220703125,-0.13399224365234375,0.7566819970703125
-0.037362070312499995,-0.1415900439453125,0.7940385205078125
-0.177899609375,-0.132276611328125,0.77806369140625
-0.17692703125,-0.10556176513671875,0.7861739892578125
-0.17765646484375,0.011346323242187501,0.779538291015625
-0.2318776953125,0.02482629150390625,0.8431918408203125
-0.25497642578125,-0.0543378857421875,0.9636174755859375
-0.2250696484375,-0.01144707763671875,1.0152284619140626
-0.2416034765625,0.09492212646484376,1.0609410498046874
-0.34396732421875,0.02041466552734375,1.060695283203125
-0.22701480468750002,-0.049926259765625,1.10444173828125
-0.21266927734375,0.05913893798828125,1.153103525390625
-0.40183572265625,-0.0494360791015625,0.9945840673828125
-0.14702025390625,-0.05703387939453125,0.8643277685546875
-0.11079171875,-0.03448556884765625,0.8048522509765625
-0.08672041015625,0.07457962890625,0.9911433349609375
-0.16720125,-0.03914228515625,1.1012467724609376
-0.25351755859375,0.08168724853515624,1.2531305322265625
-0.22750109375,0.0584036669921875,1.20471451171875
-0.3213548828125,0.0309535498046875,1.0791277783203126
-0.22750109375,0.0505607763671875,1.023338759765625
-0.2717533984375,-0.0013983740234375002,1.0024485986328124
-0.32694720703125,-0.02321141357421875,1.038084755859375
-0.3437241796875,-0.0043394580078125,1.0314490576171875
-0.38676076171875,-0.05605351806640625,0.8933282275390625
-0.28585578125,-0.0009081933593750001,0.851793671875
-0.16598552734375,0.0059543359375,0.8161575146484374
-0.19175884765625,-0.02223105224609375,0.792318154296875
-0.0466015625,-0.08546435791015625,0.846386806640625
-0.10276794921875,-0.18791211669921876,0.854251337890625
-0.19273142578125,-0.07958218994140626,0.942727314453125
-0.252788125,-0.05213207275390625,1.063644482421875
-0.35077537109375,0.04639424072265625,1.084288876953125
-0.38700390625000003,0.11649007568359375,1.0712632470703125
-0.40669861328125,0.11747043701171875,1.0363643896484376
-0.30457791015625,0.15325362548828125,0.829674677734375
-0.2377131640625,0.0574233056640625,0.6485446923828125
-0.21266927734375,0.0329142724609375,0.636010595703125
-0.04003666015625,-0.112669384765625,0.63256986328125
-0.003808124999999999,-0.1229631787109375,0.75250396484375
-0.22677166015625,-0.0001729223632812504,1.001219765625
-0.10568568359375,-0.057278969726562504,1.1565442578125
-0.10665826171875001,-0.04698517578125,1.347750673828125
-0.36925435546875,-0.01193725830078125,1.41410765625
-0.37898013671874997,0.07041309326171875,1.2781987255859375
-0.226528515625,0.104970830078125,1.056763017578125
-0.27977716796875,0.00227798095703125,0.967303974609375
-0.2255559375,0.09639266845703125,0.9886856689453125
-0.27442798828125,-0.01487834228515625,0.9115149560546875
-0.224583359375,0.0770305322265625,0.820827080078125
-0.1803310546875,-0.06144550537109375,0.6795112841796875
-0.143859375,-0.06389640869140625,0.71318130859375
-0.2211793359375,-0.067572763671875,0.781504423828125
-0.170118984375,-0.073454931640625,0.9444476806640625
-0.1788721875,-0.07835673828125,1.14376439453125
-0.17960162109375,0.03266918212890625,1.2587831640625
-0.27151025390625,-0.0009081933593750001,1.2705799609375
-0.323786328125,-0.07370002197265625,1.1504000927734375
-0.237226875,0.1015395654296875,1.06118681640625
-0.24184662109375,0.0682072802734375,1.1233657666015624
-0.37168580078125,0.026541923828125,1.2393676025390625
-0.31041337890625,0.1015395654296875,1.2880293896484374
-0.32475890625,0.03757098876953125,1.0661021484375
-0.38311359375,0.081442158203125,0.85867513671875
-0.18543708984375,0.00570924560546875,0.7571735302734375
-0.1326747265625,0.019679394531249998,0.7738856591796874
-0.16258150390625,0.0037485229492187503,0.76823302734375
-0.14361623046875,0.01183650390625,0.902421591796875
-0.19419029296875,-0.010221625976562499,1.0398051220703124
-0.2386857421875,-0.0406128271484375,1.1331964306640625
-0.36585033203125,0.0397768017578125,1.177680185546875
-0.29485212890625,-0.01095689697265625,1.1427813281249999
-0.33570041015625,0.02041466552734375,1.06315294921875
-0.2172890234375,-0.06267095703125,0.9749227392578125
-0.21072412109375,-0.08595453857421875,0.915201455078125
-0.20002576171875,0.0397768017578125,0.908319990234375
-0.16160892578125,0.09443194580078125,0.91569298828125
-0.18227621093750002,-0.05213207275390625,0.914218388671875
-0.16890326171875,0.0069346972656249995,1.0398051220703124
-0.14021220703125,-0.07713128662109375,1.1484339599609374
-0.27248283203125,-0.053847705078125,1.217494375
-0.27199654296875,-0.02713285888671875,1.064136015625
-0.24427806640625,-0.03399538818359375,0.855234404296875
-0.19759431640625,0.0221302978515625,0.755944697265625
-0.28804408203125,0.056933125,0.70728291015625
-0.28561263671875,0.04590406005859375,0.7006472119140625
-0.19953947265625,0.053992041015625,0.6569007568359375
-0.17327986328125,0.0373258984375,0.6721382861328125
-0.203186640625,0.03266918212890625,0.8584293701171875
-0.21655958984375,0.08266760986328126,1.0260421923828125
-0.187625390625,0.02752228515625,1.0560257177734376
-0.2668905078125,0.0829127001953125,1.1199250341796876
-0.2561921484375,0.0030132519531249997,1.131476064453125
-0.2464663671875,0.023845930175781252,1.009575830078125
-0.279047734375,0.04198261474609375,0.8741584326171875
-0.1326747265625,0.02531647216796875,0.868997333984375
-0.2416034765625,-0.042083369140625,0.832623876953125
-0.26470220703125,-0.08791526123046875,0.9026673583984375
-0.1866528125,-0.03350520751953125,0.858183603515625
-0.27613,-0.05654369873046875,0.8363103759765624
-0.1725504296875,0.0064445166015625,0.922082919921875
-0.15869119140625,-0.07566074462890625,0.954032578125
-0.237226875,-0.0006631030273437505,1.0267794921875
-0.18859796875,-0.0141430712890625,1.06806828125
-0.18543708984375,-0.0219859619140625,1.0865007763671874
-0.2017277734375,-0.0347306591796875,1.066593681640625
-0.15577345703125,0.0142874072265625,1.0973145068359376
-0.19613544921875,0.021885207519531248,1.1390948291015626
-0.327676640625,0.0008074389648437498,1.10247560546875
-0.22361078125,0.01453249755859375,1.0592206835937499
-0.29339326171875,0.00521906494140625,0.9867195361328125
-0.16720125,0.024581201171875,1.000728232421875
-0.21072412109375,0.0270321044921875,0.9242948193359375
-0.2630001953125,-0.00703545166015625,0.9149556884765625
-0.214857578125,-0.03105430419921875,0.926998251953125
-0.2163164453125,-0.03644629150390625,0.92945591796875
-0.2892598046875,-0.0038492773437499997,1.03366095703125
-0.32889236328125,-0.1317864306640625,1.0078554638671875
-0.19613544921875,-0.05360261474609375,1.0240760595703124
-0.27053767578125,-0.06438658935546875,0.8402426416015625
-0.22385392578125,-0.05458297607421875,0.71711357421875
-0.12805498046875,-0.03840701416015625,0.7114609423828124
-0.18154677734375,-0.06046514404296875,0.8279543115234375
-0.24962724609375,0.004973974609375,1.04939001953125
-0.31576255859375,-0.050661530761718754,1.132459130859375
-0.28391062499999997,0.01845394287109375,1.0378389892578126
-0.21899103515625,0.01992448486328125,0.9159387548828125
-0.18689595703125,0.02237538818359375,0.9070911572265625
-0.21607330078125,0.0397768017578125,0.98647376953125
-0.26956509765625,0.046149150390625,1.0058893310546875
-0.2464663671875,0.0231106591796875,0.92650671875
-0.23892888671875,0.02286556884765625,0.8380307421875
-0.2722396875,0.07384435791015626,0.7829790234375
-0.18349193359375,0.030708459472656248,0.725961171875
-0.1667149609375,0.0731090869140625,0.7094948095703125
-0.17376615234375,0.1103628173828125,0.84294607421875
-0.23941517578125,-0.02517213623046875,0.9331424169921875
-0.3057936328125,0.085363603515625,0.993355234375
-0.3033621875,0.05889384765625,0.96877857421875
-0.175954453125,-0.02321141357421875,0.94715111328125
-0.22482650390625,-0.0006631030273437505,0.9262609521484375
-0.21218298828125,-0.051886982421875,0.9818042041015624
-0.26251390625,-0.0974737841796875,0.959439443359375
-0.29339326171875,-0.068553125,0.9080742236328125
-0.18981369140625,-0.09330724853515625,0.8844806298828125
-0.23819945312500002,-0.10727739746093751,0.8537598046875
-0.18884111328125,-0.05311243408203125,0.9842618701171875
-0.26227076171875,-0.11561046875,0.9547698779296875
-0.25254498046875,-0.1013952294921875,0.944693447265625
-0.230418828125,-0.02272123291015625,0.88226873046875
-0.175954453125,-0.05311243408203125,0.8726838330078125
-0.23917203125,-0.0141430712890625,0.934862783203125
-0.24962724609375,-0.03522083984375,1.0228472265625
-0.2610550390625,-0.0317895751953125,1.0722463134765625
-0.3009307421875,0.01649322021484375,1.0609410498046874
-0.2873146484375,-0.0004180126953125,0.9990078662109375
-0.2133987109375,-0.03987755615234375,0.9127437890625
-0.21801845703125,-0.0180645166015625,0.93732044921875
-0.1988100390625,-0.0016434643554687498,1.028254091796875
-0.24816837890625,-0.0254172265625,1.0255506591796875
-0.29485212890625,-0.013407800292968751,0.9992536328125
-0.20804953125,-0.030319033203124998,1.0174403613281249
-0.2279873828125,-0.04477936279296875,0.9818042041015624
-0.2513292578125,-0.075415654296875,1.0110504296875
-0.277102578125,-0.04306373046875,0.9970417333984375
-0.2411171875,-0.038161923828125,0.9056165576171875
-0.23212083984375,-0.09624833251953124,0.8422087744140625
-0.20051205078125,-0.1665892578125,0.8225474462890625
-0.18106048828125,-0.05090662109375,0.947642646484375
-0.27272597656249997,-0.1587463671875,0.88816712890625
-0.23066197265625,-0.05458297607421875,0.8989808593749999
-0.125380390625,-0.01291761962890625,0.8441749072265625
-0.28658521484375,-0.09281706787109376,0.8783364648437499
-0.1404553515625,0.021885207519531248,1.0324321240234375
-0.259596171875,-0.02958376220703125,0.98843990234375
-0.236254296875,-0.04968116943359375,0.92945591796875
-0.2231244921875,-0.0406128271484375,0.8608870361328125
-0.24306234375,-0.02737794921875,0.89209939453125
-0.18738224609375,0.05570767333984375,0.84687833984375
-0.13875333984375,0.01159141357421875,0.8574463037109374
-0.07796720703125,0.0829127001953125,1.016948828125
-0.2299325390625,0.06845237060546874,1.13393373046875
-0.22190876953125,-0.06585713134765625,1.2044687451171874
-0.28269490234375,0.015022678222656249,1.202256845703125
-0.29485212890625,0.01747358154296875,1.1027213720703124
-0.34421046875,-0.130315888671875,0.9921264013671875
-0.2503566796875,-0.0219859619140625,1.040542421875
-0.28634207031250003,-0.05752406005859375,0.9641090087890625
-0.17717017578125,0.0201695751953125,0.942727314453125
-0.07869664062500001,-0.0200252392578125,0.9439561474609375
-0.1477496875,-0.1513936572265625,0.9191337207031249
-0.1647698046875,-0.083258544921875,0.9972875
-0.2022140625,-0.068553125,1.0830600439453124
-0.24379177734375002,-0.10605194580078126,1.0442289208984374
-0.29144810546875,-0.08227818359375,1.02776255859375
-0.2367405859375,-0.1327667919921875,1.046932353515625
-0.3145468359375,-0.21340151123046874,0.9906518017578125
-0.28074974609375003,-0.06536695068359374,0.9985163330078125
-0.33375525390625,-0.09624833251953124,0.9552614111328125
-0.28658521484375,-0.0337502978515625,0.9088115234375
-0.271267109375,-0.00360418701171875,0.880794130859375
-0.13048642578125,-0.09379742919921875,0.8348357763671875
-0.06191966796875,-0.07443529296875,0.827708544921875
-0.07845349609375,-0.06659240234375,0.98450763671875
-0.18932740234375,-0.107767578125,1.096085673828125
-0.3515048046875,0.01306195556640625,1.2226554736328126
-0.33083751953125,0.04982550537109375,1.18898544921875
-0.41642439453125,-0.0631611376953125,1.02776255859375
-0.330594375,-0.01389798095703125,0.9365831494140625
-0.2153438671875,-0.016593974609375,0.976151572265625
-0.29582470703125,-0.00581,1.0184234277343749
-0.3262177734375,-0.034240478515625,1.0412797216796874
-0.2299325390625,-0.0239466845703125,0.9754142724609375
-0.25740787109375,0.0613447509765625,0.8557259375
-0.1414279296875,-0.0028689160156250004,0.8436833740234375
-0.19321771484375,-0.0960032421875,0.824759345703125
-0.13194529296875,0.08266760986328126,0.962388642578125
-0.18640966796875,-0.09624833251953124,0.9835245703125
-0.18592337890625,-0.0190448779296875,1.08478041015625
-0.26907880859375,0.0417375244140625,1.0501273193359375
-0.29387955078125,0.02972809814453125,1.02186416015625
-0.349073359375,-0.0028689160156250004,0.98647376953125
-0.27029453125,0.01208159423828125,0.9370746826171875
-0.31722142578125,0.04541387939453125,0.9282270849609375
-0.39843169921875,0.057668395996093746,0.8117337158203125
-0.1521262890625,0.01649322021484375,0.708757509765625
-0.057299921875,-0.00581,0.686638515625
-0.1083602734375,-0.03914228515625,0.7846993896484376
-0.002835546875000001,0.00791505859375,0.97860923828125
-0.25740787109375,-0.0906112548828125,1.154086591796875
-0.29485212890625,-0.040122646484374996,1.223884306640625
-0.2153438671875,-0.09722869384765626,1.135408330078125
-0.2736985546875,0.05619785400390625,1.11230626953125
-0.2532744140625,-0.08423890625,1.0865007763671874
-0.3320532421875,-0.0016434643554687498,1.0174403613281249
-0.29096181640625,0.00423870361328125,0.909303056640625
-0.27880458984375,-0.09085634521484375,0.83114927734375
-0.2036729296875,-0.068553125,0.881777197265625
-0.1248941015625,-0.19845100097656249,0.9680412744140625
-0.10106593750000001,-0.24232217041015625,1.04152548828125
-0.1399690625,-0.206784072265625,1.1076367041015625
-0.175954453125,-0.12418863037109375,1.1666206884765624
-0.19953947265625,-0.028358310546875,1.144255927734375
-0.33083751953125,0.1152646240234375,1.1140266357421875
-0.32597462890625,0.06257020263671875,1.089204208984375
-0.25205869140625,0.008405239257812499,1.0850261767578124
-0.3408064453125,0.00423870361328125,1.0314490576171875
-0.17522501953125,0.0486000537109375,0.9429730810546875
-0.1910294140625,-0.0023787353515625003,0.82721701171875
-0.13389044921874999,0.00325834228515625,0.8328696435546875
-0.14750654296875,0.028502646484374998,0.9493630126953125
-0.2333365625,-0.07566074462890625,1.1066536376953124
-0.2474389453125,-0.0016434643554687498,1.1671122216796874
-0.253760703125,-0.14036459228515624,1.015474228515625
-0.154557734375,-0.06438658935546875,0.961897109375
-0.15236943359375,-0.01683906494140625,0.914218388671875
-0.22725794921875,0.0064445166015625,0.970253173828125
-0.341292734375,0.0486000537109375,1.033169423828125
-0.2411171875,0.099088662109375,1.0801108447265624
-0.14021220703125,0.0731090869140625,0.9842618701171875
-0.21169669921875,-0.04772044677734375,0.99827056640625
-0.13923962890625,-0.029338671875,1.14671359375
-0.3028758984375,-0.10556176513671875,1.1169758349609376
-0.31235853515625,-0.13938423095703126,1.0963314404296876
-0.316005703125,-0.06634731201171876,0.968287041015625
-0.14167107421875,-0.089140712890625,0.853268271484375
-0.13875333984375,-0.12712971435546874,0.7429190673828125
-0.181789921875,0.023845930175781252,0.8358188427734374
-0.20877896484375,-0.00262382568359375,0.8446664404296875
-0.3126016796875,-0.02076051025390625,0.8987350927734374
-0.207076953125,0.02531647216796875,1.016948828125
-0.2450075,-0.03546593017578125,1.020389560546875
-0.1803310546875,0.0231106591796875,1.0407881884765624
-0.26810623046875,-0.01830960693359375,1.042017021484375
-0.1920019921875,0.04786478271484375,1.0638902490234374
-0.27491427734375,-0.08742508056640624,1.00613509765625
-0.314060546875,-0.06683749267578125,1.0073639306640625
-0.09595990234375,0.0476196923828125,0.9744312060546875
-0.27053767578125,-0.14918784423828124,0.89799779296875
-0.25692158203125,-0.0700236669921875,0.975168505859375
-0.08623412109375,-0.00581,1.04545775390625
-0.29752671875000003,-0.045024453125,0.9773804052734375
-0.21655958984375,-0.010221625976562499,0.9891772021484375
-0.1949197265625,0.0255615625,1.032677890625
-0.2445212109375,-0.01046671630859375,1.0053977978515625
-0.2834243359375,-0.01978014892578125,0.9552614111328125
-0.24719580078125,0.02727719482421875,0.971236240234375
-0.206104375,-0.10409122314453124,0.9120064892578125
-0.2143712890625,-0.04698517578125,0.8603955029296875
-0.18300564453125,-0.02468195556640625,0.9036504248046875
-0.174009296875,-0.03497574951171875,0.941744248046875
-0.3009307421875,-0.049926259765625,0.9582106103515625
-0.14507509765624998,0.010611052246093749,1.0071181640625
-0.24914095703125,-0.046004814453125,0.921099853515625
-0.2488978125,-0.052867343750000004,1.022355693359375
-0.24695265625,0.02752228515625,1.005643564453125
-0.2411171875,-0.0415931884765625,0.9326508837890625
-0.1443456640625,-0.0376717431640625,0.833606943359375
-0.32500205078125,-0.081297822265625,0.832623876953125
-0.12659611328125,0.08413815185546875,0.912252255859375
-0.27491427734375,-0.09575815185546875,0.80558955078125
-0.2289599609375,-0.00654527099609375,0.938303515625
-0.18543708984375,0.0848734228515625,0.9872110693359375
-0.17425244140625,-0.03129939453125,0.9999909326171875
-0.127325546875,-0.05850442138671875,1.024813359375
-0.21704587890625,-0.01953505859375,1.0592206835937499
-0.18470765625,0.02923791748046875,1.1086197705078125
-0.2357680078125,-0.06659240234375,1.010558896484375
-0.13000013671875,-0.0945327001953125,0.9321593505859375
-0.174009296875,-0.09869923583984375,0.9552614111328125
-0.218747890625,-0.1406096826171875,0.9729566064453125
-0.1939471484375,-0.0411030078125,0.9088115234375
-0.20488865234375,0.030708459472656248,0.9424815478515625
-0.15747546875,0.02727719482421875,0.9867195361328125
-0.11978806640625,0.06992291259765625,0.94715111328125
-0.09352845703125,-0.05801424072265625,0.9700074072265625
-0.06240595703125,-0.0097314453125,1.091170341796875
-0.100093359375,-0.0494360791015625,1.0835515771484374
-0.30360533203125,-0.13007079833984375,1.0289913916015625
-0.17619759765625,-0.010711806640625,0.9911433349609375
-0.2581373046875,-0.07271966064453125,0.8854636962890625
-0.23503857421875,-0.053847705078125,0.88620099609375
-0.159420625,-0.00262382568359375,0.9115149560546875
-0.1579617578125,-0.03154448486328125,0.9336339501953125
-0.14264365234375,-0.0778665576171875,0.94223578125
-0.060947089843749996,0.071638544921875,1.035135556640625
-0.16112263671875,-0.08007237060546875,0.9454307470703125
-0.18154677734375,-0.02664267822265625,1.01399962890625
-0.07261802734375,0.08634396484375,1.0889584423828125
-0.24281919921875,-0.08301345458984374,1.09952640625
-0.20732009765625,0.0309535498046875,1.15359505859375
-0.15577345703125,-0.06389640869140625,1.0324321240234375
-0.13486302734375,-0.03129939453125,0.970253173828125
-0.19321771484375,-0.00507472900390625,0.929947451171875
-0.2085358203125,-0.07615092529296875,0.9577190771484375
-0.07310431640625001,0.05031568603515625,0.9813126708984374
-0.23819945312500002,-0.076396015625,0.9837703369140625
-0.0996070703125,-0.1102184814453125,1.115747001953125
-0.1628246484375,-0.0513968017578125,1.08084814453125
-0.12854126953125,-0.03938737548828125,1.0329236572265625
-0.1385101953125,-0.09575815185546875,0.973202373046875
-0.1414279296875,-0.04330882080078125,0.9992536328125
-0.140941640625,-0.0016434643554687498,1.13000146484375
-0.190543125,-0.13938423095703126,1.1125520361328125
-0.13607875,-0.0562986083984375,1.058729150390625
-0.22288134765625,-0.10850284912109374,0.9690243408203125
-0.14167107421875,-0.05115171142578125,0.977626171875
-0.1599069140625,-0.013652890625,0.873912666015625
-0.06751199218750001,-0.0055649096679687505,1.000728232421875
-0.16185207031249998,-0.0415931884765625,1.0329236572265625
-0.0801555078125,-0.081297822265625,1.0216183935546874
-0.1735230078125,-0.171491064453125,0.99237216796875
-0.09304216796875,-0.013652890625,1.0299744580078125
-0.0363894921875,-0.03840701416015625,1.030220224609375
-0.18640966796875,-0.10654212646484375,1.134425263671875
-0.28026345703125,0.0495804150390625,1.2324861376953125
-0.26056875,-0.00850599365234375,1.069542880859375
-0.2386857421875,0.0231106591796875,1.036118623046875
-0.148722265625,0.0922261328125,0.9587021435546875
-0.1064151171875,-0.014633251953124999,0.89996392578125
-0.065080546875,0.04786478271484375,0.9449392138671875
-0.07942607421875,-0.01169216796875,0.9542783447265625
-0.0966893359375,-0.04085791748046875,1.051847685546875
-0.22823052734375,-0.03742665283203125,1.170798720703125
-0.20415921875,-0.1141399267578125,1.1513831591796875
-0.09425789062500001,0.02727719482421875,1.0818312109375
-0.2099946875,-0.1298257080078125,0.9906518017578125
-0.166228671875,-0.0817880029296875,0.953541044921875
-0.14993798828125,-0.095022880859375,0.8771076318359375
-0.14896541015625,-0.0082609033203125,0.897506259765625
-0.1501811328125,-0.04526954345703125,0.9341254833984375
-0.10763083984374999,-0.0857094482421875,1.1671122216796874
-0.162338359375,-0.09771887451171875,1.2536220654296875
-0.185680234375,-0.07713128662109375,1.16342572265625
-0.08355953125,-0.07615092529296875,1.067576748046875
-0.21850474609375,-0.04723026611328125,0.9763973388671875
-0.011588750000000002,-0.03938737548828125,0.9459222802734375
-0.111764296875,-0.15654055419921875,0.9007012255859375
-0.18446451171875,-0.0190448779296875,1.0584833837890626
-0.12951384765625001,-0.01389798095703125,1.06315294921875
-0.148722265625,-0.03056412353515625,0.973202373046875
-0.16525609375,0.0721287255859375,0.9196252539062499
-0.008184726562500001,0.00619942626953125,0.9857364697265625
-0.21121041015625,-0.11536537841796875,1.0751955126953125
-0.23892888671875,-0.0749254736328125,1.148188193359375
-0.16306779296875,-0.1116890234375,1.007609697265625
-0.10422681640625,-0.038161923828125,0.922082919921875
-0.14264365234375,-0.06389640869140625,0.9739396728515625
-0.08672041015625,-0.048945898437499996,1.0737209130859375
-0.11200744140625,-0.0435539111328125,1.1415524951171876
-0.17133470703125,0.1368325732421875,1.212087509765625
-0.25643529296875,-0.06267095703125,1.057746083984375
-0.11978806640625,-0.0023787353515625003,1.038084755859375
-0.09985021484375001,0.0010525292968750002,1.0889584423828125
-0.2435486328125,-0.14894275390625,0.9164302880859375
-0.09085386718749999,-0.09526797119140624,0.771673759765625
-0.02715,-0.13938423095703126,0.784453623046875
-0.02009880859375,-0.02664267822265625,0.9331424169921875
-0.1141957421875,-0.01169216796875,1.1150097021484375
-0.2143712890625,-0.02272123291015625,1.2899955224609374
-0.22434021484375,-0.02468195556640625,1.2260962060546876
-0.29436583984375,-0.04134809814453125,0.9975332666015625
-0.09595990234375,-0.01169216796875,0.7915808544921875
-0.0266637109375,-0.1308060693359375,0.624213798828125
0.0287732421875,-0.14183513427734376,0.74267330078125
-0.05073501953125,-0.0415931884765625,0.9940925341796875
-0.115654609375,-0.0768861962890625,1.1469593603515624
-0.09450103515625,-0.06536695068359374,1.25583396484375
-0.14799283203125,0.06698182861328125,1.2403506689453125
-0.220693046875,-0.042328459472656246,1.0678225146484375
-0.1166271875,0.05570767333984375,1.0830600439453124
-0.13024328125,0.06011929931640625,1.0427543212890624
-0.16987583984375,-0.112669384765625,0.98942296875
-0.09985021484375001,-0.0175743359375,1.001711298828125
-0.10276794921875,-0.02909358154296875,0.994829833984375
-0.1482359765625,-0.04379900146484375,1.0653648486328124
-0.1424005078125,-0.02174087158203125,1.038084755859375
-0.1375376171875,0.019434304199218752,1.0978060400390626
-0.16914640625,0.05031568603515625,1.136391396484375
-0.1424005078125,-0.02713285888671875,1.0388220556640624
-0.16136578125,-0.10213050048828125,0.958456376953125
-0.13875333984375,-0.17712814208984376,0.9473968798828125
0.0112668359375,-0.13791368896484374,0.9385492822265625
-0.0295814453125,-0.1415900439453125,1.094119541015625
-0.28123603515625,-0.244037802734375,1.1562984912109375
-0.22361078125,-0.15801109619140624,1.0751955126953125
-0.2644590625,-0.068553125,0.8834975634765625
-0.18495080078125,-0.03105430419921875,0.7357918359375
-0.04465640625,0.0691876416015625,0.6878673486328125
0.001784199218750001,0.0780108935546875,0.7928096875
0.02658494140625,-0.00311400634765625,0.991880634765625
-0.092312734375,0.0064445166015625,1.2531305322265625
-0.0388209375,-0.07370002197265625,1.36692046875
-0.247925234375,-0.0268877685546875,1.36692046875
-0.2153438671875,-0.089140712890625,1.1872650830078124
-0.11225058593750001,-0.015368522949218751,1.106899404296875
-0.3651208984375,-0.07026875732421875,1.0417712548828124
-0.16914640625,-0.13595296630859374,1.0049062646484375
-0.1827625,-0.15948163818359376,0.869980400390625
-0.080641796875,-0.08105273193359375,0.793301220703125
-0.010616171875,-0.1111988427734375,0.76823302734375
-0.0111024609375,-0.16585398681640626,0.719571240234375
0.01369828125,-0.07370002197265625,0.727435771484375
-0.11225058593750001,-0.006790361328125,0.88030259765625
-0.10495625,-0.01953505859375,1.06806828125
-0.12027435546875,0.03953171142578125,1.18603625
-0.11468203125,0.08854977783203125,1.1762055859375
-0.050491875000000006,0.03168882080078125,1.072492080078125
-0.1715778515625,-0.03399538818359375,1.04545775390625
-0.29874244140625,0.008405239257812499,0.9788550048828125
-0.2202067578125,-0.03987755615234375,0.9562444775390625
-0.1910294140625,-0.1435507666015625,0.7817501904296875
-0.049519296875,-0.05409279541015625,0.704825244140625
0.0667037890625,0.0152677685546875,0.8854636962890625
-0.030067734375000002,-0.10458140380859375,1.0132623291015626
-0.0247185546875,0.01698340087890625,1.2157740087890625
-0.0937716015625,0.0495804150390625,1.37183580078125
-0.1657423828125,0.0020328906249999995,1.396903994140625
-0.237226875,0.0593840283203125,1.1956211474609375
-0.25351755859375,-0.11732610107421874,1.037101689453125
-0.15188314453125001,-0.1396293212890625,0.9508376123046876
-0.041495527343750005,-0.1278649853515625,0.8820229638671875
-0.2095083984375,-0.2170778662109375,0.9002096923828125
-0.13729447265625,-0.204823349609375,0.8377849755859375
-0.061676523437500005,-0.1053166748046875,0.8441749072265625
-0.06580998046875,-0.02223105224609375,0.9262609521484375
-0.18543708984375,-0.0043394580078125,1.050864619140625
-0.06191966796875,0.0054641552734375,1.073475146484375
-0.0006472460937500014,-0.03840701416015625,0.936828916015625
0.071080390625,-0.15997181884765624,0.9601767431640625
0.07910416015624999,-0.14722712158203125,1.153103525390625
-0.0310403125,-0.1759026904296875,1.35414060546875
-0.3184371484375,-0.08497417724609375,1.292698955078125
-0.38821962890625,-0.0210056005859375,1.1877566162109374
-0.1735230078125,-0.0072805419921875,1.050864619140625
-0.19662173828125,-0.10188541015625,0.98450763671875
-0.15358515625,-0.03644629150390625,1.0865007763671874
-0.33472783203125,-0.14869766357421876,0.9621428759765625
-0.06775513671875,0.04712951171875,0.7694618603515625
-0.005753281249999999,-0.04723026611328125,0.6709094531249999
0.06354291015625,-0.0739451123046875,0.704825244140625
0.076915859375,-0.155805283203125,0.8891501953125
0.05576228515625,-0.27957590087890627,1.214053642578125
-0.04684470703125,-0.14428603759765624,1.416565322265625
-0.24768208984375,-0.1474722119140625,1.3873190966796876
-0.2454937890625,-0.07615092529296875,1.115747001953125
-0.3019033203125,0.00325834228515625,0.930930517578125
-0.26421591796875,0.0809519775390625,0.9075826904296875
-0.16185207031249998,0.1505576318359375,1.0019570654296874
-0.1608794921875,0.03315936279296875,1.06020375
-0.14215736328125,0.0319339111328125,1.0963314404296876
-0.17376615234375,-0.0631611376953125,0.9301932177734376
-0.0159653515625,-0.0680629443359375,0.787402822265625
0.04846794921875,-0.0876701708984375,0.7434106005859376
0.040201035156249995,-0.1043363134765625,0.91765912109375
0.059166308593749994,-0.11144393310546875,1.1966042138671875
-0.05219388671875,-0.0523771630859375,1.465718642578125
-0.3271903515625,0.011346323242187501,1.5298637255859375
-0.42955419921875,-0.02860340087890625,1.3548779052734374
-0.19637859375,0.01649322021484375,1.0673309814453125
-0.26324333984375,-0.018554697265625,0.86850580078125
-0.222638203125,-0.012427438964843749,0.915201455078125
-0.1385101953125,-0.083258544921875,0.9129895556640625
-0.09523046875,-0.029338671875,0.8952943603515625
-0.01620849609375,-0.09477779052734375,0.9410069482421874
-0.02058509765625,-0.16830489013671876,0.9324051171875
0.0598957421875,-0.11634573974609375,0.9284728515625
-0.028122578125000002,-0.23644000244140626,0.9321593505859375
-0.10714455078125,-0.25947849365234377,0.9085657568359375
-0.0500055859375,-0.25947849365234377,0.8105048828125
-0.11857234375,-0.16487362548828124,0.8525309716796875
-0.13413359375,-0.15261910888671876,0.8294289111328125
-0.08817927734375,-0.16340308349609375,0.8200897802734375
-0.19127255859375,-0.08889562255859375,0.9567360107421875
-0.18835482421875,-0.0249270458984375,1.07101748046875
-0.10106593750000001,-0.00654527099609375,1.0142453955078126
-0.05365275390625,0.0201695751953125,0.9287186181640625
-0.049762441406249996,-0.07051384765625,0.871455
-0.0363894921875,-0.0964934228515625,0.8810398974609375
-0.022773398437500002,-0.11634573974609375,0.800182685546875
0.03631072265625,-0.12860025634765626,0.7613515625
0.1046343359375,-0.035711020507812496,0.969270107421875
0.021965195312499998,-0.05360261474609375,1.220935107421875
-0.19613544921875,-0.16340308349609375,1.2880293896484374
-0.08988128906250001,-0.0317895751953125,1.198324580078125
-0.074806328125,-0.09232688720703125,1.0437373876953124
-0.1793584765625,-0.1092381201171875,1.0280083251953125
-0.23601115234375,-0.0906112548828125,1.099034873046875
-0.2386857421875,-0.07271966064453125,1.1388490625
-0.191515703125,0.03757098876953125,1.120662333984375
-0.02520484375,-0.07958218994140626,0.9159387548828125
0.021965195312499998,-0.09918941650390625,0.893573994140625
-0.004051269531250002,-0.124433720703125,0.951574912109375
-0.02155767578125,-0.15016820556640625,1.064136015625
-0.0461152734375,-0.11879664306640625,1.232731904296875
-0.13145900390625,-0.08497417724609375,1.3091653173828126
0.03339298828125,-0.06291604736328126,1.2187232080078125
-0.050491875000000006,-0.07173929931640625,1.1425355615234376
-0.1608794921875,-0.02762303955078125,1.2723003271484374
-0.214857578125,0.07384435791015626,1.31481794921875
-0.37898013671874997,0.0044837939453125,1.32268248046875
-0.35661083984374997,-0.07517056396484376,1.1892312158203124
-0.2095083984375,-0.09134652587890625,1.072492080078125
-0.1200312109375,-0.25604722900390625,0.9442019140625
-0.0232596875,-0.308741650390625,0.8274627783203125
0.01929060546875,-0.18055940673828125,0.7586481298828125
0.06354291015625,-0.13154134033203124,0.8458952734375
0.0676763671875,-0.14698203125,1.1150097021484375
-0.138996484375,-0.1239435400390625,1.3686408349609376
-0.22531279296875,-0.0827683642578125,1.465718642578125
-0.26567478515625,-0.0827683642578125,1.355123671875
-0.3072525,-0.046004814453125,1.0592206835937499
-0.2202067578125,-0.1876670263671875,0.7942842871093749
-0.13194529296875,-0.29134023681640625,0.7792925244140625
-0.1073876953125,-0.2170778662109375,0.853268271484375
-0.13583560546875,-0.2629097583007812,0.8741584326171875
-0.11638404296875,-0.2611941259765625,0.9537868115234375
0.029259531249999998,-0.08423890625,1.0186691943359376
0.00956482421875,-0.1543347412109375,1.0520934521484375
-0.0996070703125,-0.169530341796875,1.215036708984375
-0.18495080078125,-0.067572763671875,1.1076367041015625
-0.21412814453125,-0.1425704052734375,0.8530225048828125
-0.11492517578125,-0.05997496337890625,0.7689703271484375
-0.1881116796875,-0.089140712890625,0.6234764990234375
-0.09012443359375,-0.0935523388671875,0.636993662109375
0.03776958984375,-0.076396015625,0.8537598046875
-0.11881548828124999,-0.0028689160156250004,0.9665666748046875
-0.12367837890625,0.10227483642578125,1.042017021484375
-0.175954453125,-0.00777072265625,1.18308705078125
-0.17911533203125,0.06453092529296875,1.1710444873046875
-0.103983671875,0.05668803466796875,1.001219765625
-0.007455292968749999,0.0515411376953125,0.891607861328125
-0.0016198242187499996,0.05497240234375,0.8830060302734375
0.0812924609375,-0.04698517578125,0.937811982421875
-0.0723748828125,-0.04919098876953125,1.0363643896484376
-0.14410251953125,-0.08644471923828125,1.0314490576171875
-0.160393203125,-0.13546278564453124,0.902421591796875
-0.1783858984375,-0.12541408203125,0.8721922998046875
-0.13024328125,-0.163648173828125,0.834590009765625
-0.05900193359375,-0.1641383544921875,0.8874298291015625
-0.004294414062500002,-0.07860182861328124,1.01989802734375
-0.13291787109375,-0.17075579345703126,1.00515203125
0.035095,-0.08693489990234375,1.0398051220703124
-0.06435111328125,-0.09330724853515625,1.050864619140625
-0.00016095703124999888,0.01796376220703125,1.1518746923828125
-0.01426333984375,-0.09845414550781251,1.1562984912109375
-0.1453182421875,-0.0259074072265625,1.2546051318359375
-0.16501294921875,-0.05801424072265625,1.182595517578125
-0.03298546875,-0.18938265869140625,1.166374921875
-0.0179105078125,-0.2425672607421875,1.2270792724609374
-0.257651015625,-0.261684306640625,1.1919346484375
-0.11978806640625,-0.27957590087890627,1.00416896484375
0.004458789062499999,-0.2957518627929687,0.8481071728515625
-0.16647181640625,-0.2533512353515625,0.864082001953125
-0.0388209375,-0.28006608154296875,0.9631259423828125
-0.008184726562500001,-0.21634259521484375,1.17129025390625
-0.17425244140625,-0.04379900146484375,1.277952958984375
-0.1433730859375,-0.0455146337890625,1.0604495166015624
-0.09693248046875,-0.1195319140625,1.038084755859375
-0.04100923828125,0.04492369873046875,1.0978060400390626
-0.113709453125,0.10276501708984374,1.0791277783203126
-0.026420566406250002,0.10423555908203125,1.064627548828125
-0.05170759765625,0.02360083984375,1.0137538623046876
-0.1171134765625,-0.03203466552734375,0.9429730810546875
-0.03760521484375,-0.08203309326171875,0.977134638671875
-0.13826705078125,-0.085219267578125,1.1172216015625
-0.11784291015625001,-0.0317895751953125,1.154578125
-0.10519939453125,-0.126394443359375,1.0624156494140624
-0.13024328125,-0.16928525146484374,1.02186416015625
-0.15042427734375,-0.1435507666015625,1.0742124462890625
-0.041495527343750005,-0.0700236669921875,1.1840701171874999
-0.016937929687500002,-0.08693489990234375,1.2295369384765624
-0.12902755859375,-0.136198056640625,1.159001923828125
-0.12635296875,-0.0945327001953125,0.9985163330078125
-0.12805498046875,-0.042083369140625,0.938303515625
-0.10082279296875,-0.16928525146484374,0.823776279296875
-0.031769746093749995,-0.0680629443359375,0.84491220703125
0.04457763671875,-0.0121823486328125,0.9680412744140625
-0.0699434375,-0.04772044677734375,1.072492080078125
-0.09061072265625,-0.0018885546875000003,1.169815654296875
-0.1180860546875,-0.0602200537109375,1.0663479150390625
-0.096203046875,-0.046004814453125,0.97074470703125
-0.02496169921875,0.042227705078125,1.0058893310546875
-0.07213173828125,-0.128355166015625,1.0899415087890625
-0.15188314453125001,-0.08252327392578125,1.151137392578125
-0.183735078125,-0.14281549560546875,1.1100943701171875
-0.0850183984375,-0.0724745703125,0.9675497412109375
-0.11249373046875,-0.2013920849609375,0.7829790234375
-0.04198181640625,-0.15605037353515624,0.83213234375
-0.06629626953125001,-0.12075736572265625,0.9478884130859375
-0.13024328125,-0.2611941259765625,0.981066904296875
-0.0587587890625,-0.17026561279296876,0.9601767431640625
0.00810595703125,-0.2876638818359375,0.92945591796875
-0.07796720703125,-0.2886442431640625,0.9346170166015625
-0.03225603515625,-0.1651187158203125,1.028254091796875
-0.0451426953125,-0.12418863037109375,1.13196759765625
-0.0035649804687499995,-0.1660990771484375,1.194392314453125
-0.059245078125,-0.1587463671875,1.3145721826171874
-0.06386482421875,-0.16144236083984376,1.3381657763671875
0.008592246093749999,-0.1665892578125,1.3317758447265624
-0.07261802734375,-0.140119501953125,1.3312843115234374
-0.10179537109375,-0.11830646240234374,1.3008092529296875
-0.18786853515625002,-0.17810850341796874,1.25386783203125
-0.23114826171875,-0.093062158203125,1.26959689453125
-0.2177753125,-0.2058037109375,1.0923991748046875
-0.09790505859375,-0.14869766357421876,0.9744312060546875
-0.14191421875,-0.20261753662109375,0.8422087744140625
-0.10908970703125,-0.26977228759765626,0.7802755908203125
-0.034930625,-0.1822750390625,0.7419360009765625
