ax,ay,az
-0.35126166015625,0.03928662109375,0.958456376953125
-0.39210994140625,0.03757098876953125,0.9508376123046876
-0.3767918359375,0.03413972412109375,0.921099853515625
-0.39210994140625,0.03144373046875,0.9262609521484375
-0.39867484375,0.03217900146484375,0.9513291455078126
-0.41107521484375,0.04443351806640625,0.93338818359375
-0.38432931640625,0.0378160791015625,0.9129895556640625
-0.38700390625000003,0.028502646484374998,0.903404658203125
-0.38384302734375,0.0574233056640625,0.9191337207031249
-0.40378087890625003,0.00791505859375,0.9498545458984375
-0.44462916015625,0.03855135009765625,0.966320908203125
-0.39210994140625,0.05497240234375,0.94911724609375
-0.40232201171875,0.0584036669921875,0.979100771484375
-0.4122909375,0.05962911865234375,0.9975332666015625
-0.40475345703125,0.052031318359375,1.013508095703125
-0.4030514453125,0.061834931640625,1.0240760595703124
-0.38578818359375,0.028502646484374998,0.9646005419921875
-0.41545181640625,0.034384814453125,0.9179048876953125
-0.37922328125,0.028502646484374998,0.9284728515625
-0.39478453125,0.02678701416015625,0.9139726220703125
-0.41107521484375,0.02237538818359375,0.94715111328125
-0.4137498046875,0.040266982421875,0.956490244140625
-0.386031328125,0.04737460205078125,0.9419900146484375
-0.3602580078125,0.04100225341796875,0.9360916162109375
-0.3904079296875,0.010611052246093749,0.9395323486328125
-0.4020788671875,0.04835496337890625,0.9813126708984374
-0.40572603515625,0.0005623486328125002,0.922082919921875
-0.4263933203125,0.0505607763671875,0.892590927734375
-0.40475345703125,0.04492369873046875,0.8707177001953125
-0.42566388671875,0.015022678222656249,0.930438984375
-0.408400625,0.05717821533203125,0.980083837890625
-0.3933256640625,0.04002189208984375,0.9080742236328125
-0.39843169921875,0.06158984130859375,0.9065996240234375
-0.33229638671875,0.028257556152343752,0.886692529296875
-0.3709563671875,0.0593840283203125,0.876861865234375
-0.33983386718749997,0.07580508056640625,0.977134638671875
-0.38676076171875,0.05227640869140625,0.970253173828125
-0.40062,0.0750698095703125,0.9837703369140625
-0.31770771484375,0.07065818359375,0.9459222802734375
-0.372415234375,0.030708459472656248,0.965829375
-0.38481560546875,0.073599267578125,1.0110504296875
-0.33618669921875,0.014777587890624999,0.9341254833984375
-0.36487775390625,0.05619785400390625,0.9481341796875
-0.30530734375,0.0652661962890625,0.96484630859375
-0.34421046875,0.026541923828125,0.9503460791015625
-0.2717533984375,0.04492369873046875,0.976151572265625
-0.2722396875,0.05717821533203125,0.9911433349609375
-0.30263275390625,0.03806116943359375,0.955507177734375
-0.28172232421875,0.056933125,0.9567360107421875
-0.2795340234375,0.063795654296875,0.9424815478515625
-0.28269490234375,0.04320806640625,0.9621428759765625
-0.28658521484375,0.07384435791015626,1.0009739990234374
-0.26859251953125,0.04002189208984375,0.9820499707031249
-0.2561921484375,0.048109873046875,1.0019570654296874
-0.2488978125,0.04712951171875,0.99827056640625
-0.2717533984375,0.07188363525390624,0.99040603515625
-0.27199654296875,0.06355056396484375,0.983033037109375
-0.23819945312500002,0.07972652587890625,0.9808211376953125
-0.24962724609375,0.06257020263671875,0.966320908203125
-0.26956509765625,0.0770305322265625,0.990897568359375
-0.24038775390625,0.06894255126953125,0.975168505859375
-0.25692158203125,0.0691876416015625,0.934862783203125
-0.28901666015625,0.07727562255859374,0.9582106103515625
-0.237226875,0.0868341455078125,0.980083837890625
-0.27977716796875,0.0613447509765625,0.9820499707031249
-0.2853694921875,0.06698182861328125,0.981066904296875
-0.2571647265625,0.09590248779296875,0.9609140429687499
-0.24670951171875,0.075559990234375,0.9326508837890625
-0.2892598046875,0.069677822265625,0.9813126708984374
-0.23795630859375,0.07261890625,0.974185439453125
-0.2464663671875,0.10962754638671875,0.957473310546875
-0.25400384765625,0.08168724853515624,0.97860923828125
-0.26859251953125,0.0843832421875,0.96681244140625
-0.2406308984375,0.11550971435546875,0.943710380859375
-0.271267109375,0.08242251953125,0.9272440185546875
-0.28269490234375,0.09100068115234375,0.96484630859375
-0.25449013671875,0.1235976953125,0.9803296044921875
-0.24233291015625,0.0721287255859375,0.949608779296875
-0.257651015625,0.1103628173828125,0.98450763671875
-0.2396583203125,0.0878145068359375,0.9913891015625
-0.26664736328125,0.0956573974609375,0.9542783447265625
-0.214857578125,0.10619628173828125,0.990897568359375
-0.25983931640625,0.0780108935546875,0.993846767578125
-0.27613,0.07384435791015626,0.9994993994140625
-0.20537494140625,0.0858537841796875,0.979100771484375
-0.26324333984375,0.0887948681640625,0.9513291455078126
-0.22190876953125,0.08756941650390625,0.9537868115234375
-0.27345541015625,0.04982550537109375,0.9567360107421875
-0.20537494140625,0.09394176513671874,1.006626630859375
-0.228473671875,0.09418685546875,0.9842618701171875
-0.2357680078125,0.07727562255859374,0.9744312060546875
-0.2114535546875,0.09247122314453125,0.954032578125
-0.21121041015625,0.08242251953125,0.942727314453125
-0.255705859375,0.11207844970703125,0.9913891015625
-0.22190876953125,0.0760501708984375,0.98254150390625
-0.24622322265625,0.10864718505859375,0.997779033203125
-0.21412814453125,0.10178465576171875,0.9820499707031249
-0.2192341796875,0.0701680029296875,0.934862783203125
-0.20415921875,0.07678544189453125,0.9616513427734374
-0.228473671875,0.1035002880859375,0.95698177734375
-0.20804953125,0.077520712890625,1.0103131298828125
-0.1968648828125,0.09100068115234375,1.00023669921875
-0.22385392578125,0.10374537841796876,0.995812900390625
-0.22628537109375,0.111833359375,0.9611598095703124
-0.22628537109375,0.1123235400390625,0.9650920751953125
-0.222638203125,0.1035002880859375,0.9832788037109375
-0.23406599609375,0.10864718505859375,1.0206353271484374
-0.237226875,0.11550971435546875,1.0068723974609375
-0.20440236328125,0.1348718505859375,0.9717277734375
-0.2600824609375,0.13413657958984376,0.9638632421875
-0.199296328125,0.10668646240234375,0.974185439453125
-0.22385392578125,0.09247122314453125,1.01989802734375
-0.24427806640625,0.1172253466796875,1.003677431640625
-0.191515703125,0.1235976953125,0.983033037109375
-0.2172890234375,0.09982393310546875,0.9754142724609375
-0.2445212109375,0.07580508056640625,1.0245675927734375
-0.206104375,0.10766682373046875,1.02088109375
-0.23066197265625,0.08168724853515624,1.0024485986328124
-0.263486484375,0.08462833251953125,1.0083469970703125
-0.2211793359375,0.09149086181640625,0.992863701171875
-0.210967265625,0.07972652587890625,0.951574912109375
-0.20245720703125,0.081442158203125,1.032186357421875
-0.22871681640625,0.09418685546875,1.05528841796875
-0.2104809765625,0.07580508056640625,1.0098215966796875
-0.2104809765625,0.08364797119140625,1.010558896484375
-0.245980078125,0.07090327392578125,1.016948828125
-0.22968939453125,0.07482471923828125,0.97271083984375
-0.18884111328125,0.12335260498046875,0.938303515625
-0.230418828125,0.07237381591796875,0.9815584374999999
-0.22142248046875002,0.110852998046875,0.99630443359375
-0.21169669921875,0.108892275390625,0.9773804052734375
-0.21169669921875,0.0829127001953125,0.999745166015625
-0.20294349609375,0.0966377587890625,0.9670582080078125
-0.2007551953125,0.1240878759765625,0.913235322265625
-0.18738224609375,0.09394176513671874,0.93437125
-0.23698373046875,0.0956573974609375,0.96484630859375
-0.18981369140625,0.1235976953125,0.9670582080078125
-0.2250696484375,0.10962754638671875,0.987948369140625
-0.20464550781250002,0.13021513427734374,0.9818042041015624
-0.1842213671875,0.14492055419921876,1.009575830078125
-0.2085358203125,0.13536203125,0.9759058056640625
-0.20683380859375,0.11501953369140624,1.04349162109375
-0.20342978515625,0.11550971435546875,1.02972869140625
-0.1866528125,0.122617333984375,1.0068723974609375
-0.2022140625,0.08242251953125,1.0127707958984375
-0.19637859375,0.0976181201171875,1.0162115283203126
-0.19516287109375,0.1157548046875,0.98057537109375
-0.19953947265625,0.0770305322265625,0.9542783447265625
-0.1696326953125,0.12188206298828125,1.00023669921875
-0.18081734375,0.11403917236328125,0.99237216796875
-0.21899103515625,0.1201664306640625,0.9690243408203125
-0.17303671874999998,0.14786163818359374,0.9670582080078125
-0.1628246484375,0.1456558251953125,0.926015185546875
-0.2153438671875,0.13560712158203125,0.941744248046875
-0.199296328125,0.13560712158203125,1.002694365234375
-0.18397822265625,0.16354741943359374,0.98647376953125
-0.22142248046875002,0.15129290283203126,0.9852449365234375
-0.17765646484375,0.14001874755859375,1.001219765625
-0.1744955859375,0.10987263671875,1.002694365234375
-0.19078626953125,0.14786163818359374,0.9972875
-0.1530988671875,0.148106728515625,0.9626344091796875
-0.20488865234375,0.14443037353515625,0.951574912109375
-0.21169669921875,0.13658748291015624,1.0024485986328124
-0.212912421875,0.136342392578125,1.0058893310546875
-0.19467658203125,0.16403760009765625,0.9680412744140625
-0.17911533203125,0.14001874755859375,1.0108046630859375
-0.187625390625,0.120656611328125,1.0235845263671874
-0.1978374609375,0.1907524462890625,1.0378389892578126
-0.18300564453125,0.15227326416015624,0.9913891015625
-0.179844765625,0.124578056640625,0.97271083984375
-0.1958923046875,0.15717507080078125,0.99630443359375
-0.2075632421875,0.10521592041015625,0.9931094677734374
-0.18689595703125,0.12923477294921876,0.98647376953125
-0.20926525390625,0.09590248779296875,0.9596852099609375
-0.19759431640625,0.12163697265625,0.955507177734375
-0.2095083984375,0.07433453857421875,0.945676513671875
-0.210967265625,0.10864718505859375,1.0014655322265624
-0.19127255859375,0.1392834765625,0.9832788037109375
-0.206104375,0.10031411376953125,0.977626171875
-0.20294349609375,0.1240878759765625,0.984999169921875
-0.14799283203125,0.0907555908203125,0.9552614111328125
-0.174009296875,0.15668489013671874,0.9795923046875
-0.21072412109375,0.13364639892578126,1.0029401318359374
-0.2007551953125,0.1397736572265625,1.00023669921875
-0.19419029296875,0.171635400390625,1.0063808642578125
-0.2007551953125,0.17139031005859376,1.00023669921875
-0.199296328125,0.16452778076171876,1.014491162109375
-0.20002576171875,0.13119549560546875,0.9994993994140625
-0.20245720703125,0.1760470263671875,0.9975332666015625
-0.1988100390625,0.1760470263671875,0.9523122119140625
-0.20051205078125,0.1471263671875,0.9582106103515625
-0.216802734375,0.15031254150390624,0.9763973388671875
-0.15966376953125,0.158890703125,0.9793465380859375
-0.18154677734375,0.1574201611328125,0.9557529443359375
-0.1881116796875,0.1485969091796875,1.0014655322265624
-0.20537494140625,0.163792509765625,1.0304659912109375
-0.24525064453125,0.2044775048828125,1.014491162109375
-0.24379177734375002,0.20962440185546874,1.03661015625
-0.21655958984375,0.18168410400390625,1.0152284619140626
-0.20586123046875,0.16869431640625,1.00416896484375
-0.2221519140625,0.1731059423828125,0.9950756005859375
-0.17522501953125,0.11158826904296874,0.9901602685546875
-0.20099833984375,0.0976181201171875,1.0053977978515625
-0.20634751953125,0.049090234375,1.008592763671875
-0.17473873046875,0.05668803466796875,0.950591845703125
-0.21947732421875,0.03364954345703125,0.8957858935546875
-0.20804953125,0.0299731884765625,0.8658023681640625
-0.17765646484375,0.04443351806640625,0.8191067138671875
-0.19127255859375,0.05962911865234375,0.83704767578125
-0.19613544921875,0.08609887451171874,0.918150654296875
-0.1696326953125,0.09394176513671874,0.9031588916015625
-0.17279357421875,0.09933375244140626,0.8616243359375
-0.17376615234375,0.08119706787109375,0.8628531689453125
-0.15042427734375,0.114774443359375,0.810996416015625
-0.16404037109375,0.14982236083984374,0.81738634765625
-0.2211793359375,0.1652630517578125,0.8721922998046875
-0.212912421875,0.177517568359375,0.8884128955078126
-0.23552486328125,0.16501796142578126,0.92650671875
-0.1997826171875,0.1838899169921875,0.946659580078125
-0.18300564453125,0.19736988525390625,0.9238032861328125
-0.1589343359375,0.19540916259765626,0.932896650390625
-0.14653396484375,0.2074185888671875,0.925032119140625
-0.17084841796875,0.22776108642578125,0.955507177734375
-0.2211793359375,0.237319609375,0.9872110693359375
-0.22190876953125,0.25888755859375,0.9926179345703126
-0.21266927734375,0.281435869140625,1.0594664501953126
-0.1851939453125,0.29197475341796875,1.01989802734375
-0.183735078125,0.29736674072265623,0.9950756005859375
-0.17960162109375,0.284376953125,1.02776255859375
-0.183735078125,0.1731059423828125,1.0083469970703125
-0.19710802734375,0.16477287109375,0.981066904296875
-0.210967265625,0.16403760009765625,0.949608779296875
-0.20877896484375,0.14835181884765625,0.9609140429687499
-0.22823052734375,0.126538779296875,0.969270107421875
-0.19370400390625,0.1079119140625,0.991880634765625
-0.22336763671875,0.1123235400390625,0.985490703125
-0.22044990234375,0.0530116796875,0.985982236328125
-0.2153438671875,0.0642858349609375,0.9528037451171875
-0.22725794921875,0.06943273193359376,0.9518206787109375
-0.210967265625,0.0686974609375,0.9311762841796875
-0.2017277734375,0.04786478271484375,0.92945591796875
-0.19832375,0.08413815185546875,0.9537868115234375
-0.21899103515625,0.0843832421875,1.0031858984375
-0.23503857421875,0.1074217333984375,1.007609697265625
-0.2182616015625,0.1084020947265625,1.027271025390625
-0.22968939453125,0.11109808837890625,1.0265337255859375
-0.22871681640625,0.120656611328125,1.0343982568359376
-0.21947732421875,0.1378129345703125,1.0501273193359375
-0.20537494140625,0.11747043701171875,1.0476696533203125
-0.22190876953125,0.15668489013671874,1.044966220703125
-0.21510072265625,0.1510478125,1.0348897900390626
-0.25400384765625,0.1505576318359375,1.0860092431640624
-0.257651015625,0.16109651611328124,1.0874838427734375
-0.2221519140625,0.17972338134765625,1.0543053515625
-0.224583359375,0.15717507080078125,1.0530765185546875
-0.21899103515625,0.14124419921875,1.09657720703125
-0.19808060546875,0.12531332763671876,1.1073909375
-0.2260422265625,0.13952856689453125,1.0747039794921875
-0.1997826171875,0.116735166015625,1.0191607275390624
-0.195406015625,0.114774443359375,1.0162115283203126
-0.1710915625,0.07776580322265625,1.0412797216796874
-0.1715778515625,0.09786321044921875,1.0865007763671874
-0.21461443359375,0.0809519775390625,1.0661021484375
-0.1861665234375,0.05031568603515625,0.9911433349609375
-0.16914640625,0.0446786083984375,0.959439443359375
-0.17279357421875,0.07923634521484375,0.9972875
-0.17862904296875,0.05325677001953125,1.0189149609375
-0.170118984375,0.05521749267578125,1.0142453955078126
-0.18835482421875,0.0593840283203125,1.00220283203125
-0.1637972265625,0.0686974609375,0.9380577490234375
-0.1910294140625,0.0878145068359375,0.95894791015625
-0.17473873046875,0.06257020263671875,0.999745166015625
-0.1978374609375,0.09639266845703125,1.0496357861328125
-0.20464550781250002,0.09026541015625,1.0592206835937499
-0.228473671875,0.09198104248046875,1.0049062646484375
-0.21121041015625,0.11599989501953126,0.9822957373046874
-0.2406308984375,0.13266603759765624,0.9675497412109375
-0.26761994140625,0.1113431787109375,0.977626171875
-0.2454937890625,0.13266603759765624,0.98647376953125
-0.24136033203125,0.1231075146484375,0.9385492822265625
-0.22628537109375,0.1280093212890625,0.9272440185546875
-0.21996361328125,0.1000690234375,0.9218371533203125
-0.19905318359375002,0.10080429443359375,0.9228202197265625
-0.20051205078125,0.0672269189453125,0.9459222802734375
-0.185680234375,0.07825598388671876,0.9655836083984375
-0.23819945312500002,0.0515411376953125,0.94223578125
-0.2542469921875,0.07776580322265625,0.9901602685546875
-0.2255559375,0.06060947998046875,0.936828916015625
-0.22968939453125,0.11747043701171875,0.9070911572265625
-0.1920019921875,0.1231075146484375,0.9520664453125
-0.2464663671875,0.089285048828125,0.9444476806640625
-0.206104375,0.14418528320312501,0.928964384765625
-0.20586123046875,0.150067451171875,0.9149556884765625
-0.17376615234375,0.1392834765625,0.9503460791015625
-0.19564916015625,0.1319307666015625,1.001219765625
-0.20415921875,0.13658748291015624,1.015474228515625
-0.236254296875,0.13070531494140625,0.9704989404296875
-0.263486484375,0.1731059423828125,0.99433830078125
-0.2659179296875,0.163792509765625,0.970253173828125
-0.2873146484375,0.14786163818359374,0.976151572265625
-0.27053767578125,0.1495772705078125,0.9906518017578125
-0.25740787109375,0.14148928955078124,0.9646005419921875
-0.26178447265625,0.14443037353515625,0.9203625537109374
-0.24233291015625,0.10129447509765625,0.8992266259765624
-0.26154132812499997,0.11060790771484375,0.923065986328125
-0.28707150390625,0.1240878759765625,0.9442019140625
-0.27880458984375,0.106931552734375,0.8933282275390625
-0.29387955078125,0.110852998046875,0.8962774267578125
-0.2902323828125,0.08266760986328126,0.9002096923828125
-0.28220861328125,0.10129447509765625,0.8923451611328125
-0.25546271484375,0.1054610107421875,0.88620099609375
-0.27831830078124997,0.09737302978515625,0.8982435595703124
-0.28585578125,0.08242251953125,0.8891501953125
-0.28901666015625,0.09810830078125,0.8436833740234375
-0.27442798828125,0.1015395654296875,0.869980400390625
-0.26567478515625,0.10031411376953125,0.8812856640625
-0.24622322265625,0.07825598388671876,0.865065068359375
-0.247925234375,0.12163697265625,0.915201455078125
-0.2746711328125,0.08609887451171874,0.890624794921875
-0.2873146484375,0.11894097900390625,0.8805483642578125
-0.279047734375,0.15423398681640624,0.860149736328125
-0.3067662109375,0.13340130859375,0.8790737646484375
-0.321841171875,0.14246965087890626,0.970253173828125
-0.3252451953125,0.14124419921875,0.9744312060546875
-0.31041337890625,0.1358522119140625,0.954032578125
-0.29436583984375,0.18560554931640624,0.9759058056640625
-0.31430369140625003,0.17090012939453125,0.9655836083984375
-0.33715927734375,0.13119549560546875,0.9916348681640625
-0.337402421875,0.13732275390625,1.0122792626953125
-0.32646091796875,0.06673673828125,0.98647376953125
-0.30311904296875003,0.00325834228515625,1.0191607275390624
-0.2610550390625,0.00423870361328125,1.0661021484375
-0.232363984375,0.06992291259765625,1.1194335009765626
-0.23892888671875,0.05374695068359375,1.1877566162109374
-0.24306234375,0.02286556884765625,1.274020693359375
-0.32475890625,0.07923634521484375,1.278936025390625
-0.3339983984375,0.13658748291015624,1.292207421875
-0.3641483203125,0.12286242431640625,1.32661474609375
-0.3811684375,0.177517568359375,1.39542939453125
-0.41545181640625,0.206928408203125,1.480956171875
-0.4400094140625,0.17237067138671874,1.5028293994140625
-0.50249755859375,0.222614189453125,1.476532373046875
-0.5508833203125,0.22629054443359375,1.399853193359375
-0.55404419921875,0.155949619140625,1.3627424365234375
-0.47915568359375,0.04982550537109375,1.311377216796875
-0.42712275390625,-0.03399538818359375,1.1130435693359375
-0.38457246093749997,-0.05213207275390625,0.9631259423828125
-0.40134943359374997,-0.07713128662109375,0.9206083203125
-0.46262185546875,-0.100905048828125,0.9808211376953125
-0.51027818359375,-0.11977700439453125,1.0582376171875
-0.50833302734375,-0.16585398681640626,1.05725455078125
-0.50590158203125,-0.18104958740234375,1.007609697265625
-0.43927998046875,-0.13791368896484374,0.88620099609375
-0.34056330078125,-0.16438344482421874,0.7773263916015625
-0.3291355078125,-0.17075579345703126,0.720554306640625
-0.3126016796875,-0.142080224609375,0.6905707812499999
-0.2970404296875,-0.08791526123046875,0.6699263867187499
-0.32354318359375,-0.048455717773437504,0.7094948095703125
-0.36341888671875,-0.01830960693359375,0.7601227294921875
-0.33764556640625,0.062080021972656246,0.80755568359375
-0.338375,0.1309504052734375,0.8328696435546875
-0.341292734375,0.181439013671875,0.9021758251953125
-0.294608984375,0.214771298828125,0.9501003125
-0.2800203125,0.23143744140625,0.9680412744140625
-0.286828359375,0.26673044921875,0.991880634765625
-0.27005138671875,0.277514423828125,0.9459222802734375
-0.2591098828125,0.2635442749023438,0.9036504248046875
-0.2746711328125,0.2652599072265625,0.828691611328125
-0.27588685546875,0.248103583984375,0.7645465283203124
-0.2299325390625,0.2635442749023438,0.7296476708984375
-0.21801845703125,0.24638795166015626,0.757419296875
-0.2411171875,0.27923005615234375,0.830657744140625
-0.2542469921875,0.31991505126953124,0.8844806298828125
-0.2600824609375,0.3125623413085937,0.9284728515625
-0.28853037109375,0.33462047119140625,0.9395323486328125
-0.2445212109375,0.322611044921875,0.8726838330078125
-0.221665625,0.3338852001953125,0.870963466796875
-0.21193984375,0.3093761669921875,0.864082001953125
-0.20440236328125,0.32947357421875,0.881777197265625
-0.2318776953125,0.316728876953125,0.871946533203125
-0.24670951171875,0.33805173583984377,0.8559717041015625
-0.22677166015625,0.29221984375,0.764792294921875
-0.18495080078125,0.27138716552734377,0.751029365234375
-0.19953947265625,0.27138716552734377,0.80853875
-0.24087404296875,0.2956511083984375,0.8427003076171875
-0.3203823046875,0.28217114013671873,0.842454541015625
-0.33983386718749997,0.306925263671875,0.8579378369140624
-0.33424154296874997,0.257907197265625,0.8033776513671875
-0.294608984375,0.20570295654296875,0.7515208984375
-0.29533841796875,0.26673044921875,0.778555224609375
-0.32159802734375,0.24491740966796874,0.746114033203125
-0.33326896484375,0.24099596435546874,0.7910893212890625
-0.37071322265625,0.22089855712890624,0.8567090039062499
-0.341292734375,0.16746886474609374,0.883251796875
-0.30895451171875,0.2490839453125,0.8490902392578125
-0.34250845703125,0.14933218017578126,0.846386806640625
-0.3242726171875,0.12531332763671876,0.8515479052734375
-0.34785763671875003,0.12090170166015625,0.8004284521484375
-0.40523974609375,0.1505576318359375,0.8068183837890625
-0.408400625,0.13119549560546875,0.7552073974609375
-0.3748466796875,0.1319307666015625,0.7318595703125
-0.39575710937499997,0.2025167822265625,0.7625803955078125
-0.39065107421875,0.1956542529296875,0.75053783203125
-0.38967849609375,0.208889130859375,0.7200627734375
-0.377278125,0.20325205322265624,0.746114033203125
-0.3933256640625,0.214771298828125,0.8122252490234375
-0.4088869140625,0.201046240234375,0.8343442431640625
-0.38821962890625,0.24197632568359376,0.868014267578125
-0.439523125,0.21305566650390625,0.9429730810546875
-0.46505330078125,0.20962440185546874,0.94125271484375
-0.4828028515625,0.1633023291015625,0.914709921875
-0.50152498046875,0.052031318359375,0.806081083984375
-0.3631757421875,-0.075415654296875,0.7262069384765625
-0.3320532421875,-0.098944326171875,0.7370206689453125
-0.2795340234375,-0.153844560546875,0.6627991552734375
-0.2192341796875,-0.06928839599609375,0.6603414892578126
-0.30603677734375,0.049090234375,0.8223016796875
-0.24938410156250002,0.02972809814453125,0.841471474609375
-0.35320681640625,0.06845237060546874,0.9370746826171875
-0.33959072265625,0.21795747314453126,0.965829375
-0.4497351953125,0.077520712890625,0.902421591796875
-0.42517759765625,0.1789881103515625,0.863098935546875
-0.465782734375,0.16869431640625,0.8537598046875
-0.42128728515625,0.2211436474609375,0.8026403515625
-0.45727267578124997,0.244182138671875,0.7802755908203125
-0.49666208984375,0.259867919921875,0.7674957275390625
-0.50492900390625,0.253005390625,0.89406552734375
-0.4915560546875,0.32726776123046875,0.938795048828125
-0.50395642578125,0.36501167236328125,1.133442197265625
-0.5445615625,0.41648064208984376,1.248460966796875
-0.49860724609375,0.48608629638671874,1.3116229833984374
-0.44706060546875,0.4946644580078125,1.3681493017578126
-0.37849384765625,0.5047131616210937,1.30498728515625
-0.2970404296875,0.42824497802734374,1.193409248046875
-0.2800203125,0.4162355517578125,1.122628466796875
-0.29436583984375,0.36648221435546874,1.0579918505859376
-0.3417790234375,0.20962440185546874,0.99040603515625
-0.34299474609375,0.2878082177734375,0.979100771484375
-0.347128203125,0.19687970458984375,0.9016842919921875
-0.39405509765625,0.12237224365234375,0.9402696484374999
-0.42177357421875,0.1152646240234375,0.9646005419921875
-0.4030514453125,0.0917359521484375,1.041033955078125
-0.42225986328125,0.06306038330078124,1.11034013671875
-0.4497351953125,0.0466393310546875,1.165883388671875
-0.3553951171875,0.0603643896484375,1.1808751513671876
-0.4147223828125,0.01698340087890625,1.104933271484375
-0.2367405859375,0.03659062744140625,1.060695283203125
-0.18008791015625,-0.0180645166015625,1.1253318994140624
-0.1477496875,-0.04821062744140625,1.255342431640625
-0.16501294921875,-0.07075893798828126,1.4256586865234375
-0.2318776953125,-0.1626678125,1.4320486181640626
-0.1258666796875,-0.2053135302734375,1.4015735595703125
-0.1579617578125,-0.15212892822265625,1.4580998779296874
-0.40183572265625,-0.1406096826171875,1.4743204736328126
-0.4040240234375,-0.11683592041015625,1.3914971289062499
-0.475508515625,-0.08423890625,1.3298097119140624
-0.6184775,0.0162481298828125,1.4290994189453126
-0.5606091015625,-0.00703545166015625,1.55468615234375
-0.63574076171875,0.0789912548828125,1.626941533203125
-0.671969296875,0.0799716162109375,1.383141064453125
-0.54869501953125,0.16844922607421875,1.16932412109375
-0.5888138671875,0.16011615478515626,0.9695158740234375
-0.59197474609375,0.07041309326171875,0.8721922998046875
-0.5207333984375,0.04247279541015625,0.8481071728515625
-0.57057802734375,0.12678386962890625,0.781504423828125
-0.56206796875,0.14688127685546876,0.73775796875
-0.56522884765625,0.1378129345703125,0.6886046484375
-0.5771429296875,0.175556845703125,0.6790197509765625
-0.5158705078125,0.23511379638671875,0.6760705517578125
-0.4234755859375,0.3054547216796875,0.7355460693359375
-0.419098984375,0.30986634765625,0.83213234375
-0.40572603515625,0.27824969482421874,0.8515479052734375
-0.36390517578125,0.2495741259765625,0.8309035107421875
-0.33642984375,0.31599360595703124,0.831640810546875
-0.38432931640625,0.3191797802734375,0.7613515625
-0.36633662109375,0.31060161865234376,0.6765620849609375
-0.3155194140625,0.28413186279296876,0.605535537109375
-0.2630001953125,0.2571719262695312,0.568670546875
-0.23114826171875,0.24785849365234375,0.51656802734375
-0.22920310546875,0.24932903564453124,0.4666774072265625
-0.18081734375,0.16085142578125,0.4686435400390625
-0.11298001953125,0.13952856689453125,0.4647112744140625
-0.1297569921875,0.190262265625,0.528856357421875
-0.16112263671875,0.25128975830078126,0.6406801611328125
-0.1200312109375,0.27065189453125,0.765775361328125
-0.13243158203125,0.30471945068359374,0.9356000830078125
-0.1375376171875,0.3365811938476562,0.9990078662109375
-0.187625390625,0.322611044921875,0.9704989404296875
-0.16501294921875,0.2963863793945313,0.8427003076171875
-0.17327986328125,0.2961412890625,0.7851909228515626
-0.1764407421875,0.283396591796875,0.71711357421875
-0.1851939453125,0.29932746337890626,0.695977646484375
-0.170118984375,0.3118270703125,0.7080202099609375
-0.15042427734375,0.3113368896484375,0.7743771923828124
-0.09304216796875,0.32359140625,0.882760263671875
-0.13024328125,0.353982607421875,0.948625712890625
-0.15771861328125,0.3164837866210938,0.884726396484375
-0.11152115234375,0.3113368896484375,0.820827080078125
-0.11589775390625,0.2868278564453125,0.8215643798828125
-0.1336473046875,0.26501481689453127,0.84884447265625
-0.1112780078125,0.3162386962890625,0.954032578125
-0.1832487890625,0.33756155517578124,0.938303515625
-0.221665625,0.3101114379882812,0.8628531689453125
-0.21072412109375,0.30864089599609373,0.740215634765625
-0.21558701171875,0.2976118310546875,0.731368037109375
-0.2007551953125,0.2946707470703125,0.7328426367187499
-0.15771861328125,0.2868278564453125,0.68565544921875
-0.12416466796875,0.2659951782226562,0.717605107421875
-0.05462533203125,0.23805488037109374,0.8058353173828126
0.0389853125,0.13658748291015624,0.95108337890625
0.09661056640625,0.1201664306640625,1.117713134765625
0.11849357421875,0.14590091552734374,1.2491982666015624
0.139160859375,0.1466361865234375,1.2934362548828124
0.102202890625,0.22383964111328125,1.3558609716796874
0.11606212890625,0.246142861328125,1.4000989599609375
-0.14507509765624998,0.23315307373046876,1.372327333984375
-0.27005138671875,0.22531018310546874,1.3216994140625
-0.4438997265625,0.3348655615234375,1.3848614306640625
-0.6119125976562501,0.21942801513671875,1.480956171875
-0.4667553125,0.37579564697265627,1.69624771484375
-0.33910443359375,0.5150069555664063,1.6834678515625
-0.30166017578125,0.4248137133789063,0.9906518017578125
-0.20197091796875,0.3228561352539063,0.7827332568359375
-0.15139685546875,0.28462204345703124,0.673367119140625
-0.14896541015625,0.30030782470703127,0.886692529296875
-0.195406015625,0.3789818212890625,1.1661291552734374
-0.2766162890625,0.42677443603515625,1.1762055859375
-0.3583128515625,0.4336369653320313,1.1371286962890625
-0.27248283203125,0.3588844140625,0.906845390625
-0.294608984375,0.393197060546875,0.884726396484375
-0.35855599609375,0.37064875,0.866048134765625
-0.29485212890625,0.3848639892578125,0.8608870361328125
-0.22677166015625,0.38633453125,0.8839890966796875
-0.14629082031250001,0.379472001953125,0.9744312060546875
-0.01742421875,0.252025029296875,1.086255009765625
0.018318027343749998,0.14492055419921876,1.1523662255859375
-0.008184726562500001,0.010856142578125,1.1041959716796874
-0.049519296875,-0.07222947998046875,0.937811982421875
-0.17036212890625,-0.036201201171875,0.8461410400390625
-0.3116291015625,0.04541387939453125,0.823776279296875
-0.33667298828125003,-0.0249270458984375,0.8267254785156251
-0.430769921875,-0.0092412646484375,0.7596311962890625
-0.45873154296875,-0.04575972412109375,0.778555224609375
-0.4312562109375,-0.07051384765625,0.7055625439453125
-0.37995271484375,-0.00213364501953125,0.6161035009765625
-0.2114535546875,0.073599267578125,0.576043544921875
-0.19224513671875,0.03855135009765625,0.6244595654296875
-0.20342978515625,0.04198261474609375,0.74267330078125
-0.2717533984375,0.19148771728515626,0.8790737646484375
-0.335457265625,0.238299970703125,0.935845849609375
-0.24038775390625,0.21060476318359375,0.8608870361328125
-0.177899609375,0.24883885498046876,0.873912666015625
-0.1988100390625,0.32089541259765625,0.9193794873046874
-0.31868029296875,0.3485906201171875,1.0014655322265624
-0.41156150390625,0.18511536865234374,0.86260740234375
-0.33108066406250003,0.2329079833984375,0.83704767578125
-0.27005138671875,0.23805488037109374,0.7114609423828124
-0.2172890234375,0.11599989501953126,0.6829520166015625
-0.21193984375,0.019434304199218752,0.671400986328125
-0.10228166015625,-0.012672529296875,0.6814774169921874
-0.04344068359375,-0.0494360791015625,0.7001556787109375
-0.039307226562500006,-0.10556176513671875,0.8372934423828124
-0.041495527343750005,-0.12712971435546874,0.9046334912109375
-0.06751199218750001,-0.12761989501953125,1.0019570654296874
-0.1871391015625,-0.0053198193359375,0.98942296875
-0.2095083984375,0.049090234375,0.9191337207031249
-0.15674603515625,0.08511851318359374,0.928964384765625
-0.234309140625,0.0505607763671875,0.9164302880859375
-0.21461443359375,0.0799716162109375,0.9154472216796875
-0.2255559375,-0.0001729223632812504,0.807064150390625
-0.1511537109375,0.0030132519531249997,0.7082659765625
-0.0821006640625,0.07384435791015626,0.7055625439453125
-0.20804953125,0.12727405029296876,0.8132083154296875
-0.13583560546875,0.0436982470703125,0.878827998046875
-0.07188859375000001,0.10227483642578125,0.9206083203125
-0.09741876953125,0.17653720703125,0.98450763671875
-0.13194529296875,0.174576484375,1.01399962890625
-0.20099833984375,0.1471263671875,1.01989802734375
-0.2425760546875,0.1162449853515625,0.954524111328125
-0.30457791015625,0.0701680029296875,0.89996392578125
-0.3203823046875,0.16477287109375,0.90586232421875
-0.2843969140625,0.14001874755859375,0.8419630078125
-0.26640421875,0.11379408203125,0.8576920703124999
-0.3194097265625,0.06502110595703126,0.8240220458984375
-0.197351171875,0.183399736328125,0.86850580078125
-0.25983931640625,0.26280900390625,0.9493630126953125
-0.28853037109375,0.2544759326171875,1.01596576171875
-0.13875333984375,0.16501796142578126,0.988931435546875
-0.12659611328125,0.22187891845703125,0.9714820068359376
-0.16258150390625,0.22432982177734376,0.9596852099609375
-0.112736875,0.14295983154296876,0.883251796875
-0.159420625,0.13707766357421874,0.88030259765625
-0.13729447265625,0.1329111279296875,1.009084296875
-0.24038775390625,0.1250682373046875,1.058729150390625
-0.352963671875,0.1780077490234375,1.089204208984375
-0.34810078125,0.19148771728515626,1.0673309814453125
-0.39989056640625,0.07286399658203124,0.979100771484375
-0.24379177734375002,0.08634396484375,0.9921264013671875
-0.2425760546875,0.2333981640625,0.9410069482421874
-0.1657423828125,0.1691844970703125,0.8702261669921875
-0.3495596484375,0.29025912109375,1.30498728515625
-0.35515197265625,0.36109022705078125,1.2044687451171874
-0.34737134765625,0.36795275634765623,1.076424345703125
-0.37460353515625,0.3378066455078125,1.09952640625
-0.3344846875,0.3655018530273437,1.146222060546875
-0.26032560546875,0.39638323486328125,1.2659103955078126
-0.14993798828125,0.35226697509765625,1.362988203125
-0.12246265625,0.3581491430664063,1.4318028515625
-0.22823052734375,0.3517767944335938,1.5102023974609375
-0.33424154296874997,0.37260947265625,1.4325401513671876
-0.31041337890625,0.42432353271484374,1.3676577685546876
-0.22385392578125,0.4603518115234375,1.4553964453125001
-0.2610550390625,0.40790248046875,1.5930257421875
-0.28074974609375003,0.3005529150390625,1.635789130859375
-0.38287044921875,0.27923005615234375,1.3022838525390625
-0.4302836328125,0.17040994873046875,1.052830751953125
-0.33983386718749997,0.03928662109375,0.9518206787109375
-0.07748091796875001,0.0152677685546875,1.0928907080078125
-0.13583560546875,-0.0006631030273437505,1.2418252685546876
-0.2659179296875,0.03144373046875,1.2899955224609374
-0.31187224609374997,-0.0337502978515625,1.0589749169921876
-0.31868029296875,-0.0680629443359375,0.829674677734375
-0.20342978515625,-0.0974737841796875,0.706791376953125
-0.05413904296875,-0.10262068115234375,0.7375122021484375
-0.02058509765625,0.06281529296875,0.8567090039062499
-0.20804953125,-0.01830960693359375,0.94125271484375
-0.1555303125,-0.03840701416015625,1.0130165625
-0.21899103515625,-0.07271966064453125,1.0211268603515624
-0.27734572265625,-0.0808076416015625,1.024321826171875
-0.265431640625,-0.0925719775390625,0.9326508837890625
-0.17911533203125,-0.0680629443359375,0.9508376123046876
-0.3155194140625,-0.104826494140625,0.9134810888671875
-0.35661083984374997,-0.12173772705078124,0.86653966796875
-0.34421046875,0.0054641552734375,0.8301662109375
-0.255705859375,0.0765403515625,0.7414444677734375
-0.05219388671875,0.04786478271484375,0.7350545361328125
-0.06970029296875,0.17678229736328124,0.9434646142578125
-0.1754681640625,0.18070374267578124,1.0786362451171876
-0.31819400390625,0.16869431640625,1.098051806640625
-0.37314466796875,0.2142811181640625,1.0174403613281249
-0.366579765625,0.206928408203125,0.954524111328125
-0.30603677734375,0.2289865380859375,0.8869382958984375
-0.21753216796875,0.1672237744140625,0.8107506494140625
-0.31697828125,0.10080429443359375,0.76233462890625
-0.299471875,0.05815857666015625,0.677299384765625
-0.31381740234375,0.06600146728515625,0.6564092236328125
-0.27734572265625,0.0848734228515625,0.589806474609375
-0.1944334375,0.075559990234375,0.598654072265625
-0.14191421875,0.061834931640625,0.5998829052734375
-0.1929745703125,0.0010525292968750002,0.735300302734375
-0.17692703125,0.03413972412109375,0.858183603515625
-0.1278118359375,-0.02272123291015625,0.97467697265625
-0.25497642578125,0.142224560546875,1.129509931640625
-0.36974064453125,0.11894097900390625,1.062661416015625
-0.28391062499999997,0.14197947021484375,0.907336923828125
-0.3184371484375,0.19246807861328125,0.8736668994140625
-0.29047552734375,0.08315779052734375,0.81738634765625
-0.21461443359375,0.03413972412109375,0.71121517578125
-0.20537494140625,0.0838930615234375,0.61192546875
-0.1317021484375,-0.049926259765625,0.57555201171875
-0.09012443359375,-0.11757119140625,0.5753062451171875
-0.0752926171875,-0.1116890234375,0.6485446923828125
-0.0932853125,0.01747358154296875,0.803131884765625
-0.13948277343749999,-0.04281864013671875,0.851793671875
-0.24184662109375,-0.051886982421875,0.9282270849609375
-0.20099833984375,0.024091020507812498,0.9056165576171875
-0.12343523437500001,0.08805959716796875,0.933879716796875
-0.28269490234375,0.1113431787109375,0.9129895556640625
-0.19637859375,0.08903995849609375,0.9454307470703125
-0.22361078125,0.09149086181640625,0.9424815478515625
-0.32864921874999997,0.11060790771484375,0.928964384765625
-0.14410251953125,0.16673359375,0.8830060302734375
-0.08963814453125,0.1887917236328125,0.834590009765625
-0.0388209375,0.20178151123046875,0.9842618701171875
-0.14191421875,0.1054610107421875,1.0732293798828125
-0.19856689453125,0.08462833251953125,1.0373474560546876
-0.20732009765625,0.1740863037109375,0.9877026025390625
-0.2411171875,0.09933375244140626,0.8572005371093749
-0.20780638671875,-0.00458454833984375,0.8540055712890625
-0.1744955859375,0.120656611328125,0.95501564453125
-0.1929745703125,0.152028173828125,0.9916348681640625
-0.27613,0.0883046875,1.01006736328125
-0.2182616015625,0.1564397998046875,1.0417712548828124
-0.21972046875,0.2407508740234375,1.0024485986328124
-0.26056875,0.1309504052734375,0.9351085498046875
-0.3009307421875,0.010856142578125,0.96288017578125
-0.07602205078125,0.03512008544921875,0.9346170166015625
-0.1399690625,0.13462676025390624,0.942727314453125
-0.1268392578125,0.10031411376953125,0.9363373828125
-0.0879361328125,0.03536517578125,1.02776255859375
-0.117599765625,0.011346323242187501,1.06905134765625
-0.2513292578125,0.13560712158203125,1.0700344140625
-0.2824517578125,0.16256705810546876,0.9803296044921875
-0.312115390625,0.06306038330078124,0.899472392578125
-0.33959072265625,0.118695888671875,0.8989808593749999
-0.2649453515625,0.0936966748046875,0.868997333984375
-0.24038775390625,0.0544822216796875,0.855234404296875
-0.1783858984375,0.0123266845703125,0.7733941259765625
0.0034862109374999978,0.07482471923828125,0.788385888671875
-0.02982458984375,0.15374380615234376,0.949608779296875
-0.14629082031250001,0.146146005859375,1.173747919921875
-0.30749564453125,0.15815543212890626,1.2998261865234375
-0.33108066406250003,0.2025167822265625,1.1336879638671875
-0.3694975,0.230457080078125,0.9439561474609375
-0.292663828125,0.2691813525390625,0.8594124365234375
-0.12027435546875,0.11967625,0.8559717041015625
-0.19419029296875,0.0858537841796875,1.0071181640625
-0.25449013671875,0.10423555908203125,1.066593681640625
-0.37581925781250003,-0.023456503906250002,0.976151572265625
-0.21947732421875,-0.1053166748046875,0.8363103759765624
-0.1161408984375,0.0387964404296875,0.9048792578125
-0.0704297265625,0.07188363525390624,1.04349162109375
-0.15771861328125,-0.01095689697265625,1.1602307568359376
-0.15188314453125001,-0.0562986083984375,1.2432998681640626
-0.24281919921875,0.09394176513671874,1.1946380810546875
-0.3038484765625,0.06698182861328125,0.984016103515625
-0.3485870703125,-0.04183827880859375,0.8540055712890625
-0.187625390625,-0.008996174316406251,0.80067421875
-0.152612578125,-0.02860340087890625,0.8146829150390625
-0.20342978515625,-0.051886982421875,0.8353273095703125
-0.1788721875,-0.02370159423828125,0.8773533984374999
-0.16015005859375,-0.012672529296875,0.921099853515625
-0.11492517578125,-0.006790361328125,0.9577190771484375
-0.23309341796875,0.026296833496093748,1.0179318945312499
-0.1667149609375,0.033404453125,1.103950205078125
-0.26907880859375,0.122617333984375,1.149171259765625
-0.30117388671875,0.05913893798828125,1.010558896484375
-0.20732009765625,0.071638544921875,0.957473310546875
-0.24938410156250002,0.0270321044921875,0.9164302880859375
-0.26032560546875,0.0946770361328125,0.8891501953125
-0.3233000390625,-0.00458454833984375,0.7753602587890625
-0.14799283203125,-0.0161037939453125,0.810013349609375
-0.18203306640625,0.0250713818359375,0.968287041015625
-0.16063634765625,0.032424091796875,1.1808751513671876
-0.23844259765625,-0.091101435546875,1.277952958984375
-0.24038775390625,-0.0690433056640625,1.338903076171875
-0.22288134765625,0.0211499365234375,1.1744852197265625
-0.22677166015625,-0.0837487255859375,0.9641090087890625
-0.23649744140625,-0.09232688720703125,0.966320908203125
-0.21193984375,-0.08938580322265625,0.94911724609375
-0.0840458203125,-0.1141399267578125,0.8746499658203125
-0.14969484375,-0.1043363134765625,0.94715111328125
-0.12708240234375,-0.1092381201171875,1.036118623046875
-0.1647698046875,-0.04281864013671875,1.1174673681640626
-0.18495080078125,-0.01438816162109375,1.0621698828125
-0.187625390625,-0.0055649096679687505,1.0098215966796875
-0.1608794921875,-0.07124911865234375,0.973202373046875
-0.18738224609375,0.04639424072265625,1.085271943359375
-0.2532744140625,-0.01095689697265625,1.065610615234375
-0.21947732421875,-0.1553151025390625,0.998762099609375
-0.14069849609375001,-0.02149578125,0.97467697265625
-0.109819140625,-0.0366913818359375,0.9955671337890625
-0.1424005078125,-0.10409122314453124,1.069542880859375
-0.18786853515625002,-0.05899460205078125,1.159001923828125
-0.26907880859375,0.0721287255859375,1.0329236572265625
-0.31430369140625003,0.050070595703125,0.9559987109375
-0.216802734375,0.0922261328125,0.9636174755859375
-0.16914640625,0.09590248779296875,0.900455458984375
-0.1754681640625,0.03413972412109375,0.9196252539062499
-0.21583015625000002,0.06796218994140625,0.977134638671875
-0.09061072265625,0.00325834228515625,0.9714820068359376
-0.10203851562499999,-0.0533575244140625,1.07691587890625
-0.16987583984375,-0.11977700439453125,1.18308705078125
-0.1210037890625,-0.059484782714843754,1.17718865234375
-0.24233291015625,-0.0180645166015625,1.0810939111328124
-0.255705859375,-0.0298288525390625,0.9400238818359374
-0.30846822265625,0.00399361328125,0.883743330078125
-0.2445212109375,0.00963069091796875,0.9036504248046875
-0.14312994140625,0.00766996826171875,0.8694888671875
-0.1696326953125,-0.03522083984375,0.959439443359375
-0.088422421875,-0.018554697265625,1.09067880859375
-0.15917748046875,-0.0254172265625,1.0633987158203124
-0.24379177734375002,0.0299731884765625,1.0766701123046876
-0.27248283203125,0.06796218994140625,0.9980247998046875
-0.21315556640625,0.0799716162109375,0.861132802734375
-0.052680175781250005,0.026541923828125,0.9768888720703125
-0.1725504296875,-0.08963089355468751,1.0683140478515625
-0.21704587890625,-0.04330882080078125,1.150154326171875
-0.164283515625,-0.1043363134765625,1.0722463134765625
-0.27199654296875,-0.112669384765625,0.9621428759765625
-0.22920310546875,-0.0239466845703125,0.9218371533203125
-0.13972591796875,-0.04772044677734375,0.84884447265625
-0.2192341796875,-0.0759058349609375,0.8372934423828124
-0.138996484375,-0.0200252392578125,0.788877421875
-0.11832919921875,0.028502646484374998,0.790352021484375
-0.06629626953125001,-0.051886982421875,0.854251337890625
-0.0665394140625,0.03168882080078125,0.9677955078125
-0.1248941015625,0.017718671875,1.0825685107421874
-0.15528716796875,-0.0033590966796874996,1.1985703466796875
-0.23260712890625002,0.0642858349609375,1.2351895703125
-0.36244630859375,0.065756376953125,1.024813359375
-0.29387955078125,-0.08399381591796876,0.8692431005859375
-0.109819140625,-0.02737794921875,0.8043607177734375
-0.1205175,0.0074248779296875,0.82918314453125
-0.18689595703125,-0.02664267822265625,0.8242678125
-0.174981875,0.033404453125,0.8653108349609375
-0.0665394140625,0.10374537841796876,0.934862783203125
-0.1472633984375,0.01551285888671875,1.0235845263671874
-0.199296328125,-0.04772044677734375,1.0383305224609374
-0.06799828125,0.183399736328125,0.9886856689453125
-0.047574140625,0.0672269189453125,0.938795048828125
-0.05316646484375,0.00816014892578125,1.0948568408203125
-0.16914640625,-0.04575972412109375,1.1880023828125
-0.18300564453125,0.067717099609375,1.12606919921875
-0.33424154296874997,0.08070688720703124,1.0525849853515625
-0.3038484765625,-0.00213364501953125,0.9483799462890625
-0.18859796875,-0.02762303955078125,0.8328696435546875
-0.13024328125,0.08021670654296875,0.7611057958984375
-0.011588750000000002,0.14124419921875,0.8436833740234375
-0.17862904296875,0.0858537841796875,0.931913583984375
-0.1166271875,-0.0239466845703125,0.954524111328125
-0.08866556640625001,0.03364954345703125,0.88423486328125
-0.061190234375,0.01404231689453125,0.7529954980468749
-0.17717017578125,0.06673673828125,0.70629984375
-0.07602205078125,0.0731090869140625,0.7104778759765625
-0.19808060546875,0.08953013916015624,0.83901380859375
-0.22871681640625,0.1079119140625,0.8918536279296875
-0.245980078125,0.19393862060546874,0.883251796875
-0.2299325390625,0.2319276220703125,0.850319072265625
-0.0918264453125,0.12825441162109374,0.8589209033203125
-0.12756869140625,0.10815700439453126,1.023338759765625
-0.10690140625,0.042227705078125,1.1548238916015625
-0.144831953125,-0.0063001806640625,1.212087509765625
-0.2299325390625,0.00865032958984375,1.0830600439453124
-0.24573693359375,-0.0033590966796874996,0.9537868115234375
-0.22871681640625,0.03855135009765625,0.890624794921875
-0.045872128906250004,0.03953171142578125,0.908319990234375
-0.07310431640625001,0.09149086181640625,1.0245675927734375
-0.16987583984375,-0.0945327001953125,1.117713134765625
-0.0699434375,-0.1259042626953125,1.206189111328125
-0.1336473046875,-0.00605509033203125,1.1916888818359375
-0.18932740234375,0.02139502685546875,1.097068740234375
-0.263486484375,-0.01781942626953125,1.0592206835937499
-0.28755779296875,0.03610044677734375,1.0299744580078125
-0.38238416015625,-0.01144707763671875,0.88423486328125
-0.09741876953125,-0.07664110595703125,0.8269712451171874
0.0550328515625,-0.05017135009765625,0.8692431005859375
-0.07164544921875,-0.03938737548828125,1.022355693359375
-0.21899103515625,-0.120512275390625,1.06511908203125
-0.1093328515625,0.01649322021484375,1.0786362451171876
-0.22434021484375,0.03512008544921875,0.9921264013671875
-0.271267109375,-0.13154134033203124,0.868014267578125
-0.21218298828125,-0.06977857666015624,0.9636174755859375
-0.18227621093750002,-0.048945898437499996,1.0004824658203124
-0.23698373046875,-0.07173929931640625,0.92945591796875
-0.296554140625,0.08903995849609375,0.8871840625
-0.117599765625,-0.08840544189453126,0.82328474609375
-0.04344068359375,-0.057278969726562504,0.92650671875
-0.117599765625,-0.04306373046875,1.053813818359375
-0.22701480468750002,-0.01095689697265625,1.2354353369140625
-0.1530988671875,-0.03987755615234375,1.1931634814453125
-0.19832375,0.061834931640625,1.1336879638671875
-0.23747001953125,0.04247279541015625,1.091661875
-0.2065906640625,-0.03889719482421875,1.1132893359375
-0.28123603515625,-0.0651218603515625,1.13196759765625
-0.14361623046875,-0.1195319140625,0.984999169921875
-0.2163164453125,0.0035034326171875,0.859166669921875
-0.11784291015625001,-0.06193568603515625,0.83311541015625
-0.11735662109375,-0.0327699365234375,0.9599309765625
-0.1832487890625,0.08217742919921875,1.1115689697265625
-0.16744439453124998,0.0417375244140625,1.151137392578125
-0.2153438671875,0.05717821533203125,1.1445016943359374
-0.22434021484375,0.09394176513671874,1.0648733154296874
-0.1608794921875,-0.04428918212890625,0.9213456201171875
-0.21169669921875,0.03855135009765625,1.0594664501953126
-0.1492085546875,-0.06634731201171876,1.0461950537109375
-0.13145900390625,-0.14036459228515624,0.9972875
-0.1443456640625,-0.0229663232421875,1.052830751953125
-0.175954453125,-0.1092381201171875,1.021372626953125
-0.14556138671875,-0.161687451171875,1.047915419921875
-0.0859909765625,-0.03252484619140625,1.1425355615234376
-0.25059982421875,-0.09967959716796874,1.1818582177734376
-0.2717533984375,-0.044534272460937496,1.1263149658203124
-0.21218298828125,-0.06683749267578125,0.9542783447265625
-0.0996070703125,-0.09012107421875,0.8972604931640625
-0.01037302734375,-0.0327699365234375,0.986965302734375
0.0003253320312500002,-0.00654527099609375,1.145238994140625
-0.14458880859375,-0.08595453857421875,1.32464861328125
-0.19953947265625,-0.1979608203125,1.368395068359375
-0.36147373046875,-0.1327667919921875,1.2511643994140624
-0.35417939453125,-0.09281706787109376,1.0019570654296874
-0.29971501953125,-0.1195319140625,0.8783364648437499
-0.25449013671875,-0.15605037353515624,0.84687833984375
-0.16452666015625,-0.153844560546875,0.7704449267578125
-0.011588750000000002,-0.07811164794921875,0.8495817724609375
-0.06872771484375,-0.0710040283203125,0.943710380859375
-0.2722396875,-0.14526639892578125,1.01399962890625
-0.1321884375,-0.07664110595703125,1.000728232421875
-0.1073876953125,-0.00948635498046875,0.9874568359375
-0.11006228515625,0.0255615625,1.0825685107421874
-0.04295439453125,-0.0371815625,1.1459762939453124
-0.18981369140625,0.00472888427734375,1.2312573046875
-0.29290697265625,-0.0011532836914062497,1.1926719482421875
-0.15382830078125,-0.07075893798828126,1.0747039794921875
-0.27296912109375,-0.02370159423828125,1.0516019189453125
-0.30020130859375,-0.089140712890625,1.0216183935546874
-0.24914095703125,-0.0935523388671875,0.8889044287109376
-0.1788721875,-0.00654527099609375,0.84687833984375
-0.010129882812500001,0.00865032958984375,0.7837163232421875
0.0190474609375,-0.04330882080078125,0.837539208984375
-0.08963814453125,-0.0602200537109375,1.0031858984375
-0.2104809765625,0.0008074389648437498,0.9139726220703125
-0.16404037109375,0.01012087158203125,0.7881401220703125
-0.005753281249999999,0.00816014892578125,0.772656826171875
-0.039307226562500006,-0.0161037939453125,0.87243806640625
-0.1599069140625,-0.00997653564453125,1.028745625
-0.28950294921874997,0.030708459472656248,1.08084814453125
-0.27637314453125,-0.034240478515625,0.9228202197265625
-0.1890842578125,-0.0847290869140625,0.7672499609375
-0.09425789062500001,0.07580508056640625,0.780521357421875
-0.14969484375,0.06257020263671875,0.740215634765625
0.0005684765624999998,0.02286556884765625,0.825742412109375
-0.07164544921875,0.0035034326171875,0.9754142724609375
-0.158448046875,-0.00777072265625,1.051847685546875
-0.1278118359375,-0.055073156738281254,1.0147369287109376
-0.07699462890625,0.04786478271484375,0.9940925341796875
-0.022530253906250002,0.1633023291015625,1.0466865869140625
-0.23017568359375,0.09443194580078125,1.0503730859375
-0.1180860546875,-0.01781942626953125,1.0309575244140625
-0.20440236328125,-0.08252327392578125,1.0284998583984375
-0.33326896484375,-0.03644629150390625,0.9886856689453125
-0.28804408203125,-0.09624833251953124,0.79182662109375
-0.16258150390625,-0.1587463671875,0.647807392578125
-0.12756869140625,-0.12811007568359375,0.5443396533203125
-0.05243703125,-0.085219267578125,0.4632366748046875
-0.002106113281250002,-0.0406128271484375,0.44382111328125
-0.0033218359375,-0.034240478515625,0.565229814453125
0.06451548828125,0.00570924560546875,0.7950215869140624
0.0783747265625,0.02531647216796875,1.0167030615234376
-0.14969484375,0.00325834228515625,1.2998261865234375
-0.26056875,0.12286242431640625,1.4219721875
-0.310170234375,0.12776423095703124,1.2093840771484374
-0.4118046484375,0.11747043701171875,0.8589209033203125
-0.29363640625,0.10129447509765625,0.785436689453125
-0.27515742187500003,0.128499501953125,0.7711822265625
-0.26032560546875,0.12188206298828125,0.7522581982421875
-0.2221519140625,0.05325677001953125,0.7979707861328125
-0.0597313671875,-0.03448556884765625,0.9365831494140625
-0.04344068359375,-0.0337502978515625,1.1105859033203125
-0.10130908203125,-0.04134809814453125,1.2880293896484374
-0.25935302734375,-0.06977857666015624,1.2501813330078124
-0.25084296875,-0.0092412646484375,0.9523122119140625
-0.2756437109375,-0.03522083984375,0.8498275390625
-0.286828359375,-0.0151234326171875,0.8692431005859375
-0.329621796875,-0.1317864306640625,0.8694888671875
-0.3267040625,-0.13448242431640625,0.812471015625
-0.2503566796875,-0.027868129882812502,0.7340714697265625
-0.25157240234375,-0.07443529296875,0.6868842822265625
-0.11930177734375,0.01747358154296875,0.7633176953125
-0.12708240234375,0.13536203125,0.906353857421875
-0.24306234375,0.09492212646484376,0.975168505859375
-0.1521262890625,0.02678701416015625,1.133442197265625
-0.21655958984375,0.0054641552734375,1.2501813330078124
-0.3544225390625,0.106931552734375,1.2511643994140624
-0.2989855859375,0.062080021972656246,1.079373544921875
-0.33472783203125,-0.0170841552734375,1.0633987158203124
-0.16063634765625,-0.10850284912109374,1.0997721728515626
-0.21193984375,-0.1013952294921875,1.19488384765625
-0.2722396875,-0.11879664306640625,1.130492998046875
-0.30944080078125,-0.14379585693359376,0.9316678173828125
-0.2513292578125,-0.08742508056640624,0.8618701025390625
-0.2338228515625,0.0486000537109375,0.9614055761718749
-0.19370400390625,-0.055808427734375,1.0796193115234376
-0.269321953125,-0.0768861962890625,1.2076637109375
-0.01766736328125,-0.011201987304687501,1.1774344189453125
-0.16744439453124998,-0.0553182470703125,1.14376439453125
-0.2488978125,-0.044044091796875,1.1007552392578126
-0.228473671875,-0.067572763671875,1.12213693359375
-0.38432931640625,-0.11683592041015625,1.1636714892578124
-0.3777644140625,-0.09134652587890625,1.0796193115234376
-0.17911533203125,-0.18448085205078124,1.0565172509765626
-0.25303126953125,-0.19992154296875,1.0850261767578124
-0.28196546875,-0.023456503906250002,1.0481611865234375
-0.25935302734375,-0.1053166748046875,0.9331424169921875
-0.18689595703125,-0.01291761962890625,1.134425263671875
-0.30020130859375,-0.03399538818359375,1.2548508984375
-0.0947441796875,0.02531647216796875,1.295648154296875
-0.21607330078125,0.08413815185546875,1.336936943359375
-0.419098984375,0.09149086181640625,1.2034856787109376
-0.28998923828125,0.05497240234375,1.0388220556640624
-0.33472783203125,-0.052867343750000004,1.01399962890625
-0.23212083984375,-0.079337099609375,1.110831669921875
-0.237226875,-0.13987441162109376,1.0975602734375
-0.26907880859375,-0.06585713134765625,1.009575830078125
-0.1842213671875,-0.095022880859375,0.9134810888671875
-0.38530189453125,-0.11389483642578124,0.856217470703125
-0.44803318359375,-0.09281706787109376,0.788385888671875
-0.28561263671875,-0.136198056640625,0.7114609423828124
-0.054868476562500004,-0.0210056005859375,0.8849721630859375
-0.1774133203125,0.011346323242187501,1.053813818359375
-0.21412814453125,-0.00752563232421875,1.1602307568359376
-0.2357680078125,-0.00262382568359375,1.2098756103515624
-0.34639876953125,0.0427178857421875,1.0346440234375
-0.31478998046875,0.0897752294921875,0.882760263671875
-0.25692158203125,0.0623251123046875,0.835573076171875
-0.23455228515625,0.0020328906249999995,0.8481071728515625
-0.18008791015625,-0.1038461328125,0.8692431005859375
-0.1569891796875,-0.146001669921875,1.023338759765625
-0.14750654296875,-0.1690401611328125,1.0181776611328126
-0.20099833984375,-0.04477936279296875,1.044966220703125
-0.34032015625,-0.1817848583984375,0.88226873046875
-0.26056875,-0.186196484375,0.8419630078125
-0.29047552734375,-0.01561361328125,0.8648193017578125
-0.2795340234375,-0.177373232421875,0.77609755859375
-0.24525064453125,-0.21095060791015624,0.7409529345703125
-0.1404553515625,-0.10188541015625,0.7365291357421875
-0.1783858984375,-0.0308092138671875,0.861132802734375
-0.2099946875,-0.12565917236328125,0.9520664453125
-0.12367837890625,-0.08497417724609375,0.9439561474609375
-0.13729447265625,0.06845237060546874,0.8721922998046875
-0.19856689453125,0.0201695751953125,0.9127437890625
-0.28269490234375,0.018699033203125,0.941744248046875
-0.310170234375,0.04296297607421875,0.8879213623046875
-0.296554140625,0.10276501708984374,0.8358188427734374
-0.2484115234375,0.09737302978515625,0.7851909228515626
-0.2143712890625,-0.04085791748046875,0.7729025927734375
-0.240144609375,-0.122472998046875,0.93928658203125
-0.2746711328125,0.00276816162109375,1.04349162109375
-0.22239505859375,-0.12124754638671875,0.9449392138671875
-0.1608794921875,-0.2131564208984375,1.0501273193359375
-0.3631757421875,-0.2121760595703125,1.013508095703125
-0.21121041015625,-0.19575500732421874,0.8638362353515625
-0.29242068359375,-0.11977700439453125,0.726452705078125
-0.17911533203125,-0.07664110595703125,0.6497735253906249
-0.23892888671875,-0.16340308349609375,0.665502587890625
-0.23455228515625,-0.08154291259765625,0.7424275341796875
-0.11322316406249999,-0.0151234326171875,0.6657483544921875
-0.10033650390625,0.095167216796875,0.8107506494140625
-0.26810623046875,0.05031568603515625,1.080356611328125
-0.4380642578125,-0.0200252392578125,1.09952640625
-0.39089421875,0.1809488330078125,0.9815584374999999
-0.1881116796875,0.1780077490234375,0.8569547705078124
-0.20026890625,0.07629526123046874,0.869980400390625
-0.23552486328125,0.00717978759765625,0.8441749072265625
-0.23212083984375,-0.136198056640625,0.819844013671875
-0.17960162109375,-0.2317832861328125,0.6583753564453125
-0.08137123046875,-0.19232374267578126,0.6308494970703125
-0.15164,-0.21781313720703124,0.7773263916015625
-0.25497642578125,-0.2141367822265625,0.7596311962890625
-0.3242726171875,-0.03546593017578125,0.8368019091796874
-0.38724705078125,0.0530116796875,0.9449392138671875
-0.26372962890625,0.1280093212890625,0.9921264013671875
-0.10544253906250001,0.17874302001953124,1.213070576171875
-0.24719580078125,0.27383806884765627,1.4069804248046875
-0.271267109375,0.2547210229492187,1.403785458984375
-0.26859251953125,0.00570924560546875,1.186527783203125
-0.18689595703125,-0.0690433056640625,0.930438984375
-0.27515742187500003,-0.05115171142578125,0.779538291015625
-0.23503857421875,-0.140119501953125,0.6922911474609375
-0.1219763671875,-0.2268814794921875,0.6229849658203125
-0.09061072265625,-0.2631548486328125,0.7817501904296875
-0.13389044921874999,-0.2700173779296875,0.9798380712890625
-0.1205175,-0.04698517578125,1.01596576171875
-0.2416034765625,0.01159141357421875,1.2310115380859374
-0.3656071875,-0.120512275390625,1.3357081103515624
-0.3126016796875,-0.02958376220703125,1.2683680615234374
-0.35563826171875,0.127519140625,1.0987891064453126
-0.3009307421875,0.008895419921875,1.0137538623046876
-0.21801845703125,-0.028358310546875,0.9360916162109375
-0.317950859375,-0.11977700439453125,0.9134810888671875
-0.18470765625,-0.20849970458984374,0.7596311962890625
-0.10325423828125,-0.232273466796875,0.63846826171875
-0.13048642578125,-0.07468038330078125,0.672384052734375
-0.10908970703125,-0.03522083984375,0.881777197265625
-0.206104375,-0.19918627197265626,1.136391396484375
-0.288773515625,0.0358553564453125,1.378717265625
-0.38141158203125003,0.099088662109375,1.415582255859375
-0.516356796875,0.0010525292968750002,1.2875378564453124
-0.3967296875,0.14835181884765625,1.0388220556640624
-0.268349375,-0.01389798095703125,0.8825144970703125
-0.1949197265625,-0.042083369140625,0.8490902392578125
-0.1647698046875,-0.0759058349609375,1.025304892578125
-0.22871681640625,-0.07468038330078125,1.192426181640625
-0.37265837890625,-0.20163717529296876,1.149171259765625
-0.20732009765625,-0.212666240234375,0.9596852099609375
-0.2095083984375,7.216796875000007e-05,0.9129895556640625
-0.18106048828125,-0.18202994873046874,0.814928681640625
-0.30895451171875,-0.17761832275390624,0.8535140380859375
-0.288773515625,-0.201882265625,0.828200078125
-0.16258150390625,-0.287173701171875,0.8662939013671875
-0.1589343359375,-0.18252012939453124,1.0621698828125
-0.2523018359375,-0.16487362548828124,1.0857634765625
-0.2435486328125,-0.238155634765625,1.1880023828125
-0.1667149609375,-0.10972830078125,1.2668934619140626
-0.32451576171875,-0.048945898437499996,1.2123332763671875
-0.23552486328125,-0.012672529296875,1.1582646240234376
-0.21558701171875,-0.09036616455078125,1.0899415087890625
-0.2488978125,0.0407571630859375,1.023338759765625
-0.26056875,0.01012087158203125,0.8694888671875
-0.12951384765625001,-0.09012107421875,0.7517666650390625
-0.25594900390624997,-0.05850442138671875,0.828200078125
-0.21218298828125,-0.09183670654296874,0.8898874951171875
-0.26664736328125,-0.26487048095703125,0.7987080859375
-0.30020130859375,-0.1915884716796875,0.7266984716796875
-0.19078626953125,-0.06536695068359374,0.624213798828125
-0.26421591796875,-0.12271808837890624,0.5463057861328124
-0.08477525390625,-0.18006922607421874,0.530822490234375
-0.07164544921875,-0.010711806640625,0.8825144970703125
-0.16185207031249998,0.0515411376953125,1.2369099365234375
-0.19224513671875,0.00791505859375,1.5706609814453125
-0.37995271484375,0.04712951171875,1.6748660205078125
-0.3592854296875,0.0446786083984375,1.3563525048828124
-0.50687416015625,0.11207844970703125,1.02088109375
-0.47259078125,0.01208159423828125,0.715638974609375
-0.12076064453125,-0.03203466552734375,0.522957958984375
-0.0266637109375,-0.0906112548828125,0.474296171875
0.0093216796875,-0.1298257080078125,0.5541703173828125
-0.05170759765625,-0.2111956982421875,0.862115869140625
-0.337402421875,-0.10188541015625,1.1582646240234376
-0.489124609375,-0.165608896484375,1.3371827099609375
-0.35515197265625,0.02678701416015625,1.338903076171875
-0.4011062890625,0.1809488330078125,1.2133163427734375
-0.15334201171875,0.0037485229492187503,1.03759322265625
-0.13413359375,-0.173451787109375,1.0407881884765624
-0.29363640625,-0.05703387939453125,0.827708544921875
-0.29922873046875,-0.13007079833984375,0.6682060205078125
-0.11857234375,-0.20065681396484375,0.518042626953125
-0.0587587890625,-0.1857063037109375,0.461024775390625
-0.01961251953125,-0.149923115234375,0.5605602490234375
-0.08331638671875,-0.25090033203125,0.796741953125
-0.2153438671875,-0.2513905126953125,1.061678349609375
-0.38043900390625,-0.1337471533203125,1.3121145166015624
-0.31430369140625003,-0.25702759033203126,1.2850801904296876
-0.30068759765624997,-0.19330410400390624,1.28139369140625
-0.2843969140625,-0.01634888427734375,1.2383845361328125
-0.28512634765625,0.10717664306640624,1.1007552392578126
-0.41423609375,-0.042328459472656246,1.0132623291015626
-0.39745912109375,-0.22859711181640624,0.8987350927734374
-0.10519939453125,-0.1582561865234375,0.844420673828125
-0.13778076171875,0.05325677001953125,0.851302138671875
-0.004051269531250002,-0.0562986083984375,0.7817501904296875
-0.11492517578125,-0.20727425292968749,0.88226873046875
-0.146777109375,-0.0033590966796874996,0.923065986328125
-0.1910294140625,-0.044044091796875,1.0250591259765625
-0.19370400390625,-0.224430576171875,1.1388490625
-0.16015005859375,-0.0386521044921875,1.238630302734375
-0.23406599609375,-0.198941181640625,1.2671392285156249
-0.43830740234375,-0.0592396923828125,1.3076907177734376
-0.5990259375,-0.10262068115234375,1.133442197265625
-0.53021603515625,-0.14085477294921875,0.9523122119140625
-0.39891798828125,-0.10409122314453124,0.7581565966796875
-0.03566005859375,-0.0001729223632812504,0.671400986328125
0.057464296875,-0.0612004150390625,0.7802755908203125
0.06937837890625,-0.14036459228515624,0.9324051171875
-0.0932853125,-0.20849970458984374,1.0857634765625
-0.34883021484375,-0.220509130859375,1.1376202294921876
-0.3096839453125,-0.1484525732421875,0.99433830078125
-0.3271903515625,-0.1396293212890625,0.8136998486328125
-0.329621796875,0.03953171142578125,0.9080742236328125
-0.392839375,7.216796875000007e-05,0.9945840673828125
-0.3028758984375,-0.0621807763671875,0.98057537109375
-0.06678255859375,0.01575794921875,0.9985163330078125
-0.17425244140625,0.01208159423828125,1.092153408203125
-0.14580453125,-0.1298257080078125,1.1798920849609376
-0.30117388671875,-0.0001729223632812504,1.251410166015625
-0.40572603515625,0.024581201171875,0.979100771484375
-0.35952857421875,-0.1651187158203125,0.7613515625
-0.3456693359375,-0.16193254150390626,0.659604189453125
-0.142886796875,-0.18840229736328126,0.53229708984375
0.07764529296875,-0.11340465576171875,0.5821877099609375
0.1479140625,-0.02615249755859375,0.8505648388671875
0.17393052734375,-0.0288484912109375,1.410175390625
-0.5810332421875,-0.07026875732421875,1.61956853515625
-0.753665859375,0.08609887451171874,1.5795085791015624
-0.45313921875,0.16109651611328124,1.07494974609375
-0.38821962890625,0.04639424072265625,0.7768348583984375
-0.0466015625,-0.030319033203124998,0.5743231787109375
0.08542591796875,-0.0180645166015625,0.5104238623046875
0.1221407421875,-0.03644629150390625,0.5627721484375
-0.02593427734375,-0.19330410400390624,0.6377309619140625
-0.2104809765625,-0.25604722900390625,0.7534870312499999
-0.195406015625,-0.29722240478515627,0.9916348681640625
-0.14702025390625,-0.3729553173828125,1.2275708056640624
-0.0500055859375,-0.393052724609375,1.4040312255859375
-0.08380267578125,-0.14085477294921875,1.4541676123046874
-0.21801845703125,0.0182088525390625,1.5239653271484375
-0.47672423828125,-0.06291604736328126,1.37380193359375
-0.3369161328125,-0.151883837890625,1.13098453125
-0.33424154296874997,-0.123453359375,0.8638362353515625
-0.39113736328125,-0.051886982421875,0.7404614013671875
-0.07893978515625,0.0946770361328125,0.6893419482421875
0.02415349609375,0.06747200927734374,0.6062728369140625
0.039957890625,-0.0729647509765625,0.562280615234375
0.03290669921875,-0.1798241357421875,0.9400238818359374
-0.03079716796875,-0.2254109375,1.2147909423828125
-0.36682291015625,-0.14281549560546875,1.420497587890625
-0.42080099609375,-0.2131564208984375,1.47702390625
-0.5056584375,-0.0964934228515625,1.157035791015625
-0.3446967578125,0.03708080810546875,1.054796884765625
-0.41253408203124997,0.0255615625,1.1486797265625
-0.4711319140625,-0.13154134033203124,0.8852179296875
-0.148722265625,-0.0612004150390625,0.7149016748046875
-0.11687033203125,0.106931552734375,0.935845849609375
-0.32548833984375003,-0.06242586669921875,0.8962774267578125
-0.1774133203125,-0.1778634130859375,0.969270107421875
-0.0334717578125,-0.092081796875,1.0417712548828124
-0.20415921875,0.1946738916015625,1.26566462890625
-0.098148203125,-0.0396324658203125,1.2162655419921875
-0.04344068359375,-0.201882265625,1.17915478515625
-0.27515742187500003,-0.042083369140625,1.1253318994140624
-0.3913805078125,-0.01978014892578125,0.907336923828125
-0.47477908203125,-0.089140712890625,0.84491220703125
-0.46699845703125,-0.04772044677734375,0.93535431640625
-0.39794541015625,-0.2668312036132813,0.889641728515625
-0.22482650390625,-0.15261910888671876,0.8181236474609375
-0.131215859375,0.052031318359375,0.9449392138671875
-0.0699434375,-0.20310771728515625,0.834590009765625
-0.02398912109375,-0.2327636474609375,1.00023669921875
0.0008116210937499993,-0.1121792041015625,1.34627607421875
-0.39089421875,0.015022678222656249,1.2546051318359375
-0.430769921875,0.00987578125,0.966320908203125
-0.252788125,0.11109808837890625,0.8441749072265625
-0.16112263671875,0.11256863037109376,0.883743330078125
-0.3767918359375,0.0387964404296875,1.0255506591796875
-0.42420501953125,-0.12418863037109375,0.87243806640625
-0.38457246093749997,-0.2102153369140625,0.6195442333984374
-0.13534931640625,-0.1901179296875,0.6215103662109375
-0.11857234375,-0.21389169189453125,0.7291561376953125
-0.07650833984375,-0.14869766357421876,1.0476696533203125
-0.10860341796875,-0.24820433837890626,1.5183126953125
-0.31430369140625003,-0.18153976806640626,1.6384925634765626
-0.2416034765625,-0.22320512451171876,1.276969892578125
-0.09450103515625,0.009140510253906251,0.9759058056640625
-0.2017277734375,0.02237538818359375,0.7827332568359375
-0.2785614453125,-0.14183513427734376,0.8643277685546875
-0.32305689453124997,-0.28790897216796874,0.9009469921875
-0.279047734375,-0.21242114990234376,0.772656826171875
-0.22725794921875,-0.04183827880859375,0.7380037353515625
-0.17571130859375,-0.21830331787109375,0.61979
-0.04854671875,-0.14183513427734376,0.6323240966796875
-0.265431640625,-0.02027032958984375,0.767741494140625
-0.18008791015625,-0.19624518798828125,0.682214716796875
-0.2143712890625,-0.25457668701171876,0.66206185546875
-0.1492085546875,-0.20114699462890626,0.6082389697265624
-0.06240595703125,-0.1004148681640625,0.5900522412109375
0.02269462890625,0.00325834228515625,0.7453767333984375
0.0667037890625,0.03953171142578125,0.9429730810546875
-0.16452666015625,0.11992134033203125,1.1587561572265626
-0.44851947265625003,0.04688442138671875,1.0928907080078125
-0.277102578125,0.08903995849609375,1.0747039794921875
-0.22190876953125,0.03413972412109375,1.24600330078125
-0.26324333984375,-0.07370002197265625,1.2295369384765624
-0.2454937890625,0.04786478271484375,1.150154326171875
-0.18154677734375,0.0338946337890625,0.8419630078125
-0.1025248046875,-0.1602169091796875,0.655671923828125
0.05576228515625,-0.0602200537109375,0.762826162109375
-0.125380390625,0.0387964404296875,1.0643817822265624
-0.2133987109375,0.0819323388671875,1.1272980322265624
-0.11103486328125,0.187321181640625,1.1533492919921875
-0.34056330078125,0.1848702783203125,1.138357529296875
-0.3694975,-0.04575972412109375,0.9193794873046874
-0.21704587890625,0.056933125,0.8456495068359375
-0.1997826171875,-0.04085791748046875,0.9365831494140625
0.04457763671875,-0.19820591064453125,0.923065986328125
0.07959044921875,-0.22345021484375,1.19488384765625
-0.4448723046875,-0.126394443359375,1.252884765625
-0.5041995703125,-0.1430605859375,0.8554801708984375
-0.27685943359375,-0.2288422021484375,0.4317785498046875
-0.0052669921875,-0.114630107421875,0.56572134765625
0.1036617578125,0.00987578125,0.89013326171875
-0.12416466796875,0.1162449853515625,1.115747001953125
-0.4049966015625,0.0868341455078125,1.3779799658203125
-0.4477900390625,0.0133070458984375,1.4482692138671875
-0.28415376953125,-0.0876701708984375,1.188493916015625
-0.10325423828125,-0.05605351806640625,0.8638362353515625
0.098312578125,-0.0259074072265625,0.9144641552734375
-0.06921400390625,-0.10507158447265624,1.2491982666015624
-0.491069765625,-0.21977385986328124,1.3730646337890624
-0.46991619140625,-0.24281235107421875,1.1818582177734376
-0.23795630859375,-0.11732610107421874,1.0255506591796875
-0.12854126953125,-0.16242272216796874,1.0486527197265625
-0.08137123046875,-0.23104801513671874,1.212087509765625
-0.25497642578125,-0.106787216796875,1.383141064453125
-0.27637314453125,0.03904153076171875,1.2487067333984374
-0.2989855859375,-0.11634573974609375,0.9670582080078125
-0.17911533203125,0.10399046875,0.938303515625
-0.21412814453125,0.14786163818359374,1.0388220556640624
-0.236254296875,-0.24697888671875,1.0103131298828125
-0.30020130859375,-0.20212735595703124,0.9945840673828125
-0.10763083984374999,-0.2347243701171875,0.755944697265625
-0.27977716796875,-0.2690370166015625,0.7389868017578125
-0.29776986328125,-0.27663481689453123,0.6849181494140625
-0.12246265625,-0.27516427490234374,0.71121517578125
0.048711093750000004,-0.06291604736328126,0.81345408203125
0.01345513671875,0.04296297607421875,1.1533492919921875
-0.10544253906250001,-0.07664110595703125,1.3720815673828124
-0.35661083984374997,0.03708080810546875,1.360530537109375
-0.34931650390625,0.19540916259765626,1.0879753759765625
-0.48936775390625,0.11501953369140624,0.9815584374999999
-0.520247109375,0.05423713134765625,0.8790737646484375
-0.2211793359375,-0.19771572998046874,0.6569007568359375
-0.21753216796875,0.02335574951171875,0.780521357421875
-0.2775888671875,-0.2092349755859375,0.601603271484375
-0.2644590625,-0.23447927978515626,0.5249240917968749
-0.0655668359375,-0.157766005859375,0.52246642578125
-0.01572220703125,-0.1327667919921875,0.572111279296875
-0.02933830078125,-0.222469853515625,0.6554261572265625
-0.05802935546875,-0.15801109619140624,0.838522275390625
-0.08477525390625,-0.07443529296875,1.1159927685546875
-0.21072412109375,0.16256705810546876,1.3710985009765624
-0.44997833984375,0.26452463623046873,1.4900495361328125
-0.60364568359375,0.2436919580078125,1.3086737841796876
-0.44025255859375,0.2623188232421875,1.0184234277343749
-0.06143337890625,-0.13325697265625,0.758893896484375
-0.1258666796875,-0.25702759033203126,0.6642737548828125
-0.18397822265625,-0.2729584619140625,0.5698993798828125
-0.055354765624999996,-0.18815720703125,0.6677144873046875
-0.002106113281250002,-0.22320512451171876,0.9599309765625
-0.08283009765625,-0.3624164331054687,1.245020234375
-0.2347954296875,-0.22859711181640624,1.1213996337890624
-0.382141015625,0.0231106591796875,0.8205813134765625
-0.38287044921875,0.0054641552734375,0.6057813037109375
-0.3553951171875,-0.0210056005859375,0.4366938818359375
-0.09401474609375,0.0446786083984375,0.40302385742187496
0.0744844140625,0.028257556152343752,0.499364365234375
0.076915859375,0.04247279541015625,0.5460600195312499
-0.0855046875,0.158890703125,0.880794130859375
-0.1560166015625,-0.14109986328125,1.159984990234375
-0.33278267578125,-0.15065838623046876,1.688874716796875
-0.50492900390625,0.02531647216796875,1.8132326171875
-0.27442798828125,0.08854977783203125,1.30498728515625
-0.232363984375,0.1235976953125,0.9508376123046876
-0.26907880859375,0.0608545703125,0.9356000830078125
-0.08185751953125,-0.05556333740234375,0.7746229589843749
-0.2347954296875,0.030463369140625002,0.687130048828125
-0.10908970703125,0.13070531494140625,0.5964421728515625
-0.11322316406249999,0.061834931640625,0.530822490234375
-0.04392697265625,-0.03693647216796875,0.591772607421875
-0.07796720703125,-0.1082577587890625,0.8608870361328125
-0.115654609375,-0.10188541015625,1.1346710302734375
-0.35101851562499997,-0.14869766357421876,1.140323662109375
-0.1988100390625,-0.20653898193359374,1.1700614208984375
-0.07553576171875,-0.17124597412109374,1.394446328125
-0.255705859375,-0.05409279541015625,1.2811479248046875
-0.39891798828125,0.023845930175781252,1.3256316796875
-0.1929745703125,0.02923791748046875,1.095102607421875
-0.0363894921875,-0.0028689160156250004,1.03169482421875
-0.13802390625,-0.2396261767578125,0.9614055761718749
-0.10422681640625,-0.00360418701171875,0.9321593505859375
-0.36536404296875,0.00668960693359375,0.6539515576171875
-0.2970404296875,-0.0690433056640625,0.5212375927734375
0.0467659375,-0.1210024560546875,0.5900522412109375
0.21526509765625,-0.02174087158203125,0.9601767431640625
0.156667265625,-0.3121729150390625,1.4868545703125
-0.55015388671875,-0.3180550830078125,1.5500165869140625
-0.55550306640625,-0.14526639892578125,1.0810939111328124
-0.22239505859375,0.0250713818359375,0.9953213671875
-0.11225058593750001,0.03610044677734375,1.0437373876953124
-0.016937929687500002,0.1584005224609375,1.323174013671875
0.05527599609375,0.0843832421875,1.6205516015625
-0.19127255859375,0.0397768017578125,1.646602861328125
-0.4594609765625,0.18119392333984374,1.3475049072265626
-0.45581380859375,-0.1396293212890625,0.791335087890625
-0.35028908203125,-0.15556019287109374,0.4691350732421875
0.11557583984375,-0.071494208984375,0.5217291259765625
0.19678611328125,-0.0749254736328125,0.738249501953125
0.12189759765625,-0.20408807861328124,0.9955671337890625
-0.337402421875,-0.2933009594726563,1.407717724609375
-0.32159802734375,-0.25996867431640625,1.2187232080078125
-0.24476435546875,-0.05899460205078125,1.3452930078125
-0.39940427734375,0.042227705078125,1.2998261865234375
-0.471618203125,0.06600146728515625,1.2236385400390626
-0.236254296875,0.15178308349609376,0.957473310546875
0.08299447265625,-0.0621807763671875,0.83508154296875
-0.10617197265625,-0.19967645263671874,0.9960586669921875
-0.16112263671875,0.1157548046875,1.056271484375
-0.25351755859375,-0.1249239013671875,0.7905977880859375
-0.27613,-0.1376685986328125,0.692045380859375
-0.20683380859375,0.0387964404296875,0.6834435498046875
0.020506328125,-0.11095375244140625,0.8839890966796875
0.01005111328125,-0.11536537841796875,1.0668394482421875
0.0472522265625,0.0608545703125,1.405751591796875
-0.3077387890625,0.0917359521484375,1.7220532080078126
-0.61385775390625,0.09443194580078125,1.569923681640625
-0.55064017578125,-0.0803174609375,1.1548238916015625
-0.3563676953125,-0.20163717529296876,0.8368019091796874
-0.37119951171875,-0.09330724853515625,0.5792385107421875
0.0316909765625,-0.08497417724609375,0.44185498046875
0.054789707031249996,-0.167569619140625,0.462990908203125
0.01369828125,-0.20800952392578126,0.68368931640625
0.03874216796875,-0.22859711181640624,0.89799779296875
-0.0811280859375,-0.255802138671875,0.9301932177734376
-0.22288134765625,-0.18742193603515625,0.68270625
-0.0310403125,0.019434304199218752,0.6807401171875
-0.030067734375000002,0.08315779052734375,1.053813818359375
-0.14629082031250001,0.1780077490234375,1.2627154296875
-0.1978374609375,0.130460224609375,1.5455927880859375
-0.4555706640625,-0.242077080078125,1.2555881982421875
-0.391866796875,-0.01193725830078125,1.039067822265625
-0.14507509765624998,0.106931552734375,0.9734481396484375
-0.1307295703125,-0.1092381201171875,0.8795652978515625
-0.1774133203125,-0.12811007568359375,0.969270107421875
-0.13534931640625,-0.15605037353515624,0.844420673828125
-0.19759431640625,-0.24134180908203126,0.6052897705078125
0.06451548828125,-0.1337471533203125,0.611433935546875
0.03874216796875,-0.18153976806640626,0.5153391943359376
0.052601406249999996,-0.15065838623046876,0.6534600244140625
0.10098716796875,-0.1543347412109375,1.0786362451171876
-0.17765646484375,-0.17075579345703126,1.414599189453125
-0.461892421875,0.0044837939453125,1.370361201171875
-0.13437673828125,-0.04821062744140625,1.194392314453125
-0.11857234375,-0.07958218994140626,1.342835341796875
-0.26056875,0.1436951025390625,1.5785255126953124
-0.35223423828125,0.0946770361328125,1.3303012451171874
-0.3952708203125,-0.026397587890625,0.9739396728515625
-0.010616171875,-0.00654527099609375,0.7999369189453125
-0.142886796875,-0.1004148681640625,0.792318154296875
0.001541054687499998,-0.21487205322265626,0.7448852001953125
0.09709685546874999,0.013552136230468751,0.8970147265625
-0.1248941015625,0.1941837109375,0.865065068359375
-0.279047734375,0.0221302978515625,0.728418837890625
-0.08039865234375,-0.27271337158203124,0.619298466796875
0.004458789062499999,-0.2494297900390625,0.8952943603515625
-0.13923962890625,0.07874616455078125,1.2231470068359376
-0.30360533203125,0.1652630517578125,1.251410166015625
-0.25838044921875,-0.12761989501953125,1.4561337451171874
-0.3612305859375,-0.23521455078125,1.4278705859375
-0.23163455078125,-0.1744321484375,1.10640787109375
-0.004051269531250002,0.02433611083984375,0.884726396484375
0.17198537109375,-0.15016820556640625,0.8569547705078124
-0.05024873046875,-0.23521455078125,1.0619241162109374
-0.1103054296875,-0.20555862060546876,1.103950205078125
-0.04733099609375,-0.19036302001953126,1.1351625634765625
-0.06435111328125,-0.06928839599609375,0.9749227392578125
0.04214619140625,-0.22026404052734375,0.936828916015625
-0.09693248046875,-0.0994345068359375,0.9065996240234375
-0.19078626953125,-0.0631611376953125,0.8567090039062499
-0.2707808203125,0.10815700439453126,0.964354775390625
-0.45873154296875,0.09247122314453125,1.1526119921875
-0.47429279296875,0.132420947265625,1.08871267578125
-0.38870591796875,0.04149243408203125,0.854251337890625
0.131380234375,-0.014633251953124999,0.8033776513671875
0.11849357421875,-0.055808427734375,0.793301220703125
0.11849357421875,-0.02174087158203125,0.9552614111328125
-0.29169125,-0.0621807763671875,1.1204165673828126
-0.3495596484375,0.08364797119140625,1.0778989453125
-0.3515048046875,-0.01953505859375,0.998762099609375
-0.20537494140625,-0.2170778662109375,0.9272440185546875
0.0997714453125,-0.2592334033203125,1.070525947265625
-0.04344068359375,-0.015368522949218751,1.07888201171875
-0.16306779296875,-0.15408965087890625,0.87243806640625
-0.24233291015625,-0.267566474609375,0.80952181640625
-0.3505322265625,-0.05311243408203125,0.7901062548828125
-0.201241484375,0.159871064453125,0.8301662109375
-0.037848359375,0.17090012939453125,0.7910893212890625
0.15593783203125,0.02531647216796875,1.103950205078125
0.006403945312499999,-0.2249207568359375,1.4389300830078124
-0.37314466796875,-0.21536223388671874,1.525685693359375
-0.34421046875,-0.05409279541015625,1.334970810546875
-0.3223274609375,0.12555841796875,1.0609410498046874
-0.28974609375,-0.11291447509765624,0.918150654296875
-0.3135742578125,-0.079337099609375,1.07298361328125
-0.40134943359374997,-0.0317895751953125,1.0545511181640626
-0.35588140625,-0.1004148681640625,0.8584293701171875
-0.19419029296875,-0.05115171142578125,0.7753602587890625
-0.10228166015625,0.0486000537109375,0.7021218115234376
0.0482248046875,-0.030073942871093752,0.719571240234375
0.12773306640624998,-0.02909358154296875,1.01203349609375
-0.09401474609375,0.10595119140625,1.32858087890625
-0.46213556640625,-0.2043331689453125,1.10837400390625
-0.39065107421875,-0.21046042724609376,0.8576920703124999
-0.26129818359375,-0.2611941259765625,0.7596311962890625
-0.252788125,-0.27246828125,0.68172318359375
-0.07018658203125,0.04149243408203125,0.730384970703125
-0.21753216796875,0.122617333984375,0.9324051171875
-0.48815203125,-0.0327699365234375,0.846386806640625
-0.35101851562499997,0.03659062744140625,0.855234404296875
0.06889208984375,-0.09036616455078125,1.068559814453125
-0.216802734375,-0.05360261474609375,1.036118623046875
-0.26154132812499997,-0.14722712158203125,0.8952943603515625
-0.02787943359375,-0.2516356030273437,0.7279273046875
0.02318091796875,-0.23913599609375,0.5074746630859375
-0.0067258593750000005,-0.2582530419921875,0.7630719287109375
-0.033958046875,-0.1827652197265625,0.922082919921875
-0.3592854296875,0.0515411376953125,0.9641090087890625
-0.19808060546875,0.24001560302734376,1.3676577685546876
-0.16185207031249998,-0.00409436767578125,1.58712734375
-0.35904228515625003,0.218692744140625,1.6217804345703124
-0.35077537109375,0.22531018310546874,1.319241748046875
