ax,ay,az
-0.2192341796875,0.05105095703125,1.4089465576171876
-0.38724705078125,0.08756941650390625,1.463752509765625
-0.46529644531250003,0.01110123291015625,1.392971728515625
-0.317950859375,0.24589777099609375,1.195375380859375
-0.45095091796875,0.25496611328125,1.0127707958984375
-0.380195859375,0.206928408203125,0.849336005859375
-0.3116291015625,0.171635400390625,0.81148794921875
-0.29582470703125,0.11403917236328125,0.7613515625
-0.24719580078125,-0.0700236669921875,0.69548611328125
-0.10690140625,-0.12516899169921875,0.737266435546875
-0.187625390625,-0.21389169189453125,0.73874103515625
-0.370470078125,-0.06095532470703125,0.8171405810546875
-0.2104809765625,-0.013407800292968751,0.95501564453125
-0.3709563671875,0.11158826904296874,1.1329506640625
-0.4361191015625,0.22383964111328125,1.2285538720703124
-0.2668905078125,0.2571719262695312,1.262223896484375
-0.22093619140625,0.27089698486328123,1.253376298828125
-0.23066197265625,0.24736831298828124,1.1720275537109375
-0.21193984375,0.17972338134765625,1.0820769775390624
-0.33035123046875,0.12482314697265626,1.0149826953125
-0.3446967578125,0.17261576171875,1.0004824658203124
-0.3077387890625,-0.1249239013671875,0.8830060302734375
-0.32937865234375,-0.1210024560546875,0.8997181591796874
-0.27442798828125,-0.06683749267578125,0.789368955078125
-0.31187224609374997,-0.18815720703125,0.6632906884765625
-0.382141015625,-0.07958218994140626,0.6593584228515625
-0.3164919921875,0.01575794921875,0.6524769580078125
-0.28026345703125,0.09933375244140626,0.6967149462890625
-0.30530734375,0.1221271533203125,0.8304119775390625
-0.2571647265625,0.032424091796875,0.7960046533203124
-0.164283515625,0.0329142724609375,0.75053783203125
-0.16793068359375,0.05717821533203125,0.8997181591796874
-0.28415376953125,0.010856142578125,1.02776255859375
-0.4166675390625,-0.18595139404296876,1.0702801806640625
-0.24768208984375,-0.22026404052734375,1.118696201171875
-0.15358515625,0.02139502685546875,1.2904870556640624
-0.26518849609375,0.1289896826171875,1.477515439453125
-0.44365658203125,0.15472416748046874,1.4966852343750001
-0.44900576171875,0.2015364208984375,1.2981058203125
-0.45386865234375,0.08217742919921875,1.012525029296875
-0.30409162109375,-0.0386521044921875,0.8694888671875
-0.25108611328125,-0.02762303955078125,0.81935248046875
-0.3797095703125,0.08242251953125,0.7161305078125
-0.3048210546875,0.07580508056640625,0.6347817626953125
-0.11735662109375,0.01257177490234375,0.6554261572265625
-0.228473671875,0.02752228515625,0.918150654296875
-0.25838044921875,0.06796218994140625,1.20668064453125
-0.393811953125,-0.046004814453125,1.4276248193359375
-0.5100350390625,-0.0038492773437499997,1.406243125
-0.502740703125,0.09810830078125,1.1469593603515624
-0.37898013671874997,0.1079119140625,0.943710380859375
-0.24281919921875,0.07041309326171875,0.8554801708984375
-0.368524921875,0.1079119140625,0.8365561425781249
-0.1900568359375,-0.018554697265625,0.8849721630859375
-0.2065906640625,-0.0955130615234375,0.84687833984375
-0.26154132812499997,-0.04723026611328125,0.8633447021484375
-0.37168580078125,-0.0121823486328125,0.9321593505859375
-0.29509527343749997,0.071638544921875,1.0179318945312499
-0.4234755859375,0.17531175537109375,0.9891772021484375
-0.347128203125,0.14345001220703124,0.85081060546875
-0.302389609375,0.1015395654296875,0.7522581982421875
-0.325731484375,0.0701680029296875,0.7576650634765625
-0.35563826171875,0.09639266845703125,0.761843095703125
-0.14604767578125,7.216796875000007e-05,0.81640328125
-0.24233291015625,-0.09796396484375,0.9124980224609375
-0.25594900390624997,-0.014633251953124999,1.0088385302734375
-0.33375525390625,0.014777587890624999,1.071509013671875
-0.38724705078125,-0.02517213623046875,1.0348897900390626
-0.31624884765625,0.04884514404296875,1.0417712548828124
-0.34834392578125,0.0505607763671875,1.103458671875
-0.36536404296875,0.03708080810546875,1.036118623046875
-0.30871136718750003,0.06796218994140625,0.775606025390625
-0.2532744140625,0.07874616455078125,0.7257154052734375
-0.25983931640625,0.028257556152343752,0.759876962890625
-0.23163455078125,0.01183650390625,0.9166760546875
-0.28585578125,0.0211499365234375,1.158510390625
-0.3962433984375,-0.0249270458984375,1.228799638671875
-0.393811953125,0.03168882080078125,1.252884765625
-0.36487775390625,0.013552136230468751,1.1405694287109376
-0.4059691796875,-0.02321141357421875,1.04545775390625
-0.3126016796875,0.089285048828125,1.0629071826171874
-0.33035123046875,-0.06781785400390625,0.9537868115234375
-0.30798193359375,0.0010525292968750002,0.896523193359375
-0.21972046875,-0.0161037939453125,0.791335087890625
-0.2513292578125,-0.118551552734375,0.729401904296875
-0.19224513671875,-0.16781470947265625,0.7060540771484375
-0.3344846875,-0.159726728515625,0.76921609375
-0.18859796875,-0.07517056396484376,0.8599039697265625
-0.4215304296875,-0.10948321044921874,1.01006736328125
-0.3631757421875,0.05325677001953125,1.1440101611328124
-0.2338228515625,0.13658748291015624,1.1189419677734376
-0.48766574218750003,0.08658905517578125,1.1086197705078125
-0.41545181640625,0.13413657958984376,1.155069658203125
-0.25935302734375,0.0397768017578125,0.9911433349609375
-0.2328502734375,0.0760501708984375,0.91569298828125
-0.20877896484375,0.116735166015625,0.886692529296875
-0.30530734375,-0.0013983740234375002,0.82525087890625
-0.19759431640625,0.0054641552734375,0.8154202148437499
-0.3028758984375,0.0329142724609375,0.84884447265625
-0.24233291015625,0.1000690234375,0.943710380859375
-0.314060546875,0.12874459228515625,0.9778719384765625
-0.5110076171875,0.11967625,1.0427543212890624
-0.3602580078125,0.179478291015625,0.9798380712890625
-0.29582470703125,0.1035002880859375,0.7871570556640625
-0.27783201171875,0.15178308349609376,0.7733941259765625
-0.26324333984375,0.09541230712890625,0.7952673535156249
-0.2211793359375,0.02286556884765625,1.007609697265625
-0.26032560546875,0.110852998046875,1.21061291015625
-0.273212265625,-0.038161923828125,1.2437914013671876
-0.4020788671875,-0.00458454833984375,1.2074179443359374
-0.403537734375,-0.06193568603515625,0.99040603515625
-0.224583359375,0.0838930615234375,0.9724650732421874
-0.4156949609375,0.024581201171875,1.0385762890625
-0.42931105468749997,0.0221302978515625,1.1115689697265625
-0.33132380859375,0.0133070458984375,1.0992806396484376
-0.4225030078125,-0.1062970361328125,0.99433830078125
-0.3111428125,-0.00262382568359375,0.906353857421875
-0.255705859375,-0.07443529296875,0.6750874853515625
-0.14993798828125,-0.0259074072265625,0.609467802734375
-0.2338228515625,-0.08840544189453126,0.6964691796875
-0.29922873046875,0.096147578125,0.99040603515625
-0.33618669921875,-0.0464949951171875,1.06118681640625
-0.40572603515625,-0.1357078759765625,0.9940925341796875
-0.228473671875,-0.02223105224609375,0.835573076171875
-0.35126166015625,-0.09869923583984375,0.7596311962890625
-0.16306779296875,-0.0038492773437499997,0.81935248046875
-0.30919765625,-0.04330882080078125,0.8481071728515625
-0.32159802734375,0.04639424072265625,0.9481341796875
-0.1453182421875,0.01404231689453125,0.7790467578125
-0.26251390625,-0.02149578125,0.90389619140625
-0.15091056640625,0.1691844970703125,0.95501564453125
-0.16136578125,-0.0464949951171875,0.8992266259765624
-0.2299325390625,0.0008074389648437498,0.94125271484375
-0.33521412109375,0.13560712158203125,0.9614055761718749
-0.2328502734375,0.02531647216796875,0.7896147216796875
-0.3223274609375,0.008405239257812499,0.718096640625
-0.33229638671875,0.0819323388671875,0.9124980224609375
-0.405482890625,0.12923477294921876,0.7768348583984375
-0.302389609375,0.12286242431640625,0.7456225
-0.20683380859375,0.11379408203125,0.7950215869140624
-0.263486484375,0.1701648583984375,0.890624794921875
-0.22579908203125,0.2054578662109375,0.957473310546875
-0.29144810546875,0.26305409423828124,1.2074179443359374
-0.28853037109375,0.33535574218749997,1.4453200146484375
-0.41010263671875,0.314768154296875,1.50946509765625
-0.30457791015625,0.2515348486328125,1.5057785986328125
-0.60704970703125,0.159871064453125,1.387073330078125
-0.6102105859375,0.09394176513671874,1.1277895654296874
-0.32694720703125,-0.11144393310546875,0.84884447265625
-0.236254296875,-0.12860025634765626,0.7026133447265624
-0.24379177734375002,-0.22124440185546876,0.7070371435546875
-0.25157240234375,-0.24232217041015625,0.8267254785156251
-0.2484115234375,-0.05115171142578125,1.1120605029296875
-0.33642984375,-0.19673536865234376,1.409683857421875
-0.48426171875,-0.155805283203125,1.5647625830078125
-0.6442508203125,-0.0006631030273437505,1.3706069677734374
-0.26713365234374997,-0.11977700439453125,0.9567360107421875
-0.356853984375,-0.08154291259765625,0.7384952685546875
-0.2999581640625,-0.1768830517578125,0.7050710107421875
-0.2007551953125,-0.210705517578125,0.72497810546875
-0.37752126953125,-0.0097314453125,0.900455458984375
-0.42225986328125,-0.03252484619140625,0.9292101513671875
-0.290718671875,-0.12075736572265625,1.005643564453125
-0.4225030078125,-0.0803174609375,0.9326508837890625
-0.40062,-0.0013983740234375002,0.788385888671875
-0.19370400390625,-0.0964934228515625,0.731368037109375
-0.26324333984375,-0.0425735498046875,0.7237492724609375
-0.31308796875,-0.02909358154296875,0.840488408203125
-0.3690112109375,0.04786478271484375,0.7930554541015625
-0.21461443359375,0.05570767333984375,0.7380037353515625
-0.2411171875,-0.1298257080078125,0.5654755810546875
-0.29509527343749997,0.08242251953125,0.6903250146484375
-0.28950294921874997,-0.02419177490234375,0.656654990234375
-0.22823052734375,-0.02909358154296875,0.6072559033203125
-0.1171134765625,0.127519140625,0.7736398925781249
-0.413263515625,0.07286399658203124,0.8618701025390625
-0.36366203125,0.10864718505859375,0.9410069482421874
-0.257651015625,0.13119549560546875,0.848352939453125
-0.33181009765625,0.15521434814453125,0.73874103515625
-0.25838044921875,0.175556845703125,0.6957318798828125
-0.25473328125,0.214771298828125,0.8778449316406249
-0.2688356640625,0.3025136376953125,1.1140266357421875
-0.32500205078125,0.33560083251953127,1.315309482421875
-0.27540056640625,0.15031254150390624,1.343326875
-0.22044990234375,0.0750698095703125,1.5143804296875
-0.27345541015625,0.1863408203125,1.6952646484375
-0.32208431640625,0.0054641552734375,1.6866628173828124
-0.45411179687500003,0.14908708984375,1.8876998974609376
-0.80788708984375,0.0966377587890625,1.802910419921875
-0.81104796875,-0.0866898095703125,1.2668934619140626
-0.51562736328125,-0.25261596435546874,0.6927826806640625
-0.23941517578125,-0.25849813232421875,0.411379921875
-0.06532369140625,-0.23349891845703125,0.343056806640625
-0.10301109375,-0.23447927978515626,0.49199136718750003
-0.07942607421875,-0.27663481689453123,0.7117067089843749
-0.3777644140625,-0.2982027661132812,0.9547698779296875
-0.5431026953125,-0.18399067138671876,1.003677431640625
-0.56231111328125,-0.10458140380859375,0.97369390625
-0.3709563671875,-0.052867343750000004,1.066593681640625
-0.26470220703125,0.019434304199218752,1.1543323583984375
-0.298499296875,-0.1866866650390625,1.0417712548828124
-0.3923530859375,-0.17663796142578125,1.0633987158203124
-0.42906791015625,-0.03399538818359375,1.0963314404296876
-0.4127772265625,-0.1092381201171875,0.95304951171875
-0.25546271484375,-0.0028689160156250004,1.103458671875
-0.22361078125,0.02972809814453125,1.15752732421875
-0.34931650390625,0.04712951171875,1.1840701171874999
-0.2834243359375,0.03536517578125,0.95894791015625
-0.3787369921875,0.09590248779296875,0.812471015625
-0.35612455078125,0.0005623486328125002,0.6603414892578126
-0.17717017578125,-0.045024453125,0.576043544921875
-0.13486302734375,0.08511851318359374,0.7507835986328125
-0.37800755859375,0.008895419921875,0.9773804052734375
-0.52000396484375,0.008405239257812499,1.112797802734375
-0.4983641015625,0.04100225341796875,1.0461950537109375
-0.41642439453125,-0.0298288525390625,0.9048792578125
-0.1326747265625,0.010611052246093749,0.7837163232421875
-0.09109701171875,0.138303115234375,0.8500733056640625
-0.1744955859375,0.17776265869140626,0.9306847509765624
-0.263486484375,0.09737302978515625,1.0638902490234374
-0.2566784375,-0.01046671630859375,1.149171259765625
-0.46359443359375,0.01796376220703125,1.095594140625
-0.43101306640625,0.013552136230468751,1.0117877294921875
-0.26956509765625,0.03413972412109375,0.8731753662109375
-0.315033125,0.04541387939453125,0.83901380859375
-0.2610550390625,-0.191098291015625,0.9188879541015624
-0.17911533203125,-0.048945898437499996,1.2723003271484374
-0.3281629296875,-0.10188541015625,1.448023447265625
-0.49617580078125,-0.17418705810546875,1.4123872900390624
-0.32840607421875,0.015022678222656249,1.1543323583984375
-0.31770771484375,-0.1901179296875,0.8805483642578125
-0.27734572265625,-0.12811007568359375,0.823776279296875
-0.27102396484375,-0.15359947021484374,0.70924904296875
-0.1365650390625,-0.1190417333984375,0.7670041943359375
-0.29776986328125,-0.0533575244140625,0.7952673535156249
-0.2921775390625,-0.14502130859375,0.8844806298828125
-0.3019033203125,-0.0063001806640625,0.945676513671875
-0.4356328125,-0.020515419921875,1.007609697265625
-0.26081189453125,0.06306038330078124,1.0157199951171876
-0.3476144921875,0.099088662109375,1.090187275390625
-0.4438997265625,0.14001874755859375,1.1538408251953125
-0.279047734375,0.05276658935546875,1.0855177099609374
-0.366579765625,0.13658748291015624,0.967303974609375
-0.38384302734375,0.04149243408203125,0.936828916015625
-0.26081189453125,-0.03546593017578125,1.0189149609375
-0.2104809765625,0.09149086181640625,1.126560732421875
-0.27345541015625,0.0309535498046875,1.1907058154296875
-0.53872609375,0.06306038330078124,1.1164843017578125
-0.40815748046875,0.10521592041015625,1.008592763671875
-0.44851947265625003,0.05129604736328125,0.8097675830078125
-0.4448723046875,-0.0288484912109375,0.694011513671875
-0.21121041015625,-0.059484782714843754,0.6414174609375
0.010294257812499999,-0.0249270458984375,0.8105048828125
-0.2523018359375,-0.00703545166015625,1.18112091796875
-0.5635268359375,-0.032279755859375,1.346767607421875
-0.37314466796875,-0.089140712890625,1.325140146484375
-0.46529644531250003,0.03928662109375,1.1408151953125
-0.36001486328125,0.01453249755859375,0.9301932177734376
-0.1949197265625,-0.01095689697265625,0.859658203125
-0.28707150390625,0.04051207275390625,0.8195982470703125
-0.38967849609375,0.012816865234374999,0.7896147216796875
-0.23795630859375,0.0270321044921875,0.7645465283203124
-0.44535859375,0.0012976196289062499,0.7792925244140625
-0.40329458984375,-0.0327699365234375,0.8136998486328125
-0.27418484375,-0.030319033203124998,0.8800568310546875
-0.23698373046875,-0.079337099609375,0.868997333984375
-0.299471875,-0.035711020507812496,0.8734211328125
-0.39259623046875003,-0.09404251953125001,0.9002096923828125
-0.21510072265625,0.08266760986328126,0.8790737646484375
-0.36828177734375,-0.00262382568359375,0.8702261669921875
-0.280992890625,0.0633054736328125,0.93437125
-0.26275705078125,0.0427178857421875,0.95304951171875
-0.3553951171875,0.01845394287109375,0.984999169921875
-0.323786328125,-0.120512275390625,0.8830060302734375
-0.3369161328125,-0.042083369140625,0.9149556884765625
-0.35588140625,-0.0043394580078125,0.9331424169921875
-0.31989601562500003,0.028502646484374998,0.9827872705078124
-0.35515197265625,0.0069346972656249995,0.8903790283203125
-0.32086859375,-0.0332601171875,0.837539208984375
-0.195406015625,0.0142874072265625,0.8653108349609375
-0.27734572265625,0.02041466552734375,0.9149556884765625
-0.331566953125,0.07286399658203124,0.9301932177734376
-0.2542469921875,-0.02860340087890625,0.92355751953125
-0.45921783203125,0.0495804150390625,1.0579918505859376
-0.28658521484375,0.05717821533203125,1.1248403662109374
-0.24622322265625,0.00791505859375,1.0464408203125
-0.3553951171875,-0.0582593310546875,1.052830751953125
-0.372415234375,0.03413972412109375,1.1388490625
-0.28561263671875,-0.036201201171875,1.0570087841796876
-0.35515197265625,0.02776737548828125,1.0565172509765626
-0.40256515625,-0.0886505322265625,1.0520934521484375
-0.3252451953125,0.0535018603515625,1.0211268603515624
-0.38311359375,-0.00311400634765625,0.9186421875
-0.39016478515624997,0.03119864013671875,0.9166760546875
-0.36147373046875,-0.00581,0.8751414990234375
-0.237226875,-0.00409436767578125,0.89013326171875
-0.4458448828125,0.016738310546875,0.9442019140625
-0.32402947265625,-0.0055649096679687505,1.0658563818359374
-0.4147223828125,0.010611052246093749,0.934862783203125
-0.5000661132812501,-0.08154291259765625,1.0629071826171874
-0.32840607421875,-0.05262225341796875,1.096085673828125
-0.47088876953125003,-0.0724745703125,1.0110504296875
-0.3631757421875,-0.11781628173828125,0.94321884765625
-0.27296912109375,-0.07468038330078125,0.9262609521484375
-0.47672423828125,-0.05874951171875,0.810013349609375
-0.2255559375,0.01404231689453125,0.924049052734375
-0.33764556640625,-0.0631611376953125,0.9881941357421875
-0.4390368359375,-0.0935523388671875,1.1022298388671874
-0.24695265625,-0.1053166748046875,1.0869923095703125
-0.55647564453125,-0.03595611083984375,0.98942296875
-0.30700935546875,0.0348749951171875,1.0314490576171875
-0.44365658203125,-0.042328459472656246,0.964354775390625
-0.49131291015625,-0.022476142578125,1.027271025390625
-0.347128203125,0.1000690234375,1.0717547802734375
-0.3855450390625,0.03217900146484375,0.9402696484374999
-0.29922873046875,-0.1131595654296875,0.8879213623046875
-0.2357680078125,0.0064445166015625,1.024813359375
-0.3223274609375,-0.11928682373046876,1.1218911669921874
-0.55039703125,-0.08350363525390625,1.23813876953125
-0.5523421875,-0.0121823486328125,1.1093570703125
-0.3194097265625,-0.128355166015625,0.82525087890625
-0.22871681640625,0.07188363525390624,0.8785822314453124
-0.46359443359375,0.05619785400390625,1.021372626953125
-0.4487626171875,-0.05997496337890625,1.0245675927734375
-0.3203823046875,0.08854977783203125,0.9985163330078125
-0.3524773828125,-0.02713285888671875,0.8461410400390625
-0.37460353515625,-0.123453359375,0.8648193017578125
-0.23017568359375,0.08070688720703124,0.944693447265625
-0.40669861328125,-0.04477936279296875,0.9793465380859375
-0.43879369140625,-0.01879978759765625,0.9950756005859375
-0.38505875,0.040266982421875,0.9724650732421874
-0.29679728515625,0.05325677001953125,0.9877026025390625
-0.3563676953125,0.14099910888671874,1.0501273193359375
-0.42323244140625,0.09639266845703125,1.073475146484375
-0.38287044921875,0.1005592041015625,1.0353813232421876
-0.39089421875,0.20619313720703125,1.0226014599609374
-0.40913005859375,0.062080021972656246,0.8869382958984375
-0.3164919921875,0.03757098876953125,0.89209939453125
-0.33715927734375,-0.0028689160156250004,0.8176321142578125
-0.370470078125,-0.1170810107421875,0.7439021337890624
-0.25692158203125,-0.1308060693359375,0.68762158203125
-0.2450075,-0.126394443359375,0.7198170068359375
-0.22725794921875,-0.186196484375,0.718588173828125
-0.2367405859375,-0.07762146728515625,0.796741953125
-0.2707808203125,-0.00213364501953125,0.84786140625
-0.27880458984375,0.0476196923828125,0.9124980224609375
-0.46116298828125,0.10276501708984374,0.9646005419921875
-0.28196546875,0.055952763671875,1.032677890625
-0.26956509765625,-0.091101435546875,1.266156162109375
-0.4759948046875,0.0201695751953125,1.33054701171875
-0.4011062890625,0.0012976196289062499,1.12213693359375
-0.35320681640625,-0.0724745703125,0.9174133544921875
-0.31576255859375,0.004973974609375,0.8871840625
-0.39356880859375,0.0211499365234375,0.8377849755859375
-0.2221519140625,7.216796875000007e-05,0.84786140625
-0.2795340234375,0.00865032958984375,0.8938197607421875
-0.43393080078125,0.04982550537109375,0.9208540869140625
-0.422989296875,0.0035034326171875,1.055779951171875
-0.4905834765625,0.0456589697265625,1.0896957421875
-0.39162365234375,0.1485969091796875,1.1329506640625
-0.32743349609375,0.09688284912109375,1.1813666845703126
-0.33910443359375,0.14737145751953126,1.2428083349609376
-0.39210994140625,-0.0028689160156250004,1.1312302978515625
-0.45484123046875,0.01747358154296875,1.0294829248046875
-0.413263515625,-0.0523771630859375,0.88423486328125
-0.2464663671875,0.01012087158203125,0.91765912109375
-0.30798193359375,-0.15114856689453124,0.8613785693359375
-0.37314466796875,-0.15507001220703126,0.78199595703125
-0.26081189453125,-0.0719843896484375,0.704825244140625
-0.40037685546875,-0.107767578125,0.651248125
-0.35126166015625,-0.03154448486328125,0.6967149462890625
-0.21899103515625,0.09418685546875,0.932896650390625
-0.439523125,0.13413657958984376,1.2305200048828124
-0.5722800390625,0.16403760009765625,1.348733740234375
-0.46870046875,0.03119864013671875,1.193409248046875
-0.3369161328125,-0.00850599365234375,0.951574912109375
-0.47915568359375,-0.01585870361328125,0.80558955078125
-0.19516287109375,-0.036201201171875,0.744147900390625
-0.29752671875000003,-0.11340465576171875,0.7004014453125
-0.46286499999999997,-0.02860340087890625,0.7139186083984375
-0.471618203125,-0.01095689697265625,0.692045380859375
-0.40134943359374997,0.0182088525390625,0.5743231787109375
-0.3476144921875,0.05423713134765625,0.4765080712890625
-0.28269490234375,0.06943273193359376,0.4155579541015625
-0.28123603515625,0.057913486328125,0.42415978515624997
-0.31527626953125,0.0255615625,0.5325428564453125
-0.37752126953125,0.08756941650390625,0.7547158642578125
-0.36536404296875,0.07065818359375,0.9459222802734375
-0.3962433984375,0.0378160791015625,1.150645859375
-0.35515197265625,0.07482471923828125,1.3578271044921875
-0.33764556640625,-0.11364974609375,1.428362119140625
-0.45775896484375,0.02752228515625,1.42688751953125
-0.3738741015625,-0.036201201171875,1.107882470703125
-0.30457791015625,0.024581201171875,0.9454307470703125
-0.2523018359375,-0.02149578125,0.978117705078125
-0.58176267578125,-0.0739451123046875,0.89799779296875
-0.46310814453125,0.14492055419921876,0.8535140380859375
-0.2289599609375,-0.0308092138671875,0.7635634619140625
-0.11735662109375,0.01845394287109375,0.9965502001953125
-0.4137498046875,0.03610044677734375,1.233714970703125
-0.50541529296875,-0.13129625,1.2944193212890625
-0.25838044921875,-0.14232531494140624,0.96877857421875
-0.33083751953125,-0.0690433056640625,0.816894814453125
-0.27418484375,-0.10654212646484375,0.8662939013671875
-0.4118046484375,-0.13791368896484374,1.109848603515625
-0.48499115234375,-0.00777072265625,1.27254609375
-0.53848294921875,-0.0817880029296875,1.2300284716796874
-0.5265688671875,0.16697868408203126,1.13000146484375
-0.473563359375,-0.10850284912109374,0.9056165576171875
-0.37217208984375,-0.0582593310546875,0.8687515673828125
-0.10568568359375,-0.120512275390625,0.7620888623046875
-0.24719580078125,0.07972652587890625,0.67582478515625
-0.1949197265625,0.08609887451171874,0.51853416015625
-0.31308796875,-0.00948635498046875,0.58341654296875
-0.3631757421875,0.08168724853515624,0.7611057958984375
-0.43004048828125,0.0691876416015625,1.0700344140625
-0.49204234375,0.17972338134765625,1.4463030810546875
-0.584437265625,0.1378129345703125,1.52126189453125
-0.46797103515625,0.0172284912109375,1.3170298486328125
-0.39891798828125,-0.1631579931640625,1.02972869140625
-0.24573693359375,-0.01683906494140625,0.9611598095703124
-0.3602580078125,0.03928662109375,0.9105318896484375
-0.207076953125,-0.059484782714843754,0.947642646484375
-0.37144265625,-0.15212892822265625,0.88620099609375
-0.35952857421875,-0.023456503906250002,0.8984893261718749
-0.2513292578125,-0.1033559521484375,0.8043607177734375
-0.47137505859375,0.0137972265625,0.739232568359375
-0.279047734375,-0.01487834228515625,0.84294607421875
-0.30263275390625,0.034384814453125,1.0722463134765625
-0.53872609375,0.08217742919921875,1.0860092431640624
-0.42906791015625,-0.2082546142578125,0.9852449365234375
-0.22288134765625,-0.1327667919921875,0.976151572265625
-0.21801845703125,-0.0646316796875,1.149171259765625
-0.35028908203125,-0.12811007568359375,1.4173026220703124
-0.50930560546875,-0.0562986083984375,1.559601484375
-0.38287044921875,-0.09869923583984375,1.4104211572265626
-0.526082578125,0.0515411376953125,1.26959689453125
-0.53313376953125,-0.05311243408203125,0.906353857421875
-0.18884111328125,-0.0023787353515625003,0.7699533935546875
-0.310170234375,0.032424091796875,0.6613245556640625
-0.35126166015625,-0.0366913818359375,0.679265517578125
-0.3369161328125,-0.07468038330078125,0.820827080078125
-0.5897864453125,-0.1053166748046875,0.9709904736328125
-0.6199363671875,-0.124433720703125,0.9759058056640625
-0.30627992187499997,-0.08595453857421875,0.9183964208984375
-0.4419545703125,-0.179333955078125,1.045949287109375
-0.27807515625,-0.068553125,1.1061621044921874
-0.33910443359375,0.04639424072265625,1.054796884765625
-0.48596373046875,-0.07075893798828126,1.0742124462890625
-0.45630009765625,-0.1494329345703125,1.1037044384765624
-0.4380642578125,-0.09428760986328125,1.0707717138671875
-0.493014921875,-0.1239435400390625,1.0761785791015626
-0.4837754296875,0.1260485986328125,0.9936010009765625
-0.5168430859375,0.03512008544921875,0.78494515625
-0.39818855468750003,-0.04526954345703125,0.8778449316406249
-0.3612305859375,0.07457962890625,0.9931094677734374
-0.48693630859375,-0.14330567626953125,0.9886856689453125
-0.2630001953125,-0.22614620849609374,0.801165751953125
-0.458002109375,-0.24305744140625,0.6200357666015625
-0.36001486328125,-0.26487048095703125,0.5841538427734375
-0.25473328125,-0.31780999267578125,0.5281190576171875
-0.3369161328125,-0.31364345703125,0.5694078466796875
-0.38700390625000003,-0.3307997802734375,0.6116797021484375
-0.35126166015625,-0.3234470703125,0.8043607177734375
-0.36682291015625,0.026296833496093748,1.115747001953125
-0.520247109375,0.1201664306640625,1.3180129150390625
-0.61920693359375,0.1613416064453125,1.3371827099609375
-0.5003092578125,0.14001874755859375,1.09657720703125
-0.315033125,-0.10016977783203125,0.781504423828125
-0.28804408203125,-0.07860182861328124,0.61979
-0.14580453125,-0.04772044677734375,0.7055625439453125
-0.31235853515625,-0.04698517578125,0.7768348583984375
-0.533863203125,0.0059543359375,0.8707177001953125
-0.3106565234375,-0.09183670654296874,0.8092760498046875
-0.29290697265625,-0.08497417724609375,0.8977520263671875
-0.25254498046875,-0.08938580322265625,0.9646005419921875
0.02536921875,-0.128355166015625,1.2374014697265625
-0.3515048046875,-0.14330567626953125,1.4988971337890624
-0.60267310546875,-0.1626678125,1.5851612109375
-0.30555048828125,-0.120512275390625,1.4082092578125
-0.5421301171875,-0.08693489990234375,1.2914701220703124
-0.2989855859375,-0.1317864306640625,1.188493916015625
-0.43927998046875,-0.18104958740234375,1.080356611328125
-0.3038484765625,-0.07075893798828126,0.9245405859375
-0.2542469921875,-0.13546278564453124,0.6972064794921875
-0.09839134765625,-0.05850442138671875,0.7296476708984375
-0.3291355078125,0.03021827880859375,0.858183603515625
-0.448276328125,0.023845930175781252,1.024321826171875
-0.48255970703125,0.0142874072265625,1.1125520361328125
-0.34104958984375,0.0211499365234375,1.1366371630859375
-0.40426716796875,0.13217585693359374,1.3430811083984375
-0.456056953125,-0.0749254736328125,1.37773419921875
-0.43684853515625,-0.19232374267578126,1.1907058154296875
-0.24281919921875,-0.02076051025390625,0.9208540869140625
-0.29436583984375,-0.14036459228515624,0.5782554443359375
-0.14993798828125,-0.21683277587890626,0.427600517578125
-0.11395259765625,-0.2643803002929688,0.5217291259765625
-0.25935302734375,-0.30604565673828127,0.7901062548828125
-0.4312562109375,-0.1690401611328125,1.0049062646484375
-0.5751977734375,-0.25457668701171876,1.1164843017578125
-0.33472783203125,-0.2562923193359375,0.9754142724609375
-0.32864921874999997,-0.01095689697265625,0.8520394384765625
-0.2931501171875,-0.02223105224609375,0.840488408203125
-0.48888146484375,0.03536517578125,1.0275167919921875
-0.43490337890624997,0.13903838623046874,0.9867195361328125
-0.3797095703125,0.09492212646484376,0.872929599609375
-0.28974609375,-0.13252170166015625,0.8159117480468749
-0.29971501953125,-0.1317864306640625,0.7928096875
-0.352963671875,-0.1366882373046875,0.8500733056640625
-0.452166640625,-0.02149578125,0.86457353515625
-0.33132380859375,-0.011201987304687501,0.8262339453125
-0.47332021484375,-0.0033590966796874996,0.8458952734375
-0.44292714843750003,0.10276501708984374,0.95796484375
-0.44073884765625,0.02776737548828125,0.7561904638671875
-0.32597462890625,-0.0955130615234375,0.746114033203125
-0.2688356640625,-0.0121823486328125,0.7684787939453125
-0.555259921875,-0.16830489013671876,0.655180390625
-0.3135742578125,-0.03301502685546875,0.653705791015625
-0.21315556640625,-0.0474753564453125,0.651739658203125
-0.331566953125,-0.0724745703125,0.71514744140625
-0.4001337109375,-0.0964934228515625,0.713672841796875
-0.1477496875,-0.1778634130859375,0.8930824609375
-0.49179919921875,0.142224560546875,1.052830751953125
-0.6316073046875,0.00423870361328125,1.1835785839843749
-0.36341888671875,-0.0661022216796875,1.21847744140625
-0.5990259375,0.0887948681640625,1.04939001953125
-0.26567478515625,-0.19232374267578126,0.739232568359375
-0.32937865234375,-0.17222633544921875,0.5772723779296876
-0.3446967578125,0.0025230712890624996,0.5878403417968749
-0.2931501171875,0.1113431787109375,0.6138916015625
-0.31965287109375,0.12678386962890625,0.67189251953125
-0.37946642578125,0.1250682373046875,0.65616345703125
-0.356853984375,0.14982236083984374,0.7790467578125
-0.49666208984375,-0.065612041015625,0.9070911572265625
-0.23552486328125,-0.12909043701171874,1.03366095703125
-0.38967849609375,0.03119864013671875,1.037101689453125
-0.6325798828125,0.06011929931640625,1.0879753759765625
-0.27418484375,-0.12271808837890624,1.026287958984375
-0.533863203125,-0.02321141357421875,1.0324321240234375
-0.4088869140625,-0.01781942626953125,1.1931634814453125
-0.185680234375,-0.183255400390625,0.96681244140625
-0.28950294921874997,0.08854977783203125,0.9375662158203125
-0.45313921875,-0.0562986083984375,0.863098935546875
-0.33326896484375,-0.01830960693359375,0.9604225097656249
-0.2644590625,0.11354899169921875,1.3484879736328126
-0.40378087890625003,-0.0906112548828125,1.3563525048828124
-0.455084375,-0.11389483642578124,1.1479424267578124
-0.1258666796875,-0.15801109619140624,0.911269189453125
-0.42566388671875,-0.2268814794921875,0.840488408203125
-0.481343984375,-0.00654527099609375,0.9795923046875
-0.08915185546875,-0.16928525146484374,1.1730106201171875
-0.40475345703125,-0.02321141357421875,1.398870126953125
-0.55307162109375,0.03168882080078125,1.472600107421875
-0.545534140625,-0.17663796142578125,1.2295369384765624
-0.28415376953125,0.1633023291015625,1.1307387646484375
-0.450221484375,0.183399736328125,1.008592763671875
-0.39478453125,0.014777587890624999,0.9252778857421875
-0.0310403125,-0.0406128271484375,0.7829790234375
-0.14069849609375001,0.1628121484375,0.8864467626953125
-0.32451576171875,-0.03154448486328125,1.0425085546875
-0.40183572265625,-0.16536380615234375,1.2949108544921875
-0.60875171875,0.0515411376953125,1.3514371728515624
-0.69433859375,-0.0092412646484375,1.221918173828125
-0.42590703125,0.0172284912109375,1.0417712548828124
-0.46408072265625,0.02776737548828125,0.7950215869140624
-0.28561263671875,0.10962754638671875,0.688113115234375
-0.1744955859375,0.053992041015625,0.735300302734375
-0.24379177734375002,-0.07664110595703125,0.9660751416015625
-0.19467658203125,-0.05482806640625,1.1248403662109374
-0.267376796875,0.06551128662109375,1.109848603515625
-0.46262185546875,-0.07909200927734375,0.75643623046875
-0.23990146484375,-0.050661530761718754,0.5667044140624999
-0.28512634765625,-0.05605351806640625,0.594721806640625
-0.39989056640625,0.021885207519531248,0.6905707812499999
-0.44146828125,-0.05164189208984375,0.9405154150390624
-0.39405509765625,-0.0513968017578125,1.0432458544921874
-0.3578265625,-0.08595453857421875,1.0191607275390624
-0.3271903515625,0.05374695068359375,0.9646005419921875
-0.28512634765625,0.0008074389648437498,1.027271025390625
-0.36293259765625,0.15325362548828125,1.197833046875
-0.49131291015625,0.23168253173828124,1.2015195458984376
-0.26810623046875,0.1133039013671875,0.984016103515625
-0.26664736328125,0.06306038330078124,0.824759345703125
-0.32986494140625,-0.02762303955078125,0.8353273095703125
-0.316005703125,-0.061690595703125004,0.757910830078125
-0.38311359375,-0.14085477294921875,0.7075286767578125
-0.42931105468749997,-0.00850599365234375,0.8456495068359375
-0.30944080078125,-0.0249270458984375,1.04349162109375
-0.43174250000000003,-0.05654369873046875,1.2211808740234376
-0.51708623046875,0.0476196923828125,1.317275615234375
-0.4278521875,0.02360083984375,1.2064348779296874
-0.38870591796875,0.1079119140625,1.0943653076171875
-0.31576255859375,-0.042328459472656246,0.967303974609375
-0.39356880859375,-0.0376717431640625,0.8279543115234375
-0.16841697265625,-0.037916833496093746,0.68172318359375
-0.2999581640625,-0.1092381201171875,0.569162080078125
-0.20683380859375,-0.09477779052734375,0.6138916015625
-0.30117388671875,-0.11389483642578124,0.875387265625
-0.55987966796875,-0.04526954345703125,0.9370746826171875
-0.39867484375,0.08242251953125,0.8891501953125
-0.28658521484375,0.0309535498046875,0.788877421875
-0.4273658984375,0.02727719482421875,0.577026611328125
-0.2707808203125,-0.00213364501953125,0.6106966357421875
-0.29290697265625,-0.13840386962890625,0.579975810546875
-0.2581373046875,-0.06659240234375,0.621264599609375
-0.2309051171875,0.10227483642578125,0.681231650390625
-0.25449013671875,0.13609730224609376,0.7227662060546876
-0.3184371484375,-0.0028689160156250004,0.8773533984374999
-0.34299474609375,0.224574912109375,1.1238572998046874
-0.60024166015625,0.15962597412109375,1.16932412109375
-0.23844259765625,-0.0033590966796874996,1.0464408203125
-0.27491427734375,0.1015395654296875,0.913235322265625
-0.40086314453125,0.010611052246093749,0.8731753662109375
-0.321841171875,0.046149150390625,0.8783364648437499
-0.37460353515625,0.069677822265625,0.94125271484375
-0.14653396484375,-0.03448556884765625,1.0385762890625
-0.46359443359375,0.03266918212890625,1.07888201171875
-0.3330258203125,0.06306038330078124,1.1577730908203125
-0.31478998046875,-0.0719843896484375,0.990897568359375
-0.16501294921875,0.05889384765625,1.0201437939453124
-0.25449013671875,0.0897752294921875,1.0604495166015624
-0.45143720703125,0.01208159423828125,1.1022298388671874
-0.3515048046875,-0.030319033203124998,1.0520934521484375
-0.42906791015625,-0.03987755615234375,0.9557529443359375
-0.28269490234375,0.01796376220703125,1.0189149609375
-0.39891798828125,-0.07713128662109375,0.843929140625
-0.35320681640625,0.01575794921875,0.7630719287109375
-0.3787369921875,-0.05899460205078125,0.7409529345703125
-0.333512109375,-0.00801581298828125,0.88816712890625
-0.160393203125,-0.06585713134765625,0.9739396728515625
-0.2912049609375,0.04394333740234375,1.159001923828125
-0.34396732421875,0.018699033203125,1.0599579833984376
-0.50833302734375,-0.040122646484374996,1.033169423828125
-0.3729015234375,0.08634396484375,0.9960586669921875
-0.58516669921875,7.216796875000007e-05,0.8392595751953125
-0.33083751953125,-0.10580685546875,0.73677490234375
-0.28634207031250003,0.0883046875,0.52836482421875
-0.30627992187499997,0.09418685546875,0.474296171875
-0.14629082031250001,0.10276501708984374,0.5020677978515625
-0.23212083984375,0.16893940673828126,0.920116787109375
-0.48426171875,0.08070688720703124,1.2998261865234375
-0.5751977734375,0.17040994873046875,1.504058232421875
-0.48061455078125,0.3025136376953125,1.5146261962890626
-0.46845732421874997,0.0446786083984375,1.1818582177734376
-0.4438997265625,0.00472888427734375,1.1243488330078124
-0.3806821484375,0.053992041015625,0.9980247998046875
-0.28269490234375,-0.0494360791015625,0.9031588916015625
-0.314060546875,0.0642858349609375,0.8220559130859375
-0.33278267578125,-0.10311086181640625,0.8205813134765625
-0.38481560546875,-0.0602200537109375,0.80952181640625
-0.3694975,-0.03914228515625,0.882760263671875
-0.40037685546875,-0.06487677001953125,1.069542880859375
-0.49714837890625,-0.00703545166015625,1.1666206884765624
-0.47477908203125,0.10325519775390625,1.1887396826171874
-0.4477900390625,-0.06438658935546875,0.9936010009765625
-0.15723232421875,0.00325834228515625,0.9685328076171875
-0.3019033203125,0.0907555908203125,1.010558896484375
-0.39867484375,0.03904153076171875,1.09657720703125
-0.49131291015625,0.1221271533203125,0.9587021435546875
-0.2644590625,0.03512008544921875,0.9149556884765625
-0.4380642578125,0.17433139404296874,0.98942296875
-0.3135742578125,0.08634396484375,1.0869923095703125
-0.39089421875,0.02335574951171875,0.99827056640625
-0.4730770703125,0.13732275390625,1.0624156494140624
-0.31624884765625,0.14737145751953126,1.15949345703125
-0.11322316406249999,0.10423555908203125,1.129509931640625
-0.12829812499999999,0.13560712158203125,1.3027753857421875
-0.4604335546875,0.1260485986328125,1.4327859179687499
-0.34737134765625,-0.016593974609375,1.115747001953125
-0.43174250000000003,0.07335417724609375,1.0211268603515624
-0.535808359375,0.0348749951171875,1.0936280078125
-0.3563676953125,-0.05213207275390625,1.0265337255859375
-0.185680234375,0.09051050048828126,0.7746229589843749
-0.16647181640625,0.08266760986328126,0.689096181640625
-0.0733474609375,-0.0945327001953125,0.837539208984375
-0.212912421875,0.00325834228515625,1.095102607421875
-0.38238416015625,0.01894412353515625,1.38264953125
-0.54674986328125,0.1064413720703125,1.565991416015625
-0.4565432421875,0.18609572998046875,1.5308467919921875
-0.55842080078125,0.13119549560546875,1.3283351123046876
-0.442440859375,0.175556845703125,1.105916337890625
-0.2882872265625,0.00472888427734375,0.8365561425781249
-0.20926525390625,0.08462833251953125,0.766758427734375
-0.15869119140625,0.1289896826171875,0.7674957275390625
-0.3553951171875,-0.0053198193359375,0.9095488232421876
-0.20051205078125,-0.08227818359375,1.4354893505859374
-0.361716875,-0.10948321044921874,1.7869355908203124
-0.5635268359375,-0.10850284912109374,1.6173566357421876
-0.47429279296875,-0.10360104248046875,1.1164843017578125
-0.28998923828125,-0.13693332763671875,0.8967689599609375
-0.44803318359375,-0.0494360791015625,0.75840236328125
-0.29144810546875,0.03512008544921875,0.7807671240234375
-0.30530734375,0.10570610107421875,0.849336005859375
-0.34250845703125,0.0838930615234375,1.02088109375
-0.18470765625,0.2044775048828125,1.052830751953125
-0.259596171875,0.1549692578125,0.930438984375
-0.3057936328125,0.2103596728515625,1.05528841796875
-0.38311359375,0.257907197265625,1.22240970703125
-0.36730919921875,0.31746414794921873,1.229782705078125
-0.3213548828125,0.3189346899414062,1.1302472314453125
-0.26567478515625,0.27677915283203125,1.1725190869140625
-0.26664736328125,0.17506666503906249,1.124594599609375
-0.24695265625,0.20178151123046875,0.938795048828125
-0.43587595703125,-0.01389798095703125,0.7443936669921875
-0.39989056640625,0.055952763671875,0.65911265625
-0.2814791796875,-0.02125069091796875,0.488550634765625
-0.31576255859375,-0.11928682373046876,0.3595231689453125
-0.33472783203125,-0.20114699462890626,0.391227060546875
-0.21412814453125,-0.23349891845703125,0.3939304931640625
-0.0305540234375,-0.13007079833984375,0.3777098974609375
-0.2177753125,-0.2415868994140625,0.3944220263671875
-0.16744439453124998,-0.11364974609375,0.646824326171875
-0.35977171875,-0.01634888427734375,1.1346710302734375
-0.6539766015625,-0.1886473876953125,1.1014925390624999
-0.29193439453125003,-0.27835044921875,0.8864467626953125
-0.06021765625,-0.20408807861328124,1.1253318994140624
-0.52438056640625,-0.30898674072265625,1.09067880859375
-0.53410634765625,-0.2893795141601562,0.599637138671875
-0.3972159765625,-0.22761675048828126,0.4711012060546875
-0.312115390625,-0.151883837890625,0.514110361328125
-0.09304216796875,0.03021827880859375,0.4563552099609375
-0.026177421875,0.10962754638671875,0.7121982421874999
-0.09644619140624999,0.23560397705078126,1.0230929931640624
-0.4001337109375,0.285357314453125,1.34037767578125
-0.411318359375,0.30913107666015627,1.4549049121093751
-0.636956484375,0.1417343798828125,1.2074179443359374
-0.5469930078125,0.23535888671875,1.14376439453125
-0.45921783203125,0.24246650634765626,1.1395863623046876
-0.60218681640625,0.13413657958984376,0.9714820068359376
-0.3267040625,0.2397705126953125,0.791335087890625
-0.21193984375,0.2044775048828125,0.7876485888671875
-0.19759431640625,0.27383806884765627,1.0307117578125
-0.19856689453125,0.39981449951171877,1.14376439453125
-0.31746457031249997,0.393197060546875,1.27254609375
-0.38530189453125,0.1897720849609375,0.9798380712890625
-0.3028758984375,0.03708080810546875,0.580958876953125
-0.17717017578125,-0.03399538818359375,0.3442856396484375
-0.259596171875,-0.0028689160156250004,0.349938271484375
-0.32475890625,0.017718671875,0.4814234033203125
-0.4011062890625,-0.00360418701171875,0.482160703125
-0.31722142578125,0.116735166015625,0.74070716796875
-0.30919765625,0.085363603515625,1.594991875
-0.8134794140625,-0.01732924560546875,1.7977493212890625
-0.514411640625,-0.1925688330078125,1.4615406103515625
-0.21753216796875,0.00570924560546875,0.9321593505859375
-0.05170759765625,-0.0876701708984375,0.9621428759765625
0.027314375,0.03021827880859375,1.0904330419921875
-0.421044140625,0.155949619140625,1.08084814453125
-0.5032269921875,0.14933218017578126,0.7414444677734375
-0.3281629296875,0.0686974609375,0.6578838232421875
0.0987988671875,0.0010525292968750002,0.7070371435546875
-0.007941582031250002,0.0530116796875,1.2270792724609374
-0.62820328125,0.1329111279296875,1.41705685546875
-0.63622705078125,0.24736831298828124,1.5957291748046876
-0.638901640625,0.2642795458984375,1.5082362646484375
-0.18300564453125,-0.37908257568359377,1.2890124560546874
-0.30895451171875,-0.03742665283203125,1.5097108642578125
-0.43782111328125,0.21697711181640625,0.991880634765625
-0.24938410156250002,0.1966346142578125,0.537703955078125
-0.12951384765625001,0.127519140625,0.41826138671875
-0.0179105078125,0.152028173828125,0.7790467578125
-0.12708240234375,0.365746943359375,1.3966582275390624
-0.3670660546875,0.49196846435546876,1.692806982421875
-0.697256328125,0.30815071533203126,1.6512724267578125
-0.64303509765625,0.26305409423828124,1.21257904296875
-0.28634207031250003,0.273592978515625,0.8186151806640625
-0.27929087890625,0.21158512451171874,0.564246748046875
-0.3019033203125,0.2485937646484375,0.6490362255859374
-0.26810623046875,0.3118270703125,0.9191337207031249
-0.33472783203125,0.2882983984375,0.985982236328125
-0.361716875,0.206928408203125,1.121645400390625
-0.12805498046875,-0.07811164794921875,1.1081282373046875
-0.29533841796875,-0.1308060693359375,1.3081822509765626
-0.29509527343749997,-0.01487834228515625,1.0781447119140626
-0.321841171875,-0.04036773681640625,0.8874298291015625
-0.41253408203124997,0.1084020947265625,0.909303056640625
-0.40913005859375,0.14345001220703124,0.7729025927734375
-0.32451576171875,0.1456558251953125,0.648790458984375
-0.4001337109375,0.11305881103515625,0.731368037109375
-0.42615017578125003,0.0966377587890625,0.899472392578125
-0.3213548828125,0.0672269189453125,0.854251337890625
-0.33083751953125,0.0221302978515625,0.8530225048828125
-0.25205869140625,-0.0670825830078125,0.938303515625
-0.1861665234375,-0.069533486328125,0.9815584374999999
-0.31868029296875,-0.08889562255859375,1.0395593554687501
-0.37703498046875,-0.01683906494140625,1.06315294921875
-0.3301080859375,-0.126394443359375,0.9400238818359374
-0.3865176171875,0.05129604736328125,0.867522734375
-0.3116291015625,0.14688127685546876,0.7746229589843749
-0.34980279296875,0.1270289599609375,0.805098017578125
-0.34007701171875,0.1466361865234375,0.9080742236328125
-0.23260712890625002,0.063795654296875,0.92159138671875
-0.42931105468749997,0.093206494140625,0.8156659814453124
-0.39940427734375,0.03217900146484375,0.9559987109375
-0.40621232421875,0.06624655761718751,1.0621698828125
-0.35563826171875,0.0936966748046875,0.8957858935546875
-0.29096181640625,0.0182088525390625,0.807064150390625
-0.12854126953125,-0.02664267822265625,0.907336923828125
-0.35417939453125,0.015022678222656249,1.0073639306640625
-0.347128203125,0.048109873046875,0.8358188427734374
-0.252788125,0.099088662109375,0.8616243359375
-0.374360390625,0.1392834765625,0.8839890966796875
-0.27929087890625,0.11379408203125,0.9375662158203125
-0.2523018359375,0.21942801513671875,1.0717547802734375
-0.479398828125,0.167713955078125,1.09657720703125
-0.40645546875,0.0608545703125,1.1680952880859374
-0.34542619140624997,0.04320806640625,0.959439443359375
-0.4108320703125,0.073599267578125,0.8746499658203125
-0.242089765625,-0.0018885546875000003,0.9542783447265625
-0.31138595703125,0.0103659619140625,0.9061080908203125
-0.29922873046875,0.05668803466796875,0.7738856591796874
-0.28707150390625,0.08854977783203125,0.678773984375
-0.3189234375,0.09345158447265625,0.771673759765625
-0.39818855468750003,0.14908708984375,0.889641728515625
-0.35320681640625,0.21575166015625,0.8372934423828124
-0.38967849609375,0.1368325732421875,0.825742412109375
-0.3855450390625,0.09247122314453125,0.967303974609375
-0.25886673828125,0.10962754638671875,0.905370791015625
-0.1920019921875,0.0451687890625,0.86064126953125
-0.27248283203125,0.0633054736328125,1.03169482421875
-0.37898013671874997,0.07237381591796875,1.1966042138671875
-0.38627447265625,0.18266446533203126,1.167849521484375
-0.32694720703125,0.11060790771484375,1.0267794921875
-0.34299474609375,0.14639109619140625,0.907336923828125
-0.26859251953125,0.05472731201171875,0.9360916162109375
-0.2416034765625,0.17040994873046875,0.9994993994140625
-0.22968939453125,0.17040994873046875,0.8471241064453126
-0.17303671874999998,0.1456558251953125,0.8871840625
-0.325731484375,0.04712951171875,0.91176072265625
-0.2785614453125,0.16085142578125,1.198324580078125
-0.3515048046875,0.1044806494140625,1.19291771484375
-0.38967849609375,0.07286399658203124,1.152120458984375
-0.2231244921875,0.238299970703125,1.121645400390625
-0.32986494140625,0.17825283935546876,0.9186421875
-0.32451576171875,0.1941837109375,0.8778449316406249
-0.34883021484375,0.238299970703125,0.904387724609375
-0.330594375,0.2701617138671875,1.04742388671875
-0.1710915625,0.291239482421875,1.11427240234375
-0.2464663671875,0.3228561352539063,1.019406494140625
-0.3262177734375,0.2691813525390625,1.1440101611328124
-0.290718671875,0.1628121484375,1.2718087939453124
-0.48207341796875003,0.20668331787109376,1.199307646484375
-0.393811953125,0.0956573974609375,1.152120458984375
-0.38432931640625,0.16795904541015624,0.9547698779296875
-0.37581925781250003,0.114774443359375,0.9365831494140625
-0.35612455078125,0.03806116943359375,0.820335546875
-0.23212083984375,0.11060790771484375,0.835573076171875
-0.3344846875,0.13609730224609376,0.9134810888671875
-0.304334765625,0.13658748291015624,0.8898874951171875
-0.17619759765625,0.140263837890625,0.8589209033203125
-0.28318119140625,0.15178308349609376,0.8274627783203125
-0.32889236328125,0.13658748291015624,1.275003759765625
-0.31722142578125,0.16085142578125,1.214053642578125
-0.4356328125,0.20006587890625,1.1683410546875
-0.376305546875,0.28633767578125,1.1091113037109375
-0.45435494140625,0.15668489013671874,0.968287041015625
-0.39113736328125,0.112813720703125,0.740215634765625
-0.216802734375,-0.004829638671875,0.47036390625
-0.10374052734375,-0.050661530761718754,0.3624723681640625
-0.11152115234375,-0.03546593017578125,0.409905322265625
-0.115654609375,0.04639424072265625,0.60701013671875
-0.3651208984375,0.049090234375,0.949608779296875
-0.40232201171875,0.05913893798828125,1.3543863720703124
-0.34396732421875,0.14124419921875,1.561076083984375
-0.33424154296874997,0.2819260498046875,1.4472861474609375
-0.368524921875,0.301043095703125,1.3905140625
-0.40037685546875,0.175556845703125,1.1179589013671876
-0.2843969140625,0.09149086181640625,0.9223286865234375
-0.27807515625,-0.0308092138671875,0.757419296875
-0.21850474609375,-0.096983603515625,0.4568467431640625
-0.16112263671875,-0.07026875732421875,0.321429345703125
-0.11492517578125,-0.09379742919921875,0.5241867919921875
-0.21801845703125,-0.01978014892578125,0.80755568359375
-0.31989601562500003,-0.0494360791015625,1.1567900244140625
-0.3417790234375,0.2593777392578125,1.426395986328125
-0.42712275390625,0.23143744140625,1.480464638671875
-0.448276328125,0.1809488330078125,1.3229282470703125
-0.44560173828125,0.21746729248046875,0.93437125
-0.419098984375,0.07972652587890625,0.547534619140625
-0.352963671875,0.0378160791015625,0.5767808447265625
-0.30360533203125,0.1299700439453125,0.6175781005859375
-0.3456693359375,0.1280093212890625,0.736283369140625
-0.22628537109375,0.19540916259765626,0.9031588916015625
-0.17571130859375,0.2603581005859375,0.9990078662109375
-0.3145468359375,0.28854348876953123,1.0496357861328125
-0.44657431640625,0.14001874755859375,1.2265877392578124
-0.46870046875,0.17531175537109375,1.42295525390625
-0.4186126953125,0.127519140625,1.3868275634765626
-0.38821962890625,0.10399046875,1.1621968896484376
-0.39818855468750003,0.1221271533203125,0.9065996240234375
-0.27296912109375,0.09443194580078125,0.7355460693359375
-0.213885,-0.035711020507812496,0.5868572753906249
-0.36050115234375,0.11967625,0.65911265625
-0.2746711328125,-0.03203466552734375,0.76233462890625
-0.28707150390625,0.00399361328125,1.1032129052734374
-0.30117388671875,0.20790876953125,1.3597932373046875
-0.3126016796875,0.12580350830078124,1.4276248193359375
-0.4088869140625,0.2378097900390625,1.264190029296875
-0.22750109375,0.2451625,0.9528037451171875
-0.232363984375,0.16403760009765625,0.7596311962890625
-0.40037685546875,0.20031096923828126,0.8159117480468749
-0.34883021484375,0.25962282958984373,0.92552365234375
-0.162338359375,0.21109494384765626,1.206189111328125
-0.57884494140625,0.13756784423828125,1.332021611328125
-0.44414287109375,0.03021827880859375,1.4384385498046874
-0.17692703125,0.03757098876953125,1.2968769873046875
-0.4356328125,-0.0055649096679687505,0.983033037109375
-0.321841171875,-0.046740085449218746,0.9469053466796875
-0.18349193359375,-0.15654055419921875,0.8928366943359375
-0.5119801953125,-0.12467881103515625,0.7399698681640625
-0.2649453515625,0.14688127685546876,0.6750874853515625
-0.13778076171875,0.0319339111328125,0.7615973291015625
-0.14604767578125,0.22040837646484374,0.9046334912109375
-0.19808060546875,0.22751599609375,1.1287726318359375
-0.3281629296875,0.09443194580078125,1.2501813330078124
-0.3437241796875,0.240260693359375,1.4536760791015624
-0.579574375,0.1574201611328125,1.3632339697265625
-0.4750222265625,0.19442880126953124,1.434260517578125
-0.37265837890625,0.23952542236328125,1.3593017041015625
-0.34299474609375,0.32040523193359377,1.3003177197265625
-0.2396583203125,0.16893940673828126,1.1710444873046875
-0.1949197265625,0.13119549560546875,1.0201437939453124
-0.19832375,0.04247279541015625,0.878827998046875
-0.1321884375,-0.1317864306640625,0.790352021484375
-0.30530734375,-0.15016820556640625,0.894557060546875
-0.4273658984375,-0.144040947265625,0.9921264013671875
-0.45046462890625,-0.014633251953124999,0.947642646484375
-0.4769673828125,0.05521749267578125,0.7989538525390625
-0.21753216796875,0.0152677685546875,0.7475886328125
-0.377278125,0.0672269189453125,0.811979482421875
-0.27418484375,0.05889384765625,0.8852179296875
-0.26640421875,-0.10507158447265624,0.93142205078125
-0.444386015625,-0.0097314453125,0.975168505859375
-0.16744439453124998,-0.016593974609375,0.8358188427734374
-0.222638203125,-0.11561046875,0.6495277587890624
-0.21607330078125,0.02727719482421875,0.7031048779296875
-0.3466419140625,-0.00262382568359375,0.8422087744140625
-0.37071322265625,0.0584036669921875,1.1486797265625
-0.3952708203125,0.12090170166015625,1.2550966650390625
-0.3660934765625,0.09810830078125,1.2575543310546875
-0.3476144921875,0.0436982470703125,1.041033955078125
-0.2853694921875,-0.006790361328125,0.886692529296875
-0.35174794921875,-0.01169216796875,0.828200078125
-0.376305546875,0.0044837939453125,0.9191337207031249
-0.38432931640625,0.0770305322265625,0.9557529443359375
-0.3641483203125,0.0074248779296875,0.861132802734375
-0.25400384765625,0.09639266845703125,1.0009739990234374
-0.20488865234375,0.228496357421875,0.9724650732421874
-0.36463460937500003,0.17090012939453125,0.81148794921875
-0.30652306640625,0.24540759033203124,0.9759058056640625
-0.31819400390625,0.12139188232421876,0.972219306640625
-0.3656071875,0.085363603515625,0.9798380712890625
-0.316005703125,-0.0768861962890625,0.9835245703125
-0.32257060546875,-0.08423890625,0.964354775390625
-0.370470078125,-0.05458297607421875,0.92159138671875
-0.3826273046875,0.020659755859375,0.8372934423828124
-0.3835998828125,0.0770305322265625,0.727435771484375
-0.259596171875,0.19393862060546874,0.7640549951171876
-0.22579908203125,0.242221416015625,0.8544971044921875
-0.16744439453124998,0.17506666503906249,1.1798920849609376
-0.14969484375,0.2427115966796875,1.2147909423828125
-0.1988100390625,0.17678229736328124,1.1880023828125
-0.2736985546875,-0.0631611376953125,0.9837703369140625
-0.31284482421875,0.04443351806640625,0.66206185546875
-0.044170117187499996,-0.0504164404296875,0.631095263671875
-0.047574140625,-0.24771415771484376,0.7357918359375
-0.37071322265625,-0.3288390576171875,0.913235322265625
-0.458002109375,-0.3151139990234375,0.61979
-0.5032269921875,-0.34133866455078127,0.6819689501953125
-0.45484123046875,-0.34967173583984373,0.647315859375
-0.299471875,-0.1474722119140625,0.5428650537109375
-0.144831953125,0.0838930615234375,0.754961630859375
-0.17182099609375,0.2329079833984375,0.87931953125
-0.2279873828125,0.287318037109375,1.0840431103515624
-0.18786853515625002,0.2397705126953125,1.0186691943359376
-0.29874244140625,0.30202345703125,1.180629384765625
-0.6870442578125,0.12286242431640625,1.3076907177734376
-0.7298376953125,0.13756784423828125,1.1676037548828124
-0.5411575390625,0.1628121484375,1.1459762939453124
-0.3437241796875,0.08511851318359374,1.07101748046875
-0.2172890234375,0.24981921630859374,1.2241300732421876
-0.2834243359375,0.19001717529296874,1.319241748046875
-0.32864921874999997,0.1485969091796875,1.215036708984375
-0.3816547265625,0.0976181201171875,0.98450763671875
-0.43684853515625,0.06943273193359376,1.040542421875
-0.3111428125,0.024091020507812498,1.0228472265625
-0.18592337890625,-0.013407800292968751,0.9365831494140625
-0.3656071875,-0.0803174609375,0.9070911572265625
-0.47234763671875,-0.17247142578125,0.8205813134765625
-0.3495596484375,-0.16193254150390626,0.9021758251953125
-0.3972159765625,0.05031568603515625,1.185544716796875
-0.52486685546875,0.1133039013671875,1.2698426611328124
-0.2333365625,-0.0670825830078125,1.1690783544921874
-0.30457791015625,0.18707609130859376,1.0230929931640624
-0.18397822265625,0.04296297607421875,0.8402426416015625
-0.13048642578125,-0.0621807763671875,0.6431378271484375
-0.3417790234375,0.0368357177734375,0.6716467529296875
-0.48037140625,-0.0004180126953125,0.5487634521484375
-0.10276794921875,-0.1592365478515625,0.51066962890625
0.0560054296875,-0.15016820556640625,0.8043607177734375
0.2155082421875,-0.2200189501953125,1.3300554785156251
-0.34980279296875,-0.45408021728515624,1.959217978515625
-0.63622705078125,-0.03644629150390625,1.520770361328125
-0.7461283789062501,0.0691876416015625,1.52716029296875
-0.28318119140625,-0.37908257568359377,1.6787982861328126
-0.13680818359375,0.0711483642578125,1.87319966796875
-0.56595828125,0.244182138671875,1.4740747070312499
-0.54723615234375,0.187321181640625,0.867522734375
-0.392839375,0.12335260498046875,0.4519314111328125
-0.27029453125,0.08707923583984375,0.1751982177734375
-0.12708240234375,0.1182057080078125,0.1063835693359375
0.09855572265625,-0.029338671875,0.530822490234375
0.0628134765625,0.06845237060546874,0.772656826171875
-0.3583128515625,0.11992134033203125,0.9931094677734374
-0.68923255859375,0.11845079833984375,1.386581796875
-0.94720890625,0.08413815185546875,1.510939697265625
-0.79135326171875,0.077520712890625,1.2801648583984375
-0.17182099609375,0.1642826904296875,1.0997721728515626
-0.1365650390625,0.11649007568359375,0.7704449267578125
-0.11395259765625,-0.006790361328125,0.64436666015625
-0.21607330078125,0.02041466552734375,0.8766160986328125
-0.37898013671874997,0.18217428466796876,1.257308564453125
-0.389921640625,-0.04330882080078125,1.3760138330078124
-0.14264365234375,-0.0612004150390625,1.3371827099609375
-0.092312734375,0.05374695068359375,0.997779033203125
-0.10228166015625,0.0172284912109375,0.7908435546875
-0.39065107421875,-0.04134809814453125,0.6760705517578125
-0.56814658203125,0.01600303955078125,0.7040879443359375
-0.56911916015625,-0.01830960693359375,0.74463943359375
-0.3077387890625,0.0191892138671875,0.763809228515625
-0.30166017578125,-0.06487677001953125,0.6905707812499999
-0.13145900390625,-0.060710234375,0.7915808544921875
-0.18640966796875,-0.0724745703125,0.7672499609375
-0.36730919921875,-0.09379742919921875,0.7679872607421875
-0.22044990234375,0.0584036669921875,0.695977646484375
-0.14410251953125,0.0137972265625,0.6131543017578125
-0.1774133203125,0.12163697265625,0.7552073974609375
-0.13145900390625,0.15325362548828125,1.072000546875
-0.33278267578125,0.19786006591796876,1.25681703125
-0.4079143359375,0.3113368896484375,1.2595204638671875
-0.4186126953125,0.20766367919921874,1.0442289208984374
-0.32864921874999997,0.1157548046875,0.7817501904296875
-0.30141703125,0.093206494140625,0.6804943505859375
-0.43538966796875,-0.025662316894531252,0.8262339453125
-0.42809533203125,-0.07173929931640625,0.8554801708984375
-0.43295822265625,0.06698182861328125,0.85867513671875
-0.302389609375,-0.02174087158203125,0.6937657470703125
-0.039793515625,0.0417375244140625,0.721537373046875
0.02172205078125,0.0142874072265625,0.845403740234375
-0.127325546875,-0.0543378857421875,1.1233657666015624
-0.3515048046875,0.01404231689453125,1.106899404296875
-0.341292734375,-0.014633251953124999,1.0255506591796875
-0.32791978515625,0.0574233056640625,0.9080742236328125
-0.3189234375,0.11771552734375,0.8726838330078125
-0.3344846875,0.055952763671875,0.9316678173828125
-0.280992890625,0.08364797119140625,1.0348897900390626
-0.28196546875,0.1157548046875,1.2015195458984376
-0.39210994140625,0.29295511474609376,1.319241748046875
-0.35077537109375,0.31550342529296876,1.369378134765625
-0.20488865234375,0.1152646240234375,1.30498728515625
-0.40378087890625003,-0.061690595703125004,1.1828412841796876
-0.30846822265625,-0.3021242114257813,1.01399962890625
-0.338375,-0.304820205078125,0.6972064794921875
-0.25862359375,-0.2709977392578125,0.4720842724609375
-0.312115390625,-0.298938037109375,0.468889306640625
-0.33132380859375,-0.20310771728515625,0.665502587890625
-0.30214646484375,0.10521592041015625,0.89504859375
-0.42858162109375,0.2034971435546875,0.8785822314453124
-0.3631757421875,0.16893940673828126,0.6220018994140625
-0.27029453125,-0.0200252392578125,0.439397314453125
-0.1492085546875,-0.053847705078125,0.37598953125
-0.08477525390625,-0.022476142578125,0.6475616259765625
-0.34421046875,0.07580508056640625,0.94125271484375
-0.42906791015625,0.20178151123046875,1.348733740234375
-0.4983641015625,0.19786006591796876,1.6090005712890625
-0.48037140625,0.05570767333984375,1.571889814453125
-0.38384302734375,0.07874616455078125,1.3391488427734375
-0.34883021484375,0.07825598388671876,1.0599579833984376
-0.24865466796875,-0.03595611083984375,1.0476696533203125
-0.26713365234374997,0.01257177490234375,0.8365561425781249
-0.23212083984375,0.04884514404296875,0.7094948095703125
-0.1365650390625,-0.04330882080078125,0.63060373046875
-0.27515742187500003,-0.042328459472656246,0.694011513671875
-0.20804953125,-0.13595296630859374,0.92552365234375
-0.12513724609375,0.08119706787109375,1.3774884326171875
-0.4409819921875,0.1436951025390625,1.6414417626953126
-0.62066580078125,0.11992134033203125,1.60973787109375
-0.3427516015625,0.07237381591796875,1.4148449560546874
-0.461892421875,-0.03693647216796875,1.0648733154296874
-0.387976484375,0.0887948681640625,1.1336879638671875
-0.30798193359375,-0.008996174316406251,1.0884669091796875
-0.20926525390625,0.030463369140625002,0.9636174755859375
-0.2552195703125,0.075559990234375,0.9110234228515625
-0.2566784375,-0.08791526123046875,0.82525087890625
-0.27807515625,-0.0396324658203125,0.8603955029296875
-0.14556138671875,-0.04134809814453125,0.851302138671875
-0.09012443359375,-0.2540865063476562,1.0174403613281249
-0.213885,-0.25604722900390625,1.255342431640625
-0.4409819921875,-0.3513873681640625,1.3706069677734374
-0.59343361328125,-0.32712342529296873,1.343326875
-0.595135625,-0.17835359375,1.205697578125
-0.4040240234375,-0.0494360791015625,1.2253589062499999
-0.1686601171875,-0.01169216796875,1.2167570751953125
-0.34032015625,0.120656611328125,0.9677955078125
-0.368524921875,0.13756784423828125,0.739232568359375
-0.354908828125,-0.092081796875,0.4588128759765625
-0.033958046875,-0.10409122314453124,0.3747606982421875
0.024396640625,-0.09624833251953124,0.3939304931640625
0.02147890625,-0.1484525732421875,0.7952673535156249
-0.29387955078125,-0.0670825830078125,1.159984990234375
-0.67756162109375,0.057668395996093746,1.4000989599609375
-0.6821813671875,0.1348718505859375,1.441141982421875
-0.33570041015625,-0.057278969726562504,1.195375380859375
-0.39818855468750003,0.2152614794921875,1.1631799560546874
-0.4059691796875,-0.11193411376953125,0.7266984716796875
-0.415208671875,-0.05090662109375,0.9203625537109374
-0.393811953125,0.0858537841796875,0.9990078662109375
-0.43198564453125,0.04541387939453125,0.86064126953125
-0.207076953125,-0.11683592041015625,0.8368019091796874
-0.1492085546875,-0.08007237060546875,1.035135556640625
-0.1997826171875,0.019679394531249998,0.9862280029296875
-0.11857234375,-0.1268846240234375,0.9120064892578125
-0.28658521484375,-0.042328459472656246,1.064136015625
-0.4575158203125,0.0672269189453125,1.1823497509765626
-0.45386865234375,0.10227483642578125,1.014491162109375
-0.32402947265625,-0.087179990234375,0.78396208984375
-0.29290697265625,-0.051886982421875,0.71514744140625
-0.24038775390625,-0.120512275390625,0.8033776513671875
-0.38870591796875,-0.179333955078125,0.7729025927734375
-0.3242726171875,-0.10262068115234375,0.75840236328125
-0.23212083984375,-0.1337471533203125,0.8392595751953125
-0.38676076171875,-0.1062970361328125,0.9164302880859375
-0.347128203125,0.04320806640625,1.0486527197265625
-0.2377131640625,0.06698182861328125,1.042017021484375
-0.20634751953125,-0.029338671875,0.947642646484375
-0.13875333984375,-0.02272123291015625,1.00220283203125
-0.1920019921875,-0.02370159423828125,1.0953483740234375
-0.36828177734375,-0.02958376220703125,1.014491162109375
-0.3126016796875,-0.07124911865234375,0.80362341796875
-0.29728357421875,-0.05262225341796875,0.7085117431640625
-0.35028908203125,0.0593840283203125,0.8171405810546875
-0.3942982421875,-0.022476142578125,0.926015185546875
-0.36755234375,0.01698340087890625,1.127543798828125
-0.42201671875,-0.07958218994140626,1.1558069580078125
-0.226528515625,-0.067572763671875,1.1282810986328125
-0.22336763671875,0.0294830078125,1.07101748046875
-0.4098594921875,0.1368325732421875,1.0422627880859374
-0.2416034765625,0.0015427099609375003,0.94125271484375
-0.27102396484375,0.03462990478515625,0.7960046533203124
-0.30141703125,0.040266982421875,0.76430076171875
-0.02301654296875,-0.10213050048828125,0.804114951171875
-0.26372962890625,-0.0817880029296875,0.81935248046875
-0.35806970703125,0.04492369873046875,0.9370746826171875
-0.2970404296875,-0.01169216796875,0.9842618701171875
-0.4215304296875,-0.00752563232421875,0.8871840625
-0.35758341796875,0.108892275390625,1.0739666796875
-0.27151025390625,0.0010525292968750002,1.1368829296875
-0.35806970703125,0.00521906494140625,1.2924531884765624
-0.36463460937500003,0.09688284912109375,1.37576806640625
-0.46164927734375,0.05423713134765625,1.1872650830078124
-0.377278125,0.10325519775390625,1.0112961962890625
-0.2707808203125,0.04590406005859375,0.8441749072265625
-0.09425789062500001,-0.048945898437499996,0.7279273046875
-0.17668388671875,-0.05262225341796875,0.6087305029296874
-0.24525064453125,-0.140119501953125,0.5944760400390625
-0.22677166015625,-0.1082577587890625,0.6578838232421875
-0.48499115234375,-0.11585555908203125,0.8223016796875
-0.54140068359375,0.0299731884765625,0.842454541015625
-0.2678630859375,-0.0533575244140625,0.868014267578125
-0.3077387890625,-0.12149263671875,0.94715111328125
-0.41788326171875,-0.03056412353515625,0.9228202197265625
-0.252788125,-0.104826494140625,0.770690693359375
-0.23649744140625,-0.048945898437499996,0.9316678173828125
-0.28464005859375,0.04590406005859375,1.109848603515625
-0.331566953125,0.11256863037109376,1.189968515625
-0.30068759765624997,-0.01928996826171875,1.0702801806640625
-0.15625974609374998,0.15913579345703124,1.0385762890625
-0.30166017578125,0.1280093212890625,0.879811064453125
-0.40694175781249997,0.0887948681640625,0.8913620947265625
-0.415208671875,0.18266446533203126,0.9719735400390626
-0.4088869140625,0.18707609130859376,1.070525947265625
-0.34980279296875,0.12776423095703124,1.1312302978515625
-0.24938410156250002,0.1642826904296875,1.1852989501953124
-0.436605390625,0.18413500732421875,1.307936484375
-0.5489381640625,0.0956573974609375,1.279919091796875
-0.37217208984375,0.01183650390625,1.1125520361328125
-0.370470078125,-0.09477779052734375,0.9115149560546875
-0.29193439453125003,-0.126394443359375,0.7561904638671875
-0.29874244140625,-0.06291604736328126,0.6608330224609374
-0.27685943359375,-0.1523740185546875,0.5708824462890625
-0.27637314453125,-0.2219796728515625,0.52246642578125
-0.28391062499999997,-0.23742036376953124,0.6136458349609375
-0.31187224609374997,-0.12369844970703125,0.754961630859375
-0.28901666015625,-0.13742350830078126,0.9105318896484375
-0.49034033203125,-0.02664267822265625,1.11623853515625
-0.6043751171875,0.04051207275390625,1.121645400390625
-0.55744822265625,0.0544822216796875,1.1710444873046875
-0.4380642578125,0.0750698095703125,1.0678225146484375
-0.29776986328125,0.1338914892578125,0.8943112939453125
-0.20002576171875,-0.023456503906250002,0.8313950439453125
-0.24622322265625,-0.057278969726562504,0.963371708984375
-0.37217208984375,0.03928662109375,1.0343982568359376
-0.2104809765625,-0.07468038330078125,1.076424345703125
-0.35466568359375,-0.0474753564453125,1.2555881982421875
-0.59051587890625,-0.013162709960937501,1.2570627978515625
-0.18300564453125,-0.04870080810546875,1.1145181689453125
-0.44949205078125,-0.030319033203124998,0.8633447021484375
-0.42858162109375,-0.00948635498046875,0.802148818359375
-0.29679728515625,-0.024436865234375,0.89504859375
-0.58079009765625,-0.06438658935546875,1.064136015625
-0.48815203125,0.02286556884765625,1.1995534130859375
-0.33861814453125,-0.0960032421875,1.1700614208984375
-0.2843969140625,0.11379408203125,1.0830600439453124
-0.35855599609375,-0.02615249755859375,0.913235322265625
-0.2099946875,-0.03522083984375,1.0688055810546875
-0.380195859375,-0.01928996826171875,1.06118681640625
-0.49982296875,-0.04575972412109375,1.193409248046875
-0.34396732421875,-0.11561046875,1.1272980322265624
-0.42055785156250003,-0.075415654296875,0.7571735302734375
-0.2843969140625,-0.14036459228515624,0.61979
-0.265431640625,-0.2631548486328125,0.66599412109375
-0.29242068359375,-0.1719812451171875,0.863098935546875
-0.32500205078125,-0.15850127685546875,0.996795966796875
-0.30409162109375,-0.01879978759765625,1.2496897998046874
-0.39697283203125,-0.1121792041015625,1.3774884326171875
-0.48936775390625,-0.0690433056640625,1.4099296240234376
-0.27807515625,0.0368357177734375,1.17915478515625
-0.36001486328125,-0.06487677001953125,1.02186416015625
-0.33910443359375,0.046149150390625,1.1327048974609375
-0.4614061328125,-0.0249270458984375,0.92945591796875
-0.384086171875,-0.09796396484375,0.85867513671875
-0.27394169921875,-0.0023787353515625003,0.717605107421875
-0.36439146484375,0.01649322021484375,0.61880693359375
-0.38141158203125003,0.04712951171875,0.545076953125
-0.27151025390625,0.00717978759765625,0.564246748046875
-0.32281375,0.05864875732421875,0.7829790234375
-0.438550546875,0.11943115966796874,1.049881552734375
-0.45338236328125,0.0044837939453125,1.33251314453125
-0.42031470703125,-0.0415931884765625,1.3391488427734375
-0.3116291015625,-0.00605509033203125,1.3420980419921875
-0.3320532421875,-0.01389798095703125,1.072492080078125
-0.25303126953125,-0.06536695068359374,0.9166760546875
-0.25497642578125,0.0294830078125,0.8159117480468749
-0.41350666015625,0.00325834228515625,0.766758427734375
-0.33229638671875,-0.03840701416015625,0.816894814453125
-0.436605390625,-0.12860025634765626,0.8146829150390625
-0.45411179687500003,0.07384435791015626,0.86457353515625
-0.26056875,-0.03644629150390625,0.8377849755859375
-0.51854509765625,-0.0915916162109375,0.8694888671875
-0.38238416015625,0.07482471923828125,1.00220283203125
-0.29874244140625,-0.08399381591796876,0.969270107421875
-0.29631099609375,0.0686974609375,0.9203625537109374
-0.1676875390625,0.112813720703125,1.00220283203125
-0.44706060546875,-0.0033590966796874996,1.0771616455078126
-0.32111173828125,0.00717978759765625,0.9154472216796875
-0.2464663671875,0.01183650390625,0.697943779296875
-0.2766162890625,-0.10016977783203125,0.6362563623046875
-0.39891798828125,-0.1533543798828125,0.7908435546875
-0.331566953125,0.04712951171875,0.892590927734375
-0.44292714843750003,-0.063651318359375,0.846386806640625
-0.46845732421874997,0.00963069091796875,0.8589209033203125
-0.33326896484375,0.06109966064453125,1.064136015625
-0.3344846875,0.032424091796875,1.0181776611328126
-0.38287044921875,0.101049384765625,0.8849721630859375
-0.2406308984375,-0.08840544189453126,0.94223578125
-0.253760703125,-0.00703545166015625,1.05332228515625
-0.4691867578125,-0.0464949951171875,1.001711298828125
-0.3967296875,-0.06095532470703125,0.94715111328125
-0.280992890625,-0.055073156738281254,0.9481341796875
-0.4049966015625,0.07139345458984375,0.904387724609375
-0.38700390625000003,0.0103659619140625,0.82918314453125
-0.4215304296875,-0.0371815625,0.9134810888671875
-0.3563676953125,0.03757098876953125,0.9827872705078124
-0.34226531250000003,0.12678386962890625,1.0395593554687501
-0.421044140625,0.080461796875,0.946659580078125
-0.327676640625,-0.07026875732421875,0.838522275390625
-0.2707808203125,0.07727562255859374,0.9631259423828125
-0.41836955078125,0.08266760986328126,0.965337841796875
-0.444386015625,-0.07664110595703125,1.0149826953125
-0.25059982421875,-0.00507472900390625,1.0761785791015626
-0.25983931640625,-0.01830960693359375,1.0575003173828126
-0.37119951171875,0.07972652587890625,1.009084296875
-0.34834392578125,-0.00262382568359375,1.1169758349609376
-0.4419545703125,0.01110123291015625,1.2664019287109376
-0.417153828125,0.1221271533203125,1.21061291015625
-0.5450478515625,0.0294830078125,1.0383305224609374
-0.2912049609375,-0.10360104248046875,0.9464138134765625
-0.358799140625,-0.053847705078125,0.873912666015625
-0.3699837890625,0.06404074462890624,0.7837163232421875
-0.1871391015625,-0.01953505859375,0.9149556884765625
-0.45289607421875,-0.04428918212890625,1.119679267578125
-0.35369310546875,0.02727719482421875,1.1430270947265626
-0.40864376953125,-0.04772044677734375,0.8557259375
-0.36463460937500003,-0.06267095703125,0.8267254785156251
-0.31478998046875,-0.146001669921875,0.94911724609375
-0.4234755859375,-0.12860025634765626,0.93928658203125
-0.39891798828125,0.0054641552734375,0.9183964208984375
-0.2484115234375,-0.08203309326171875,0.749063232421875
-0.29679728515625,-0.08497417724609375,0.690079248046875
-0.3641483203125,-0.0028689160156250004,0.765775361328125
-0.28391062499999997,-0.006790361328125,0.875878798828125
-0.284883203125,-0.047965537109375,0.8785822314453124
-0.370470078125,0.0584036669921875,0.933879716796875
-0.32864921874999997,0.033404453125,1.0582376171875
-0.32111173828125,0.02360083984375,1.1798920849609376
-0.39940427734375,0.1485969091796875,1.0896957421875
-0.33472783203125,0.09100068115234375,0.94911724609375
-0.41034578125,0.016738310546875,0.9115149560546875
-0.29971501953125,0.0044837939453125,0.882760263671875
-0.24476435546875,0.00570924560546875,0.7576650634765625
-0.325731484375,-0.07026875732421875,0.75840236328125
-0.3252451953125,0.021885207519531248,0.8161575146484374
-0.29582470703125,0.03610044677734375,0.823776279296875
-0.38287044921875,0.024091020507812498,0.839996875
-0.26154132812499997,-0.00948635498046875,0.8977520263671875
-0.323786328125,0.0137972265625,0.8422087744140625
-0.22190876953125,0.0652661962890625,0.947642646484375
-0.22044990234375,-0.02468195556640625,0.972219306640625
-0.316005703125,0.0780108935546875,1.2541135986328125
-0.46310814453125,0.07727562255859374,1.386090263671875
-0.4818302734375,-0.0523771630859375,1.185544716796875
-0.4156949609375,0.0574233056640625,1.024813359375
-0.33521412109375,-0.09134652587890625,1.028254091796875
-0.3057936328125,0.01575794921875,0.92748978515625
-0.40937320312500003,-0.05409279541015625,0.79969115234375
-0.2746711328125,-0.01144707763671875,0.7613515625
-0.2873146484375,0.05423713134765625,0.6986810791015625
-0.378250703125,0.0255615625,0.792318154296875
-0.2989855859375,0.0250713818359375,1.0031858984375
-0.46213556640625,0.024091020507812498,1.1705529541015625
-0.432715078125,0.03708080810546875,1.2998261865234375
-0.380195859375,-0.09624833251953124,1.283851357421875
-0.5761703515625,0.0603643896484375,1.0280083251953125
-0.377278125,-0.04428918212890625,0.8930824609375
-0.39502767578125,-0.08105273193359375,0.7674957275390625
-0.338375,0.0255615625,0.7043337109375
-0.36779548828124997,-0.02762303955078125,0.7144101416015625
-0.23819945312500002,-0.07615092529296875,0.6972064794921875
-0.3213548828125,-0.042083369140625,0.6917996142578124
-0.41934212890625,0.0015427099609375003,0.7778179248046875
-0.32694720703125,-0.0376717431640625,0.9277355517578125
-0.43879369140625,0.017718671875,1.0801108447265624
-0.31624884765625,0.1084020947265625,1.168832587890625
-0.4857205859375,0.059874208984374996,1.159001923828125
-0.603888828125,0.00816014892578125,1.0127707958984375
-0.26154132812499997,-0.05874951171875,0.9188879541015624
-0.34980279296875,-0.0161037939453125,0.8205813134765625
-0.4589746875,-0.1004148681640625,0.8417172412109375
-0.22920310546875,-0.08497417724609375,0.98647376953125
-0.49860724609375,-0.027868129882812502,0.902913125
-0.4545980859375,0.0417375244140625,0.8259881787109375
-0.37898013671874997,-0.03987755615234375,0.59717947265625
-0.21218298828125,0.00987578125,0.5148476611328126
-0.26518849609375,0.1000690234375,0.60701013671875
-0.40937320312500003,0.00399361328125,0.7158847412109375
-0.423961875,0.10913736572265625,0.926998251953125
-0.4866931640625,0.08462833251953125,1.0179318945312499
-0.3378887109375,0.04492369873046875,1.0594664501953126
-0.35588140625,0.00276816162109375,1.1169758349609376
-0.37557611328125,0.09443194580078125,1.30498728515625
-0.34980279296875,0.05619785400390625,1.2688595947265624
-0.5071173046875,-0.06536695068359374,1.0727378466796875
-0.35855599609375,-0.0464949951171875,0.9768888720703125
-0.31576255859375,-0.03546593017578125,0.8485987060546875
-0.3038484765625,-0.124433720703125,0.7842078564453125
-0.273212265625,-0.07271966064453125,0.83508154296875
-0.34688505859375,0.04051207275390625,0.9501003125
-0.3894353515625,-0.08350363525390625,0.9439561474609375
-0.37119951171875,-0.12222790771484375,0.9970417333984375
-0.36828177734375,-0.0661022216796875,1.083305810546875
-0.35588140625,-0.0690433056640625,1.009575830078125
-0.46286499999999997,-0.12541408203125,0.9685328076171875
-0.40767119140625,-0.12149263671875,1.0058893310546875
-0.37581925781250003,-0.03301502685546875,1.214053642578125
-0.40937320312500003,-0.0651218603515625,1.193409248046875
-0.38141158203125003,-0.0239466845703125,1.0638902490234374
-0.3111428125,-0.10115013916015625,0.85277673828125
-0.387976484375,-0.118551552734375,0.852285205078125
-0.37314466796875,-0.0082609033203125,0.8397511083984375
-0.38457246093749997,-0.0055649096679687505,0.7306307373046875
-0.31989601562500003,-0.0063001806640625,0.824759345703125
-0.35272052734375,0.015022678222656249,1.0068723974609375
-0.399647421875,0.048109873046875,1.1356540966796875
-0.50930560546875,0.07850107421875,1.0034316650390624
-0.37800755859375,-0.01879978759765625,1.05332228515625
-0.3262177734375,-0.0013983740234375002,1.127543798828125
-0.36244630859375,0.030708459472656248,1.0511103857421875
-0.323786328125,-0.01389798095703125,1.012525029296875
-0.33083751953125,-0.1131595654296875,1.03661015625
-0.38092529296875,0.07335417724609375,1.074458212890625
-0.40937320312500003,0.03855135009765625,0.8427003076171875
-0.33229638671875,-0.0886505322265625,0.7869112890625
-0.317950859375,-0.032279755859375,0.9218371533203125
-0.3553951171875,0.0760501708984375,0.9891772021484375
-0.44462916015625,0.04247279541015625,0.9134810888671875
-0.41107521484375,0.00570924560546875,0.8505648388671875
-0.34153587890625,-0.00507472900390625,0.88226873046875
-0.37581925781250003,0.00570924560546875,0.8200897802734375
-0.347128203125,-0.08840544189453126,0.8259881787109375
-0.35101851562499997,-0.1249239013671875,1.0766701123046876
-0.35661083984374997,-0.07443529296875,1.196358447265625
