ax,ay,az
-0.43538966796875,-0.19918627197265626,1.1828412841796876
-0.574711484375,-0.022476142578125,1.1184504345703126
-0.456056953125,0.1240878759765625,0.9346170166015625
-0.16306779296875,0.05962911865234375,0.78396208984375
-0.18981369140625,-0.03448556884765625,0.6834435498046875
-0.58127638671875,-0.00311400634765625,0.7043337109375
-0.47137505859375,-0.07222947998046875,0.6279002978515625
-0.0645942578125,-0.0945327001953125,0.6003744384765625
-0.27831830078124997,-0.09477779052734375,0.97369390625
-0.73980662109375,-0.02958376220703125,1.2118417431640625
-0.5946493359375,-0.07026875732421875,1.30498728515625
-0.2639727734375,0.013552136230468751,1.2226554736328126
-0.2357680078125,0.23658433837890624,1.0314490576171875
-0.31697828125,0.2123203955078125,1.135408330078125
-0.25157240234375,0.0593840283203125,1.2452660009765626
-0.47915568359375,-0.04477936279296875,1.173747919921875
-0.40475345703125,-0.03914228515625,1.1538408251953125
-0.551369609375,-0.13840386962890625,0.9808211376953125
-0.52875716796875,-0.077376376953125,0.776589091796875
-0.44122513671875,-0.17516741943359376,0.6099593359375
-0.16890326171875,-0.0680629443359375,0.6097135693359375
-0.3281629296875,-0.05164189208984375,0.8181236474609375
-0.55209904296875,-0.16144236083984376,0.9351085498046875
-0.5217059765625,-0.03914228515625,0.957473310546875
-0.33181009765625,0.0137972265625,0.81345408203125
-0.265431640625,0.06281529296875,0.9614055761718749
-0.252788125,-0.013652890625,1.0923991748046875
-0.34396732421875,0.15423398681640624,1.101984072265625
-0.55647564453125,0.22923162841796874,0.84294607421875
-0.386031328125,0.2133007568359375,0.7011387451171875
-0.2347954296875,0.177517568359375,0.6996641455078125
-0.23601115234375,0.21697711181640625,0.8928366943359375
-0.6690515625,0.09418685546875,1.1010010058593749
-0.553314765625,0.14884199951171875,1.1749767529296875
-0.338375,0.08462833251953125,1.1749767529296875
-0.08526154296874999,-0.0180645166015625,1.29319048828125
-0.2279873828125,-0.10065995849609374,1.3755222998046874
-0.51538421875,0.046149150390625,1.2673849951171876
-0.5907590234375,-0.01095689697265625,0.9360916162109375
-0.47380650390625,0.101049384765625,0.76626689453125
-0.2795340234375,0.06502110595703126,0.62470533203125
-0.20780638671875,0.0387964404296875,0.51460189453125
-0.27929087890625,0.10276501708984374,0.487567568359375
-0.27977716796875,0.077520712890625,0.5605602490234375
-0.33618669921875,0.13021513427734374,0.7065456103515625
-0.3894353515625,0.19099753662109376,0.9186421875
-0.45484123046875,0.05619785400390625,1.1054248046875
-0.63379560546875,-0.020515419921875,1.1086197705078125
-0.419098984375,-0.13644314697265625,0.92159138671875
-0.237226875,-0.0621807763671875,0.8844806298828125
-0.1472633984375,0.01183650390625,0.8962774267578125
-0.22288134765625,0.19933060791015625,0.8183694140625
-0.18057419921875,0.16477287109375,0.8736668994140625
-0.3583128515625,0.291239482421875,1.0216183935546874
-0.5129527734375,0.2740831591796875,1.01203349609375
-0.50395642578125,0.27677915283203125,0.9650920751953125
-0.197351171875,0.05129604736328125,0.916184521484375
-0.3028758984375,0.11943115966796874,1.0265337255859375
-0.33472783203125,0.028502646484374998,0.958456376953125
-0.59926908203125,0.15374380615234376,1.04545775390625
-0.66516125,0.1280093212890625,1.0108046630859375
-0.5907590234375,0.23168253173828124,0.969270107421875
-0.39551396484375,0.2765340625,0.993355234375
-0.27151025390625,0.1466361865234375,0.936828916015625
-0.21583015625000002,0.12041152099609376,0.7252238720703125
-0.18057419921875,0.1015395654296875,0.7625803955078125
-0.39600025390625,0.02776737548828125,0.79575888671875
-0.5751977734375,0.07850107421875,0.9677955078125
-0.5445615625,0.04590406005859375,1.1449932275390624
-0.49666208984375,0.116735166015625,1.237647236328125
-0.69044828125,0.16354741943359374,1.1695698876953124
-0.4079143359375,0.085363603515625,0.99630443359375
-0.3865176171875,-0.0268877685546875,0.82721701171875
-0.3942982421875,0.04541387939453125,0.7301392041015625
-0.30919765625,0.026051743164062502,0.69941837890625
-0.27053767578125,0.0069346972656249995,0.72202890625
-0.2367405859375,0.07433453857421875,0.8984893261718749
-0.31624884765625,0.079481435546875,1.08674654296875
-0.69506802734375,-0.0308092138671875,1.2548508984375
-0.5372672265625,0.06992291259765625,1.1066536376953124
-0.41642439453125,-0.10213050048828125,0.9380577490234375
-0.1414279296875,-0.09085634521484375,0.885709462890625
-0.40037685546875,-0.06536695068359374,0.989914501953125
-0.48110083984375,-0.10801266845703125,0.8299204443359375
-0.28269490234375,0.0789912548828125,0.932896650390625
-0.40694175781249997,0.1672237744140625,0.9680412744140625
-0.41982841796875,0.0025230712890624996,1.0683140478515625
-0.41156150390625,0.03561026611328125,0.9744312060546875
-0.3884627734375,0.09247122314453125,0.8368019091796874
-0.39989056640625,0.04320806640625,0.645841259765625
-0.244034921875,0.053992041015625,0.535737822265625
-0.24670951171875,0.08805959716796875,0.521974892578125
-0.434660234375,0.08609887451171874,0.605535537109375
-0.5294866015625,0.1054610107421875,0.7684787939453125
-0.4356328125,0.20962440185546874,0.833606943359375
-0.222638203125,0.19540916259765626,1.00515203125
-0.29728357421875,0.2025167822265625,1.20668064453125
-0.1803310546875,0.12335260498046875,1.1543323583984375
-0.42080099609375,0.010856142578125,1.095594140625
-0.4108320703125,0.10962754638671875,0.977626171875
-0.2980130078125,0.03928662109375,0.862115869140625
-0.4477900390625,0.0544822216796875,1.0122792626953125
-0.5538010546875,-0.05213207275390625,1.135408330078125
-0.51757251953125,-0.01978014892578125,1.177680185546875
-0.4925286328125,0.0319339111328125,1.024321826171875
-0.49131291015625,0.1054610107421875,0.7321053369140624
-0.30652306640625,-0.038161923828125,0.6323240966796875
-0.27272597656249997,-0.1582561865234375,0.614383134765625
-0.286828359375,0.02580665283203125,0.7928096875
-0.36147373046875,-0.04379900146484375,0.9808211376953125
-0.4886383203125,-0.0876701708984375,1.0530765185546875
-0.5523421875,0.00668960693359375,1.03366095703125
-0.52778458984375,-0.06585713134765625,0.8284458447265625
-0.56522884765625,-0.0097314453125,0.6716467529296875
-0.3748466796875,0.0044837939453125,0.60111173828125
-0.137051328125,-0.004829638671875,0.6691890869140625
-0.12027435546875,0.02972809814453125,0.9756600390625
-0.3038484765625,0.0255615625,1.279919091796875
-0.45921783203125,0.004973974609375,1.487346103515625
-0.5285140234375,0.275553701171875,1.509956630859375
-0.64498025390625,0.30202345703125,1.23027423828125
-0.605833984375,0.10374537841796876,0.9709904736328125
-0.22774423828125,-0.00703545166015625,0.9356000830078125
-0.39745912109375,0.0956573974609375,0.813945615234375
-0.436605390625,0.17433139404296874,0.80362341796875
-0.45702953125,0.024581201171875,0.8363103759765624
-0.386031328125,0.01845394287109375,1.0179318945312499
-0.3942982421875,0.01575794921875,1.1612138232421876
-0.2027003515625,0.0338946337890625,1.174730986328125
-0.32062544921875,0.10619628173828125,1.3042499853515626
-0.77141541015625,-0.051886982421875,1.2981058203125
-0.65373345703125,-0.03889719482421875,1.0806023779296874
-0.67075357421875,0.07850107421875,0.8471241064453126
-0.5100350390625,0.16060633544921876,0.6888504150390625
-0.220693046875,0.17531175537109375,0.74267330078125
-0.18154677734375,0.023845930175781252,0.8962774267578125
-0.417153828125,-0.09085634521484375,1.0791277783203126
-0.58759814453125,0.028502646484374998,1.1346710302734375
-0.6909345703125,0.07335417724609375,0.9744312060546875
-0.4818302734375,-0.201882265625,0.8871840625
-0.32840607421875,-0.19845100097656249,1.0425085546875
-0.37898013671874997,0.00717978759765625,1.133442197265625
-0.44462916015625,0.0182088525390625,1.0899415087890625
-0.4545980859375,-0.0631611376953125,1.0122792626953125
-0.563040546875,-0.1415900439453125,1.043000087890625
-0.53070232421875,-0.0376717431640625,0.889641728515625
-0.26275705078125,-0.03252484619140625,0.7515208984375
-0.284883203125,-0.052867343750000004,0.7242408056640625
-0.42809533203125,-0.17663796142578125,0.7397241015625
-0.374360390625,-0.149923115234375,0.7547158642578125
-0.4370916796875,-0.1572758251953125,0.7655295947265625
-0.4049966015625,-0.11340465576171875,0.8289373779296875
-0.42517759765625,-0.06291604736328126,0.9483799462890625
-0.54091439453125,0.0378160791015625,0.9351085498046875
-0.5343494921875,0.00963069091796875,0.840488408203125
-0.44949205078125,0.02874773681640625,0.7458682666015625
-0.44706060546875,0.0907555908203125,0.65812958984375
-0.26518849609375,0.061834931640625,0.6220018994140625
-0.13024328125,0.03315936279296875,0.657638056640625
-0.2411171875,-0.028113220214843748,0.809030283203125
-0.4098594921875,0.07041309326171875,0.9075826904296875
-0.522192265625,-0.07124911865234375,0.9614055761718749
-0.42080099609375,-0.0494360791015625,1.026287958984375
-0.4200715625,0.1025199267578125,1.094119541015625
-0.387976484375,0.07678544189453125,1.1223827001953124
-0.35588140625,0.1584005224609375,1.23617263671875
-0.51757251953125,-0.08252327392578125,1.1700614208984375
-0.439523125,0.01845394287109375,1.119187734375
-0.50784673828125,0.04712951171875,0.964354775390625
-0.46019041015625,0.04002189208984375,0.7591396630859375
-0.08355953125,-0.027868129882812502,0.676316318359375
-0.0621628125,-0.047965537109375,0.636993662109375
-0.112736875,0.0289928271484375,0.862115869140625
-0.48012826171875,-0.08546435791015625,0.965337841796875
-0.50055240234375,0.11379408203125,1.0884669091796875
-0.539698671875,-0.01978014892578125,1.068559814453125
-0.3874901953125,0.0731090869140625,1.1975872802734375
-0.4866931640625,0.22383964111328125,1.2128248095703125
-0.4263933203125,0.34638480712890624,1.2233927734375
-0.49374435546875,0.3365811938476562,1.0759328125
-0.33181009765625,0.2875631274414063,0.97074470703125
-0.16744439453124998,0.2133007568359375,0.970253173828125
-0.11079171875,0.1456558251953125,1.1061621044921874
-0.4011062890625,0.1878113623046875,1.014491162109375
-0.40937320312500003,0.16795904541015624,0.9552614111328125
-0.384086171875,0.2113400341796875,0.855234404296875
-0.35612455078125,0.2054578662109375,0.9009469921875
-0.50833302734375,0.22629054443359375,1.1386032958984376
-0.36633662109375,0.155949619140625,1.3312843115234374
-0.30117388671875,0.16844922607421875,1.3052330517578126
-0.3592854296875,0.13266603759765624,1.1784174853515625
-0.4866931640625,0.01747358154296875,1.004660498046875
-0.48110083984375,0.11452935302734375,0.7950215869140624
-0.36220316406249997,0.12163697265625,0.5698993798828125
-0.098148203125,0.1000690234375,0.5674417138671874
-0.13534931640625,0.2201632861328125,0.88423486328125
-0.4254207421875,0.2799653271484375,1.0486527197265625
-0.47866939453125,0.21697711181640625,0.94125271484375
-0.3427516015625,0.2093793115234375,0.884726396484375
-0.4944737890625,0.17188049072265624,0.7942842871093749
-0.46067669921875,0.13511694091796875,0.7969877197265625
-0.494960078125,0.0182088525390625,0.7901062548828125
-0.4040240234375,0.064776015625,0.7753602587890625
-0.28123603515625,0.033404453125,0.6967149462890625
-0.36439146484375,0.004973974609375,0.7262069384765625
-0.2722396875,0.0015427099609375003,0.728418837890625
-0.30141703125,0.1407540185546875,0.7082659765625
-0.401592578125,0.23217271240234374,0.79379275390625
-0.4837754296875,0.040266982421875,0.7498005322265625
-0.419098984375,0.028257556152343752,0.62470533203125
-0.26056875,0.0427178857421875,0.617332333984375
-0.3656071875,-0.06438658935546875,0.739232568359375
-0.37606240234375,0.01845394287109375,1.0265337255859375
-0.49325806640625003,0.1471263671875,1.19390078125
-0.5178156640625,-0.004829638671875,1.2609950634765625
-0.42080099609375,-0.05360261474609375,1.1700614208984375
-0.39940427734375,0.14884199951171875,0.9080742236328125
-0.1686601171875,0.1157548046875,0.8446664404296875
-0.21193984375,0.11943115966796874,0.8613785693359375
-0.41496552734375003,0.1314405859375,0.8250051123046875
-0.321841171875,0.09810830078125,0.8662939013671875
-0.4332013671875,0.04345315673828125,0.7896147216796875
-0.35588140625,0.1319307666015625,0.6925369140625
-0.2474389453125,0.0613447509765625,0.571128212890625
-0.1725504296875,0.08854977783203125,0.6357648291015625
-0.30798193359375,0.23535888671875,0.9070911572265625
-0.41836955078125,0.3005529150390625,1.2516559326171874
-0.5051721484375,0.19933060791015625,1.32858087890625
-0.3417790234375,0.34123791015625,1.1604765234375
-0.259596171875,0.3189346899414062,0.9994993994140625
-0.18592337890625,0.1907524462890625,0.930438984375
-0.1414279296875,0.197124794921875,0.976151572265625
-0.21655958984375,0.3118270703125,1.0398051220703124
-0.290718671875,0.34491426513671875,1.0661021484375
-0.34032015625,0.34099281982421875,1.0732293798828125
-0.56085224609375,0.25276030029296875,1.0830600439453124
-0.607779140625,0.17433139404296874,1.0103131298828125
-0.48037140625,0.34246336181640624,1.0535680517578125
-0.48936775390625,0.3958930541992188,1.189476982421875
-0.3301080859375,0.34001245849609374,1.1322133642578125
-0.20464550781250002,0.2907493017578125,1.221918173828125
-0.35563826171875,0.10987263671875,0.969270107421875
-0.48450486328125,0.09688284912109375,0.5930014404296875
-0.30652306640625,0.101049384765625,0.4671689404296875
-0.1735230078125,0.111833359375,0.3914728271484375
-0.23941517578125,0.13511694091796875,0.417769853515625
-0.2124261328125,0.2289865380859375,0.6807401171875
-0.26275705078125,0.307905625,1.009084296875
-0.44803318359375,0.4142748291015625,1.4475319140625
-0.673914453125,0.47040051513671877,1.7146802099609375
-0.76363478515625,0.491233193359375,1.7210701416015626
-0.55453048828125,0.5544664990234375,1.374293466796875
-0.1842213671875,0.2787398754882813,1.06315294921875
-0.1511537109375,0.12972495361328126,0.8603955029296875
-0.16987583984375,0.165753232421875,0.775606025390625
-0.201241484375,0.101049384765625,0.7571735302734375
-0.4575158203125,0.07678544189453125,0.7729025927734375
-0.48596373046875,0.12825441162109374,0.7615973291015625
-0.53483578125,0.1113431787109375,0.750046298828125
-0.42590703125,0.16011615478515626,0.779538291015625
-0.3019033203125,0.10202974609375,0.86457353515625
-0.323786328125,0.24883885498046876,1.0395593554687501
-0.46019041015625,0.273592978515625,1.1722733203125
-0.51027818359375,0.1897720849609375,1.229782705078125
-0.36001486328125,0.02580665283203125,1.011541962890625
-0.1647698046875,-0.0317895751953125,0.8127167822265625
-0.07966921874999999,0.04002189208984375,0.7856824560546875
-0.391866796875,0.04590406005859375,0.74267330078125
-0.4419545703125,-0.046249904785156254,0.669434853515625
-0.39551396484375,0.114774443359375,0.7534870312499999
-0.25789416015625,0.05374695068359375,0.9795923046875
-0.32402947265625,0.11256863037109376,1.2029941455078126
-0.49885039062500003,0.31305252197265626,1.2831140576171876
-0.4925286328125,0.29785692138671876,1.126560732421875
-0.461892421875,0.2780046044921875,1.0464408203125
-0.43636224609375,0.2522701196289063,1.035135556640625
-0.20586123046875,0.21354584716796876,1.1435186279296874
-0.2124261328125,0.28952385009765624,1.1880023828125
-0.1453182421875,0.11845079833984375,0.9783634716796875
-0.072861171875,0.013552136230468751,0.8254966455078125
-0.09839134765625,0.02874773681640625,0.749554765625
-0.28318119140625,0.04247279541015625,0.6942572802734375
-0.36098744140625,0.10570610107421875,0.688113115234375
-0.299471875,0.12163697265625,0.8289373779296875
-0.3330258203125,0.27457333984375,0.9011927587890625
-0.42201671875,0.3211405029296875,0.9508376123046876
-0.570821171875,0.26158355224609375,1.0019570654296874
-0.37071322265625,0.31354270263671874,0.8535140380859375
-0.279047734375,0.2623188232421875,0.7493089990234375
-0.236254296875,0.25128975830078126,0.8073099169921875
-0.18981369140625,0.26697553955078124,0.902421591796875
-0.09450103515625,0.3044743603515625,1.160968056640625
-0.2523018359375,0.4113337451171875,1.3868275634765626
-0.53264748046875,0.26011301025390626,1.1887396826171874
-0.36974064453125,0.2547210229492187,0.8778449316406249
-0.18640966796875,0.0476196923828125,0.7178508740234375
-0.1346198828125,0.0123266845703125,0.725961171875
-0.15528716796875,0.19442880126953124,0.98450763671875
-0.162338359375,0.204967685546875,1.09461107421875
-0.4857205859375,0.2723675268554687,1.1754682861328125
-0.504685859375,0.2829064111328125,1.1051790380859374
-0.29387955078125,0.340257548828125,1.043983154296875
-0.2591098828125,0.269671533203125,0.8451579736328125
-0.2279873828125,0.2829064111328125,0.7758517919921875
-0.2464663671875,0.27972023681640623,0.784453623046875
-0.32062544921875,0.28560240478515625,0.7861739892578125
-0.46286499999999997,0.2333981640625,0.7109694091796875
-0.4127772265625,0.25619156494140627,0.694994580078125
-0.37995271484375,0.289278759765625,0.6888504150390625
-0.44730375,0.27775951416015626,0.8402426416015625
-0.3048210546875,0.205948046875,0.7198170068359375
-0.2474389453125,0.07850107421875,0.7925639208984375
-0.51854509765625,0.1025199267578125,0.727435771484375
-0.5110076171875,0.02580665283203125,0.6414174609375
-0.53118861328125,0.140263837890625,0.737266435546875
-0.553314765625,0.14443037353515625,0.8136998486328125
-0.5255962890625,0.2182025634765625,0.839996875
-0.517329375,0.21893783447265625,0.96681244140625
-0.299471875,0.13021513427734374,1.0211268603515624
-0.40280830078125,0.11796061767578125,0.799199619140625
-0.30627992187499997,0.0917359521484375,0.7099863427734375
-0.33375525390625,0.0838930615234375,0.72497810546875
-0.17376615234375,0.032424091796875,0.721537373046875
-0.2386857421875,0.03659062744140625,0.881777197265625
-0.40669861328125,0.19614443359375,0.862115869140625
-0.49982296875,0.193203349609375,0.871455
-0.40864376953125,0.08634396484375,0.983033037109375
-0.38578818359375,0.1593808837890625,1.073475146484375
-0.467727890625,0.175556845703125,1.0791277783203126
-0.3680386328125,0.22727090576171874,1.046932353515625
-0.50638787109375,0.2603581005859375,0.873912666015625
-0.50055240234375,0.2427115966796875,0.80067421875
-0.47234763671875,0.19050735595703125,0.70335064453125
-0.39065107421875,0.21991819580078126,0.695977646484375
-0.43247193359375,0.208889130859375,0.6898334814453125
-0.43174250000000003,0.20080114990234374,0.7237492724609375
-0.494960078125,0.20472259521484376,0.8368019091796874
-0.4789125390625,0.2691813525390625,0.9695158740234375
-0.51562736328125,0.153988896484375,0.93928658203125
-0.60753599609375,0.15815543212890626,0.9532952783203125
-0.5056584375,0.18707609130859376,0.8734211328125
-0.4769673828125,0.1711452197265625,0.8340984765625
-0.46067669921875,0.1613416064453125,0.7699533935546875
-0.45484123046875,0.0731090869140625,0.754961630859375
-0.47088876953125003,0.0672269189453125,0.8436833740234375
-0.4584883984375,0.08070688720703124,0.8775991650390624
-0.43198564453125,0.2231043701171875,0.8930824609375
-0.27637314453125,0.08315779052734375,0.8913620947265625
-0.3952708203125,0.05913893798828125,0.992863701171875
-0.4195852734375,0.12629368896484375,0.9665666748046875
-0.41107521484375,-0.0327699365234375,0.8564632373046875
-0.47477908203125,0.07433453857421875,0.8535140380859375
-0.35101851562499997,0.11452935302734375,0.7674957275390625
-0.3767918359375,0.0368357177734375,0.7947758203124999
-0.207076953125,0.06109966064453125,0.930930517578125
-0.49666208984375,-0.02321141357421875,1.051847685546875
-0.30798193359375,-0.059484782714843754,1.0992806396484376
-0.345183046875,-0.0317895751953125,1.056763017578125
-0.40183572265625,0.050070595703125,0.8962774267578125
-0.44414287109375,0.091245771484375,0.90389619140625
-0.51757251953125,-0.0141430712890625,0.930438984375
-0.52316484375,0.08462833251953125,0.906353857421875
-0.38700390625000003,0.06747200927734374,0.748080166015625
-0.29922873046875,0.05325677001953125,0.6711552197265624
-0.27588685546875,0.106931552734375,0.65911265625
-0.41593810546875,-0.0161037939453125,0.6976980126953125
-0.401592578125,0.07065818359375,0.827708544921875
-0.3816547265625,-0.03938737548828125,0.911269189453125
-0.31746457031249997,-0.0063001806640625,0.88620099609375
-0.3884627734375,-0.16242272216796874,0.860149736328125
-0.448276328125,-0.11364974609375,0.8348357763671875
-0.53459263671875,-0.14109986328125,0.7591396630859375
-0.330594375,-0.2464887060546875,0.7606142626953125
-0.24136033203125,-0.13399224365234375,1.016457294921875
-0.4993366796875,0.1446754638671875,1.0791277783203126
-0.5178156640625,0.089285048828125,0.8785822314453124
-0.26324333984375,0.03953171142578125,0.8461410400390625
-0.259596171875,0.09026541015625,0.850319072265625
-0.42663646484375,0.18217428466796876,0.7473428662109375
-0.391866796875,0.15423398681640624,0.6573922900390625
-0.461892421875,0.065756376953125,0.6731213525390625
-0.54042810546875,0.0162481298828125,0.76626689453125
-0.59100216796875,-0.04526954345703125,0.8353273095703125
-0.44049570312499997,0.00325834228515625,0.9169218212890625
-0.2873146484375,0.01845394287109375,1.0496357861328125
-0.5290003125,0.04786478271484375,1.0855177099609374
-0.458002109375,-0.03644629150390625,0.9818042041015624
-0.36925435546875,-0.10580685546875,0.9385492822265625
-0.40329458984375,-0.013407800292968751,0.802148818359375
-0.491069765625,0.038306259765625,0.707774443359375
-0.2931501171875,0.00865032958984375,0.6632906884765625
-0.3544225390625,0.010856142578125,0.6849181494140625
-0.49277177734375,-0.05090662109375,0.7709364599609375
-0.54067125,-0.1195319140625,0.7615973291015625
-0.49228548828125,-0.07835673828125,0.710723642578125
-0.2902323828125,-0.09085634521484375,0.8065726171875
-0.41788326171875,-0.02909358154296875,1.049881552734375
-0.44171142578125,-0.19281392333984376,1.1685868212890624
-0.4045103125,-0.13546278564453124,1.3027753857421875
-0.44900576171875,-0.0175743359375,1.122628466796875
-0.37144265625,-0.09379742919921875,0.963371708984375
-0.3651208984375,-0.1151202880859375,1.0063808642578125
-0.36633662109375,0.021640117187500002,1.0068723974609375
-0.514411640625,-0.04330882080078125,0.9124980224609375
-0.5304591796875,-0.04379900146484375,0.7542243310546874
-0.42274615234375,-0.155805283203125,0.6878673486328125
-0.4900971875,-0.09967959716796874,0.792318154296875
-0.43636224609375,-0.106787216796875,0.853268271484375
-0.3641483203125,-0.087179990234375,0.9950756005859375
-0.45581380859375,-0.0425735498046875,1.154578125
-0.522192265625,-0.023456503906250002,1.3165383154296875
-0.51076447265625,0.13658748291015624,1.3401319091796875
-0.51270962890625,0.0137972265625,1.105916337890625
-0.354908828125,-0.04428918212890625,0.92552365234375
-0.25303126953125,0.03757098876953125,0.8245135791015625
-0.28804408203125,0.1157548046875,0.955507177734375
-0.32548833984375003,-0.0690433056640625,1.150154326171875
-0.51611365234375,0.14590091552734374,1.3234197802734375
-0.70965669921875,0.14443037353515625,1.2192147412109375
-0.5644994140625,-0.03203466552734375,1.0447204541015624
-0.37606240234375,-0.10948321044921874,1.073475146484375
-0.3252451953125,-0.02713285888671875,1.1872650830078124
-0.73153970703125,0.07727562255859374,1.21061291015625
-0.31235853515625,-0.01169216796875,0.9203625537109374
-0.25254498046875,-0.03129939453125,0.7714279931640625
-0.4497351953125,0.091245771484375,0.6102051025390625
-0.55501677734375,0.024091020507812498,0.59521333984375
-0.46286499999999997,-0.128355166015625,0.5222206591796875
-0.2192341796875,-0.1386489599609375,0.6151204345703125
-0.35952857421875,-0.09012107421875,0.831640810546875
-0.40694175781249997,-0.16487362548828124,0.9852449365234375
-0.53264748046875,-0.23791054443359375,1.189968515625
-0.656408046875,0.08413815185546875,1.2939277880859374
-0.55817765625,0.2610933715820313,1.1769428857421875
-0.6024299609375,0.08021670654296875,0.9326508837890625
-0.33642984375,0.16746886474609374,0.837539208984375
-0.2095083984375,0.065756376953125,0.856217470703125
-0.35855599609375,-0.06683749267578125,0.9739396728515625
-0.532890625,-0.0817880029296875,1.0024485986328124
-0.50371328125,-0.08595453857421875,0.9127437890625
-0.55793451171875,-0.175412509765625,0.82328474609375
-0.47721052734375,-0.21830331787109375,0.8033776513671875
-0.407428046875,-0.23447927978515626,0.8746499658203125
-0.4438997265625,-0.167569619140625,1.005643564453125
-0.50492900390625,-0.08399381591796876,0.9007012255859375
-0.25400384765625,0.06060947998046875,0.7665126611328125
-0.17717017578125,0.0809519775390625,0.7987080859375
-0.25862359375,-0.0670825830078125,0.9874568359375
-0.44949205078125,-0.0268877685546875,1.093136474609375
-0.58808443359375,0.1221271533203125,1.1037044384765624
-0.39454138671875,0.07727562255859374,0.9149556884765625
-0.39089421875,-0.16830489013671876,0.7876485888671875
-0.50760359375,-0.20384298828125,0.6421547607421875
-0.40134943359374997,-0.2386458154296875,0.51755109375
-0.3271903515625,-0.2553119580078125,0.46544857421874997
-0.354908828125,-0.29183041748046873,0.5733401123046875
-0.27515742187500003,-0.22908729248046875,0.7149016748046875
-0.279047734375,0.0922261328125,0.89406552734375
-0.30020130859375,0.19222298828125,0.9528037451171875
-0.2902323828125,0.2020266015625,0.9242948193359375
-0.2999581640625,0.20864404052734375,0.991880634765625
-0.53264748046875,0.17433139404296874,1.013508095703125
-0.4487626171875,0.091245771484375,0.9862280029296875
-0.20051205078125,0.099088662109375,1.0806023779296874
-0.486206875,-0.0513968017578125,1.172764853515625
-0.6423056640625,-0.114630107421875,1.2088925439453124
-0.53848294921875,-0.06242586669921875,0.9950756005859375
-0.463837578125,-0.1190417333984375,0.8365561425781249
-0.35077537109375,-0.13497260498046876,0.860149736328125
-0.2980130078125,0.1348718505859375,1.0464408203125
-0.39697283203125,0.17384121337890626,0.994829833984375
-0.4049966015625,-0.045024453125,0.862115869140625
-0.26567478515625,0.03855135009765625,0.7714279931640625
-0.25303126953125,-0.15065838623046876,0.7871570556640625
-0.30992708984375,-0.06267095703125,1.094119541015625
-0.45435494140625,-0.12173772705078124,1.1774344189453125
-0.77336056640625,-0.0141430712890625,1.2509186328125
-0.79135326171875,-0.15286419921875,1.0840431103515624
-0.46286499999999997,-0.2842326171875,0.8707177001953125
-0.1088465625,0.0035034326171875,0.977626171875
-0.39794541015625,0.11599989501953126,1.190460048828125
-0.46091984375,0.10668646240234375,1.227816572265625
-0.57373890625,0.0142874072265625,1.1233657666015624
-0.57398205078125,0.05178622802734375,0.803131884765625
-0.54383212890625,-0.0641414990234375,0.6913080810546874
-0.18057419921875,-0.1641383544921875,0.60701013671875
-0.11079171875,-0.032279755859375,0.741690234375
-0.541643828125,-0.0646316796875,0.8658023681640625
-0.70528009765625,-0.1210024560546875,1.0442289208984374
-0.8125068359375,-0.10972830078125,1.08674654296875
-0.61677548828125,0.18413500732421875,0.9149556884765625
-0.21193984375,0.093206494140625,1.0093300634765625
-0.115654609375,-0.04085791748046875,1.117713134765625
-0.32013916015625,0.062080021972656246,1.2192147412109375
-0.5946493359375,0.16207687744140625,1.1494170263671875
-0.504685859375,0.075559990234375,1.0948568408203125
-0.4954463671875,-0.0288484912109375,1.0751955126953125
-0.34153587890625,-0.11536537841796875,1.0432458544921874
-0.1929745703125,-0.24575343505859376,1.0098215966796875
-0.3038484765625,-0.338152490234375,1.0506188525390625
-0.5499107421875,-0.22908729248046875,1.0201437939453124
-0.689475703125,0.05129604736328125,1.01203349609375
-0.664188671875,-0.1901179296875,0.894557060546875
-0.46213556640625,-0.06928839599609375,0.95698177734375
-0.13048642578125,0.0760501708984375,0.9808211376953125
-0.197351171875,-0.05874951171875,1.048406953125
-0.36925435546875,-0.05899460205078125,1.0284998583984375
-0.47137505859375,-0.193059013671875,0.9434646142578125
-0.44171142578125,-0.11683592041015625,0.8225474462890625
-0.459947265625,-0.251880693359375,0.8382765087890625
-0.52000396484375,-0.11830646240234374,0.9120064892578125
-0.6043751171875,-0.1587463671875,0.75250396484375
-0.58079009765625,-0.0366913818359375,0.59128107421875
-0.304334765625,0.056933125,0.5546618505859375
-0.4409819921875,0.04786478271484375,0.559331416015625
-0.5294866015625,0.030708459472656248,0.5964421728515625
-0.22579908203125,0.04933532470703125,0.6701721533203124
-0.174009296875,0.06624655761718751,0.883251796875
-0.49593265625,0.04345315673828125,1.1597392236328126
-0.72667681640625,0.00570924560546875,1.05135615234375
-0.36974064453125,0.174576484375,0.9159387548828125
-0.11079171875,0.07580508056640625,0.94911724609375
-0.257651015625,0.185360458984375,1.341852275390625
-0.6209089453125,-0.13742350830078126,1.445074248046875
-0.81274998046875,-0.15114856689453124,1.1445016943359374
-0.46067669921875,-0.15261910888671876,0.623230732421875
-0.18835482421875,-0.16242272216796874,0.4199817529296875
-0.16136578125,-0.14036459228515624,0.5192714599609375
-0.43927998046875,-0.17271651611328126,0.6500192919921874
-0.323786328125,0.04394333740234375,0.6922911474609375
-0.09401474609375,0.1172253466796875,0.9341254833984375
-0.057543066406249996,0.1495772705078125,1.1872650830078124
-0.206104375,0.1157548046875,1.569923681640625
-0.81858544921875,-0.03497574951171875,1.606297138671875
-0.50395642578125,-0.3592302587890625,1.2457575341796876
-0.39843169921875,-0.30408493408203124,1.0663479150390625
-0.65081572265625,-0.06095532470703125,0.8471241064453126
-0.58468041015625,-0.0455146337890625,0.61979
-0.4623787109375,-0.16193254150390626,0.4489822119140625
-0.30895451171875,-0.2293323828125,0.44431264648437496
-0.302389609375,-0.28300716552734373,0.419244453125
-0.12173322265625,-0.022476142578125,0.6362563623046875
-0.2454937890625,0.16403760009765625,0.8721922998046875
-0.56620142578125,0.143204921875,1.1051790380859374
-0.76898396484375,-0.027868129882812502,1.2241300732421876
-0.78114119140625,0.16109651611328124,1.1272980322265624
-0.58151953125,0.224574912109375,0.8259881787109375
-0.37144265625,0.17237067138671874,0.8195982470703125
-0.42420501953125,0.13854820556640626,1.0235845263671874
-0.6354976171875,0.14246965087890626,1.0348897900390626
-0.36876806640625,0.24344686767578125,1.02579642578125
-0.28269490234375,0.2103596728515625,0.995812900390625
-0.2065906640625,-0.01879978759765625,1.0818312109375
-0.48596373046875,-0.11291447509765624,1.2155282421875
-0.57592720703125,0.0446786083984375,1.079373544921875
-0.4935012109375,-0.1023755908203125,0.7539785644531249
-0.31478998046875,-0.16095218017578125,0.658621123046875
-0.4750222265625,-0.08987598388671875,0.6996641455078125
-0.30530734375,-0.11781628173828125,0.8608870361328125
-0.19808060546875,-0.18938265869140625,1.0599579833984376
-0.621395234375,-0.09796396484375,1.2290454052734374
-0.5275414453125,-0.07026875732421875,1.2275708056640624
-0.1929745703125,-0.13742350830078126,1.13196759765625
-0.389921640625,-0.18595139404296876,0.9191337207031249
-0.07869664062500001,-0.107767578125,0.922082919921875
-0.230418828125,-0.20972515625,0.839505341796875
-0.22093619140625,0.14197947021484375,0.827708544921875
-0.56279740234375,0.1133039013671875,0.906845390625
-0.714762734375,0.0309535498046875,0.86359046875
-0.7201119140625,0.0672269189453125,0.8734211328125
-0.47380650390625,0.101049384765625,0.9179048876953125
-0.17084841796875,0.09884357177734375,0.797233486328125
-0.26227076171875,0.15227326416015624,0.7173593408203125
-0.166228671875,0.0358553564453125,0.85277673828125
-0.41545181640625,-0.02076051025390625,1.1651460888671874
-0.72157078125,0.190262265625,1.2194605078125
-0.43441708984375,0.062080021972656246,1.04939001953125
-0.3748466796875,0.17261576171875,0.9075826904296875
-0.42080099609375,0.08364797119140625,0.6374851953125
-0.36925435546875,-0.1131595654296875,0.529839423828125
-0.34688505859375,-0.208744794921875,0.47527923828124996
-0.2644590625,-0.17712814208984376,0.525907158203125
-0.2644590625,0.13707766357421874,0.937811982421875
-0.68631482421875,0.0407571630859375,1.245020234375
-0.87694013671875,0.1123235400390625,1.488820703125
-0.59708078125,0.26673044921875,1.2344522705078125
-0.12610982421875,0.15276344482421875,0.89603166015625
-0.0159653515625,-0.047965537109375,0.636993662109375
-0.27540056640625,0.24050578369140624,0.8267254785156251
-0.4195852734375,0.10202974609375,0.6490362255859374
-0.4954463671875,-0.10360104248046875,0.8058353173828126
-0.34542619140624997,-0.1190417333984375,1.3745392333984374
-0.61045373046875,-0.12418863037109375,1.7358161376953125
-0.6247992578125,-0.1337471533203125,1.41410765625
-0.2639727734375,-0.11364974609375,0.9759058056640625
-0.42031470703125,0.042227705078125,0.6972064794921875
-0.3446967578125,-0.24232217041015625,0.8019030517578125
-0.40037685546875,-0.03301502685546875,1.217494375
-0.5722800390625,0.23119235107421876,1.2767241259765625
-0.66297294921875,0.1623219677734375,1.1290183984375
-0.28561263671875,-0.05115171142578125,0.6603414892578126
-0.557205078125,-0.0298288525390625,0.673367119140625
-0.5654719921875,-0.10262068115234375,0.7193254736328125
-0.6549491796875,-0.08693489990234375,0.7593854296875
-0.53872609375,0.0319339111328125,0.840488408203125
-0.19856689453125,-0.0955130615234375,0.9604225097656249
-0.08088494140625,0.00963069091796875,1.203239912109375
-0.4939875,0.0530116796875,1.4816934716796875
-0.7629053515625,0.1142842626953125,1.36397126953125
-0.654462890625,0.033404453125,1.0978060400390626
-0.389921640625,-0.13056097900390626,0.858183603515625
-0.12367837890625,-0.0641414990234375,0.640925927734375
-0.13972591796875,-0.17663796142578125,0.5856284423828125
-0.29679728515625,-0.12614935302734376,0.6696806201171875
-0.6342818945312501,0.0059543359375,0.7475886328125
-0.60753599609375,0.02923791748046875,0.620281533203125
-0.60364568359375,0.0495804150390625,0.5549076171875
-0.3874901953125,0.14148928955078124,0.62667146484375
-0.220693046875,0.185360458984375,0.87931953125
-0.13486302734375,0.12335260498046875,1.093136474609375
-0.216802734375,0.0858537841796875,1.3846156640625
-0.6072928515625,0.13805802490234376,1.5534573193359376
-0.673914453125,0.165753232421875,1.4131245898437501
-0.3962433984375,0.1789881103515625,1.1528577587890625
-0.4536255078125,0.1417343798828125,1.13000146484375
-0.57203689453125,0.0922261328125,0.9660751416015625
-0.4711319140625,0.00766996826171875,0.6495277587890624
-0.33813185546875,-0.029338671875,0.4204732861328125
-0.2143712890625,-0.10188541015625,0.37156573242187496
-0.310170234375,-0.0749254736328125,0.3772183642578125
-0.18057419921875,-0.139139140625,0.4091680224609375
-0.1248941015625,-0.1161006494140625,0.59521333984375
-0.51562736328125,0.00521906494140625,0.9085657568359375
-0.51562736328125,0.06747200927734374,1.206189111328125
-0.38481560546875,0.14516564453125,1.537482490234375
-0.4361191015625,0.37064875,1.6815017187499999
-0.407428046875,0.29221984375,1.4281163525390626
-0.41788326171875,0.0887948681640625,1.2172486083984375
-0.47137505859375,-0.01953505859375,1.113780869140625
-0.3505322265625,-0.0661022216796875,0.9365831494140625
-0.42809533203125,-0.0474753564453125,0.627162998046875
-0.21850474609375,-0.08791526123046875,0.294886552734375
-0.213885,-0.169530341796875,0.3162682470703125
-0.315033125,-0.11879664306640625,0.3162682470703125
-0.393811953125,-0.1376685986328125,0.36148930175781246
-0.37606240234375,-0.1641383544921875,0.544585419921875
-0.391866796875,0.104970830078125,0.7925639208984375
-0.39308251953125,0.18830154296875,1.0756870458984376
-0.49325806640625003,0.07727562255859374,1.3047415185546876
-0.3631757421875,-0.034240478515625,1.6188312353515624
-0.41691068359375,0.1260485986328125,1.6623319238281251
-0.423961875,0.07580508056640625,1.229291171875
-0.44608802734374997,0.122617333984375,1.0963314404296876
-0.69847205078125,-0.0308092138671875,1.029237158203125
-0.64400767578125,0.0103659619140625,0.93535431640625
-0.38530189453125,0.010611052246093749,0.6259341650390625
-0.16890326171875,0.01796376220703125,0.588331875
-0.5606091015625,0.0936966748046875,0.7296476708984375
-0.44949205078125,0.17629211669921874,0.8923451611328125
-0.44608802734374997,0.1240878759765625,1.085271943359375
-0.46262185546875,0.24099596435546874,1.5293721923828125
-0.74855982421875,0.16060633544921876,1.819131015625
-0.7142764453125,0.06109966064453125,1.637755263671875
-0.68436966796875,-0.01879978759765625,1.163917255859375
-0.3991611328125,-0.023456503906250002,0.782487490234375
-0.3213548828125,-0.12075736572265625,0.7969877197265625
-0.2668905078125,-0.1249239013671875,1.00810123046875
-0.46870046875,-0.00997653564453125,1.2870463232421876
-0.76557994140625,-0.03399538818359375,1.19291771484375
-0.72181392578125,0.0593840283203125,0.837539208984375
-0.473563359375,0.055952763671875,0.6264256982421875
-0.26372962890625,-0.01732924560546875,0.5954591064453125
-0.3194097265625,-0.0435539111328125,0.7475886328125
-0.14021220703125,0.10227483642578125,0.8576920703124999
-0.5003092578125,-0.13129625,0.91569298828125
-0.52486685546875,-0.20702916259765625,1.20962984375
-0.56668771484375,-0.14085477294921875,1.167849521484375
-0.485234296875,-0.0513968017578125,0.9007012255859375
-0.14507509765624998,-0.0955130615234375,0.987948369140625
-0.3072525,0.1299700439453125,1.1032129052734374
-0.66880841796875,0.24442722900390626,1.240596435546875
-0.61872064453125,0.12531332763671876,1.145238994140625
-0.46408072265625,-0.06340622802734375,0.8520394384765625
-0.252788125,-0.02321141357421875,0.716622041015625
-0.23552486328125,-0.165608896484375,0.72202890625
-0.1355924609375,-0.2170778662109375,0.825742412109375
-0.37217208984375,-0.08497417724609375,1.1243488330078124
-0.6566511914062501,0.034384814453125,1.12017080078125
-0.518301953125,0.2819260498046875,1.18898544921875
-0.77676458984375,0.230457080078125,1.1784174853515625
-0.63136416015625,0.21550656982421876,0.818860947265625
-0.46602587890625,-0.0082609033203125,0.5055085302734375
-0.1200312109375,-0.10016977783203125,0.419735986328125
-0.1355924609375,-0.16977543212890625,0.4563552099609375
-0.2124261328125,-0.2994282177734375,0.808047216796875
-0.590272734375,-0.2200189501953125,1.0053977978515625
-0.57592720703125,0.04320806640625,1.0550426513671876
-0.43101306640625,0.1044806494140625,1.028745625
-0.37168580078125,0.01183650390625,0.8267254785156251
-0.48596373046875,-0.0259074072265625,0.67189251953125
-0.493014921875,-0.03301502685546875,0.483635302734375
-0.30846822265625,-0.03889719482421875,0.4951863330078125
-0.299471875,0.118695888671875,0.63256986328125
-0.491069765625,0.0348749951171875,0.619298466796875
-0.4993366796875,-0.11340465576171875,0.5463057861328124
-0.18349193359375,-0.18840229736328126,0.474296171875
-0.16987583984375,-0.15286419921875,0.5920183740234375
-0.4322287890625,0.021640117187500002,0.82918314453125
-0.46481015625,0.0035034326171875,1.055779951171875
-0.28658521484375,0.0020328906249999995,1.3519287060546874
-0.25303126953125,0.1672237744140625,1.6026106396484374
-0.6617572265625,0.07482471923828125,1.7181209423828125
-0.33035123046875,0.1760470263671875,1.4148449560546874
-0.47088876953125003,0.16599832275390625,1.124594599609375
-0.5236511328125,0.09737302978515625,0.8984893261718749
-0.2649453515625,0.18952699462890624,0.867522734375
-0.154557734375,0.0373258984375,0.8063268505859374
-0.42615017578125003,-0.112669384765625,1.1056705712890624
-0.5440752734375,-0.07468038330078125,1.2391218359375
-0.7648505078125,0.03144373046875,1.0796193115234376
-0.7415086328125,-0.010711806640625,0.8360646093749999
-0.11735662109375,-0.13399224365234375,0.7055625439453125
0.04409134765625,-0.0798272802734375,0.9326508837890625
-0.08623412109375,-0.1406096826171875,1.2418252685546876
-0.61823435546875,-0.02027032958984375,1.270088427734375
-0.57179375,0.11649007568359375,0.9953213671875
-0.517329375,0.07580508056640625,0.75840236328125
-0.408400625,0.0887948681640625,0.6291291308593749
-0.32840607421875,-0.07566074462890625,0.7670041943359375
-0.10908970703125,0.06747200927734374,0.9139726220703125
-0.32451576171875,-0.0768861962890625,0.9591936767578125
-0.57349576171875,-0.09967959716796874,1.0909245751953125
-0.70041720703125,0.021640117187500002,0.9127437890625
-0.564985703125,0.1593808837890625,0.776589091796875
-0.4122909375,0.20423241455078125,0.689096181640625
-0.415208671875,0.2583973779296875,0.8721922998046875
-0.2318776953125,0.1270289599609375,0.8844806298828125
-0.24719580078125,-0.100905048828125,1.0471781201171875
-0.35563826171875,-0.0028689160156250004,1.2413337353515626
-0.49957982421875,0.0652661962890625,1.504058232421875
-0.7045506640625,-0.010711806640625,1.4915241357421876
-0.63233673828125,0.0985984814453125,1.279919091796875
-0.6379290625,0.1623219677734375,1.0230929931640624
-0.4059691796875,0.08462833251953125,0.74463943359375
-0.19175884765625,-0.0798272802734375,0.5620348486328125
-0.16720125,-0.1430605859375,0.5128815283203125
-0.3378887109375,-0.191098291015625,0.6234764990234375
-0.52438056640625,-0.13129625,0.66009572265625
-0.5343494921875,0.0010525292968750002,0.6741044189453125
-0.41885583984375,0.0407571630859375,0.7360376025390625
-0.30214646484375,0.08168724853515624,0.8790737646484375
-0.582492109375,0.10864718505859375,0.9002096923828125
-0.37119951171875,0.2610933715820313,0.9331424169921875
-0.36390517578125,0.19246807861328125,1.025304892578125
-0.27588685546875,0.12188206298828125,1.1966042138671875
-0.610696875,-0.0425735498046875,1.291715888671875
-0.60875171875,-0.13448242431640625,1.0840431103515624
-0.4400094140625,-0.05850442138671875,0.78986048828125
-0.3019033203125,-0.08154291259765625,0.5389327880859375
-0.323786328125,-0.02370159423828125,0.4801945703125
-0.35369310546875,0.13119549560546875,0.5352462890625
-0.19613544921875,0.0642858349609375,0.6711552197265624
-0.45192349609375,0.12825441162109374,0.8458952734375
-0.37581925781250003,0.23609415771484374,1.019406494140625
-0.6209089453125,0.1701648583984375,1.0425085546875
-0.48985404296875,0.1941837109375,0.9105318896484375
-0.403537734375,0.12188206298828125,0.7802755908203125
-0.44754689453125,-0.0700236669921875,0.769707626953125
-0.39867484375,0.12678386962890625,0.9021758251953125
-0.2600824609375,0.1917328076171875,0.9297016845703125
-0.3388612890625,0.0686974609375,1.095102607421875
-0.5448047070312501,0.0701680029296875,1.19488384765625
-0.35223423828125,0.01894412353515625,1.0933822412109375
-0.3913805078125,0.0633054736328125,1.1567900244140625
-0.66297294921875,0.1809488330078125,1.1014925390624999
-0.47404964843749997,0.0907555908203125,0.8176321142578125
-0.32743349609375,0.04590406005859375,0.5949675732421875
-0.37022693359375003,-0.012427438964843749,0.525907158203125
-0.422989296875,-0.098944326171875,0.5745689453125
-0.29047552734375,-0.144040947265625,0.6807401171875
-0.564013125,-0.030319033203124998,0.846386806640625
-0.43247193359375,-0.14134495361328125,0.763809228515625
-0.252788125,-0.22859711181640624,0.7905977880859375
-0.06824142578125,-0.02419177490234375,0.8009199853515625
-0.16647181640625,0.14246965087890626,0.92355751953125
-0.4137498046875,0.14590091552734374,1.040050888671875
-0.30652306640625,0.00619942626953125,1.25190169921875
-0.40961634765625,0.05105095703125,1.4644898095703125
-0.68971884765625,0.19099753662109376,1.5465758544921875
-0.66321609375,0.24246650634765626,1.1435186279296874
-0.34810078125,-0.0190448779296875,0.8717007666015625
-0.456056953125,0.03757098876953125,0.7960046533203124
-0.4020788671875,0.1976149755859375,0.742181767578125
-0.39794541015625,0.1103628173828125,0.72497810546875
-0.37946642578125,-0.0425735498046875,0.790352021484375
-0.428824765625,0.0427178857421875,0.718096640625
-0.23795630859375,0.10962754638671875,0.86064126953125
-0.244034921875,0.10766682373046875,0.8422087744140625
-0.2007551953125,0.17531175537109375,1.0226014599609374
-0.27613,0.1211467919921875,1.3647085693359375
-0.89250138671875,0.0858537841796875,1.568940615234375
-0.889826796875,0.15080272216796875,1.395920927734375
-0.37411724609375,-0.1504132958984375,1.1813666845703126
-0.2484115234375,-0.03399538818359375,1.2981058203125
-0.28998923828125,-0.04134809814453125,1.28827515625
-0.46894361328125,0.00963069091796875,1.13393373046875
-0.41739697265625,0.18952699462890624,0.916184521484375
-0.39697283203125,0.206928408203125,0.68762158203125
-0.26956509765625,0.2672206298828125,0.79772501953125
-0.40718490234375,-0.047965537109375,1.2747579931640625
-0.65227458984375,-0.204823349609375,1.374293466796875
-0.37557611328125,-0.14894275390625,1.2902412890625
-0.48450486328125,-0.1945295556640625,0.8223016796875
-0.4935012109375,-0.09085634521484375,0.5831707763671875
-0.42371873046874997,0.07090327392578125,0.5155849609375
-0.21607330078125,0.04541387939453125,0.5792385107421875
-0.022530253906250002,-0.012672529296875,0.875878798828125
-0.3320532421875,0.1289896826171875,1.346767607421875
-0.51027818359375,0.299082373046875,1.2197062744140625
-0.34007701171875,-0.09624833251953124,0.9169218212890625
-0.38457246093749997,-0.07566074462890625,0.8068183837890625
-0.59100216796875,-0.03840701416015625,0.712689775390625
-0.5056584375,-0.07271966064453125,0.5979167724609376
-0.37071322265625,-0.114630107421875,0.537212421875
-0.41350666015625,0.093206494140625,0.5418819873046875
-0.4759948046875,0.1182057080078125,0.6087305029296874
-0.471618203125,0.17531175537109375,0.7556989306640625
-0.32111173828125,0.24197632568359376,0.82131861328125
-0.22434021484375,0.10080429443359375,1.044966220703125
-0.26859251953125,0.14418528320312501,1.4807104052734374
-0.599998515625,0.36084513671875,1.6733914208984375
-0.77384685546875,0.2387901513671875,1.507990498046875
-0.6199363671875,-0.15359947021484374,1.0791277783203126
-0.4380642578125,-0.21683277587890626,0.7709364599609375
-0.3126016796875,-0.1710008837890625,0.540653154296875
-0.3028758984375,-0.08423890625,0.3079121826171875
-0.3641483203125,-0.01193725830078125,0.2710471923828125
-0.4059691796875,0.010611052246093749,0.3347007421875
-0.37168580078125,0.069677822265625,0.348463671875
-0.282938046875,-0.0006631030273437505,0.576043544921875
-0.2022140625,0.22187891845703125,0.9090572900390625
-0.35272052734375,0.4096181127929687,1.331530078125
-0.67075357421875,0.35030625244140623,1.6441451953125
-0.82271890625,0.15717507080078125,1.7657996630859376
-0.524137421875,-0.0411030078125,1.4200060546875
-0.51514107421875,-0.0768861962890625,0.93338818359375
-0.23066197265625,-0.14673694091796874,0.6539515576171875
-0.25643529296875,-0.01095689697265625,0.47626230468749997
-0.3281629296875,-0.048455717773437504,0.34084490722656247
-0.346155625,-0.05409279541015625,0.32880234375
-0.43004048828125,-0.030319033203124998,0.4106426220703125
-0.34931650390625,-0.0013983740234375002,0.5531872509765625
-0.40864376953125,0.11649007568359375,0.7955131201171874
-0.50201126953125,0.1392834765625,1.0447204541015624
-0.5783586523437501,0.114774443359375,1.12017080078125
-0.595135625,-0.07419020263671874,1.0329236572265625
-0.2124261328125,0.0162481298828125,0.938303515625
-0.27248283203125,0.07237381591796875,0.9542783447265625
-0.28585578125,0.1701648583984375,1.145238994140625
-0.28707150390625,0.022620478515625,1.3617593701171875
-0.50833302734375,0.21550656982421876,1.4546591455078124
-0.72546109375,0.1613416064453125,1.412633056640625
-0.65324716796875,0.07286399658203124,0.9837703369140625
-0.2902323828125,0.015022678222656249,0.680248583984375
-0.25400384765625,-0.06487677001953125,0.578992744140625
-0.2406308984375,-0.07124911865234375,0.5880861083984374
-0.265431640625,-0.17271651611328126,0.8267254785156251
-0.4993366796875,0.00399361328125,1.0818312109375
-0.615559765625,0.18364482666015625,1.27254609375
-0.3894353515625,0.10668646240234375,1.2256046728515626
-0.37654869140625,0.26011301025390626,1.2555881982421875
-0.5367809375,0.25888755859375,1.3578271044921875
-0.45386865234375,0.08805959716796875,1.1803836181640626
-0.44219771484375,0.1025199267578125,1.0186691943359376
-0.43174250000000003,0.05521749267578125,0.947642646484375
-0.67853419921875,-0.04134809814453125,0.9124980224609375
-0.42931105468749997,-0.16683434814453124,0.6205272998046875
-0.20464550781250002,-0.216587685546875,0.4298124169921875
-0.13680818359375,-0.1866866650390625,0.5118984619140625
-0.31041337890625,-0.0719843896484375,0.6706636865234374
-0.50444271484375,0.0515411376953125,0.7689703271484375
-0.6145871875,0.13511694091796875,0.9788550048828125
-0.46091984375,0.15472416748046874,1.175714052734375
-0.1968648828125,0.1941837109375,1.5342875244140626
-0.34104958984375,0.33805173583984377,1.709027578125
-0.73251228515625,0.1495772705078125,1.2944193212890625
-0.7312965625,0.00963069091796875,0.89504859375
-0.44560173828125,-0.14673694091796874,0.5942302734375
-0.16914640625,-0.21340151123046874,0.51263576171875
-0.14507509765624998,-0.1915884716796875,0.662553388671875
-0.465782734375,0.057913486328125,0.8365561425781249
-0.66005521484375,0.00178780029296875,0.78986048828125
-0.58370783203125,0.03462990478515625,0.7161305078125
-0.64789798828125,0.05962911865234375,0.8191067138671875
-0.28658521484375,0.0780108935546875,1.0481611865234375
-0.3748466796875,0.2995725537109375,1.11623853515625
-0.268349375,0.09198104248046875,1.1823497509765626
-0.3826273046875,-0.19526482666015624,1.2418252685546876
-0.4886383203125,-0.075415654296875,1.3352165771484374
-0.64011736328125,0.03904153076171875,1.2118417431640625
-0.689475703125,0.034384814453125,0.787402822265625
-0.40086314453125,-0.0327699365234375,0.5045254638671874
-0.2756437109375,0.10227483642578125,0.4519314111328125
-0.17182099609375,0.12335260498046875,0.51853416015625
-0.26421591796875,0.20815385986328125,0.6952403466796875
-0.4225030078125,0.27628897216796877,0.9179048876953125
-0.648627421875,0.2412410546875,1.1007552392578126
-0.7512344140625,0.22359455078125,1.0132623291015626
-0.535808359375,0.29099439208984373,0.7861739892578125
-0.2182616015625,0.06698182861328125,0.7593854296875
-0.16695810546875,-0.08987598388671875,0.772656826171875
-0.168173828125,-0.123453359375,0.87047193359375
-0.4468174609375,-0.15703073486328126,1.2084010107421874
-0.49666208984375,-0.1092381201171875,1.385107197265625
-0.6763458984375,0.0280124658203125,1.26173236328125
-0.6145871875,-0.004829638671875,0.891116328125
-0.42906791015625,-0.10311086181640625,0.5330343896484375
-0.15480087890625,-0.159726728515625,0.390243994140625
-0.1589343359375,-0.1308060693359375,0.323395478515625
-0.19613544921875,-0.04379900146484375,0.463973974609375
-0.2552195703125,-0.07051384765625,0.436448115234375
-0.325731484375,-0.0011532836914062497,0.6392055615234375
-0.34421046875,0.12335260498046875,0.9321593505859375
-0.40669861328125,0.1485969091796875,1.1843158837890626
-0.42517759765625,-0.0043394580078125,1.2718087939453124
-0.43101306640625,0.059874208984374996,1.260749296875
-0.3889490625,0.1809488330078125,1.0806023779296874
-0.23941517578125,0.12384278564453124,1.0211268603515624
-0.438550546875,0.046149150390625,1.211104443359375
-0.64643912109375,0.0451687890625,1.09657720703125
-0.47137505859375,0.04835496337890625,0.8181236474609375
-0.35320681640625,0.13070531494140625,0.5030508642578125
-0.42517759765625,0.11649007568359375,0.4986270654296875
-0.3777644140625,0.0544822216796875,0.5005931982421875
-0.159420625,-0.00777072265625,0.7711822265625
-0.3904079296875,0.10717664306640624,0.9346170166015625
-0.5810332421875,0.18462518798828126,1.067576748046875
-0.58030380859375,-0.05017135009765625,1.095594140625
-0.36585033203125,0.05105095703125,1.0179318945312499
-0.54626357421875,0.0878145068359375,1.3111314501953124
-0.58273525390625,0.16844922607421875,1.4522014794921876
-0.21753216796875,-0.1249239013671875,1.5318298583984375
-0.06410796875,-0.091101435546875,1.666264189453125
-0.564013125,-0.15850127685546875,1.6153905029296876
-0.7483166796875,-0.0999246875,1.0395593554687501
-0.588327578125,0.03659062744140625,0.5394243212890625
-0.51951767578125,0.026051743164062502,0.3782014306640625
-0.471618203125,-0.06536695068359374,0.3229039453125
-0.25789416015625,-0.0641414990234375,0.631586796875
-0.252788125,0.03708080810546875,0.8181236474609375
-0.60559083984375,-0.00850599365234375,0.7488174658203125
-0.5990259375,-0.1376685986328125,0.6573922900390625
-0.54626357421875,-0.21952876953125,0.658621123046875
-0.39454138671875,-0.15114856689453124,0.802148818359375
-0.34226531250000003,0.13805802490234376,1.217985908203125
-0.38238416015625,0.06109966064453125,1.6910866162109375
-0.50687416015625,0.022620478515625,1.8351058447265625
-0.40937320312500003,-0.09918941650390625,1.5691863818359375
-0.41836955078125,0.00619942626953125,1.2103671435546874
-0.5912453125,0.02776737548828125,0.87931953125
-0.64789798828125,-0.00409436767578125,0.7316138037109375
-0.59732392578125,-0.02468195556640625,0.621264599609375
-0.5362946484375,-0.0670825830078125,0.480686103515625
-0.30166017578125,-0.0004180126953125,0.443329580078125
-0.14410251953125,-0.0513968017578125,0.49641516601562496
-0.20537494140625,-0.09477779052734375,0.67385865234375
-0.33813185546875,-0.10605194580078126,0.8176321142578125
-0.54626357421875,-0.0778665576171875,0.9709904736328125
-0.7210844921875,0.04541387939453125,1.181612451171875
-0.66151408203125,0.10129447509765625,1.21257904296875
-0.448276328125,-0.0327699365234375,1.0722463134765625
-0.242089765625,0.03266918212890625,0.9901602685546875
-0.290718671875,0.03757098876953125,0.97074470703125
-0.31624884765625,0.02139502685546875,0.831640810546875
-0.5197608203125,0.14345001220703124,0.7773263916015625
-0.53313376953125,0.00227798095703125,0.6217561328125
-0.4536255078125,0.01747358154296875,0.6178238671875
-0.4604335546875,0.04492369873046875,0.4435753466796875
-0.1715778515625,0.048109873046875,0.4015492578125
-0.19856689453125,0.10423555908203125,0.4942032666015625
-0.38773333984375,0.0936966748046875,0.7109694091796875
-0.58711185546875,0.13364639892578126,0.918150654296875
-0.32646091796875,0.2476134033203125,1.3047415185546876
-0.23601115234375,0.234378525390625,1.7353246044921875
-0.49957982421875,0.35030625244140623,1.9167003564453124
-0.82198947265625,0.19540916259765626,1.5396943896484374
-0.438550546875,-0.08448399658203125,0.9670582080078125
-0.191515703125,-0.23987126708984374,0.6396970947265626
-0.17425244140625,-0.204823349609375,0.5374581884765625
-0.26372962890625,-0.24134180908203126,0.489533701171875
-0.30895451171875,-0.25849813232421875,0.4676604736328125
-0.432715078125,-0.17663796142578125,0.55392455078125
-0.4370916796875,-0.092081796875,0.9179048876953125
-0.56911916015625,-0.02174087158203125,1.102967138671875
-0.687530546875,0.2020266015625,1.1076367041015625
-0.374360390625,0.3005529150390625,0.922082919921875
-0.14215736328125,0.05423713134765625,1.001711298828125
-0.174981875,0.0201695751953125,1.2467406005859374
-0.528027734375,0.011346323242187501,1.2673849951171876
-0.7055232421875,0.08021670654296875,0.9886856689453125
-0.539698671875,-0.10188541015625,0.7375122021484375
-0.23406599609375,0.02139502685546875,0.520008759765625
-0.07845349609375,-0.0803174609375,0.553433017578125
-0.133161015625,-0.07835673828125,0.7679872607421875
-0.43198564453125,-0.15948163818359376,1.06118681640625
-0.6902051367187501,0.050070595703125,1.174730986328125
-0.7531795703125,0.2172222021484375,1.0368559228515626
-0.3189234375,0.18413500732421875,0.8515479052734375
-0.33424154296874997,0.18952699462890624,0.8982435595703124
-0.23066197265625,0.21501638916015625,0.9818042041015624
-0.23455228515625,0.0642858349609375,1.1329506640625
-0.4122909375,-0.00507472900390625,1.0609410498046874
-0.31333111328125,0.25962282958984373,1.1211538671875
-0.42420501953125,0.2211436474609375,0.9931094677734374
-0.46942990234375,0.0672269189453125,1.113780869140625
-0.46213556640625,0.13413657958984376,1.2098756103515624
-0.49909353515625,0.075559990234375,1.2462490673828124
-0.47818310546875,-0.0011532836914062497,0.9442019140625
-0.43927998046875,0.21746729248046875,0.8360646093749999
-0.5212196875,0.1358522119140625,0.7512751318359375
-0.40669861328125,0.06257020263671875,0.6915538476562499
-0.1958923046875,0.07580508056640625,0.7212916064453125
-0.12854126953125,0.1348718505859375,0.9021758251953125
-0.33472783203125,0.2547210229492187,1.166374921875
-0.51903138671875,0.22751599609375,1.1695698876953124
-0.54042810546875,-0.0803174609375,0.9351085498046875
-0.38092529296875,0.01796376220703125,0.8043607177734375
-0.46748474609375,-0.02076051025390625,0.78002982421875
-0.5644994140625,-0.07958218994140626,0.86653966796875
-0.2902323828125,-0.07468038330078125,0.872929599609375
-0.2834243359375,-0.09281706787109376,0.8250051123046875
-0.28609892578125,0.08953013916015624,1.1010010058593749
-0.664188671875,0.1054610107421875,1.1427813281249999
-0.45727267578124997,0.01894412353515625,0.875387265625
-0.377278125,-0.01585870361328125,0.7050710107421875
-0.30117388671875,0.208889130859375,0.694503046875
-0.41447923828125,0.15178308349609376,0.7090032763671875
-0.44073884765625,-0.0308092138671875,0.7498005322265625
-0.43490337890624997,0.1633023291015625,0.75643623046875
-0.574711484375,0.13756784423828125,0.765775361328125
-0.5888138671875,0.16893940673828126,0.72104583984375
-0.31989601562500003,0.06796218994140625,0.575060478515625
-0.13875333984375,-0.10409122314453124,0.6662398876953125
-0.13875333984375,-0.0915916162109375,0.8746499658203125
-0.25473328125,0.0152677685546875,1.0329236572265625
-0.4565432421875,0.16011615478515626,1.1007552392578126
-0.49082662109375,0.17335103271484376,1.2147909423828125
-0.48037140625,0.2731027978515625,1.134916796875
-0.31478998046875,0.10399046875,1.013508095703125
-0.2746711328125,0.31109179931640624,0.9744312060546875
-0.37946642578125,0.25521120361328126,0.883251796875
-0.54918130859375,0.1652630517578125,0.78396208984375
-0.3126016796875,0.1927131689453125,0.7296476708984375
-0.230418828125,0.04688442138671875,0.7161305078125
-0.43782111328125,0.15276344482421875,0.80165728515625
-0.5367809375,0.1211467919921875,0.772656826171875
-0.44171142578125,0.20472259521484376,0.7748687255859374
-0.308225078125,0.27285770751953126,0.765775361328125
-0.29363640625,0.29491583740234373,0.9257694189453125
-0.4118046484375,0.36991347900390625,1.1779259521484375
-0.63622705078125,0.2731027978515625,1.2074179443359374
-0.486206875,0.16011615478515626,0.935845849609375
-0.17717017578125,0.12482314697265626,0.7615973291015625
-0.24427806640625,0.01992448486328125,0.8574463037109374
-0.25084296875,-0.09012107421875,1.195375380859375
-0.5596365234375,0.099088662109375,1.3239113134765625
-0.722543359375,0.24148614501953125,1.1007552392578126
-0.60899486328125,0.187321181640625,0.733825703125
-0.514411640625,0.06673673828125,0.4416092138671875
-0.3252451953125,-0.04085791748046875,0.3708284326171875
-0.14945169921875,-0.03448556884765625,0.41310028808593746
-0.10908970703125,0.0025230712890624996,0.5335259228515625
-0.09255587890625,0.00325834228515625,0.8987350927734374
-0.69263658203125,0.0201695751953125,1.2904870556640624
-0.806185078125,0.13217585693359374,1.4413877490234375
-0.50152498046875,0.299082373046875,1.37380193359375
-0.5547736328125,0.29932746337890626,1.3268605126953126
-0.26275705078125,0.158890703125,1.0938737744140625
-0.24281919921875,0.0280124658203125,0.8510563720703125
-0.2488978125,0.06551128662109375,0.6426462939453125
-0.3694975,0.00963069091796875,0.5689163134765625
-0.37800755859375,-0.1180613720703125,0.539670087890625
-0.3670660546875,0.06011929931640625,0.8451579736328125
-0.5056584375,0.1250682373046875,1.1508916259765625
-0.68680111328125,0.11796061767578125,1.4335232177734376
-0.487179453125,0.1740863037109375,1.3964124609375
-0.36220316406249997,0.20398732421875,1.188493916015625
-0.58540984375,0.099088662109375,0.972219306640625
-0.26154132812499997,-0.0200252392578125,0.8992266259765624
-0.06872771484375,0.03855135009765625,0.9591936767578125
-0.174981875,0.1564397998046875,1.1447474609375
-0.3072525,0.03315936279296875,1.0889584423828125
-0.32840607421875,0.15325362548828125,1.0152284619140626
-0.6034025390625,0.1221271533203125,0.87243806640625
-0.6432782421875,0.032424091796875,0.75840236328125
-0.337402421875,-0.050661530761718754,0.6465785595703125
-0.30263275390625,0.0956573974609375,0.9183964208984375
-0.489124609375,0.1799684716796875,0.9815584374999999
-0.30506419921875,0.08756941650390625,0.9768888720703125
-0.27977716796875,0.1956542529296875,0.950591845703125
-0.4808576953125,0.1731059423828125,0.9793465380859375
-0.29582470703125,0.22947671875,0.8874298291015625
-0.24816837890625,0.20864404052734375,0.73677490234375
-0.19029998046875,0.13070531494140625,0.8348357763671875
-0.55550306640625,0.0682072802734375,1.020389560546875
-0.7269199609375,0.12433296630859375,1.0914161083984375
-0.47526537109375,0.08242251953125,1.0678225146484375
-0.2707808203125,0.0672269189453125,0.9822957373046874
-0.52146283203125,-0.1587463671875,0.9385492822265625
-0.50784673828125,0.00766996826171875,1.1656376220703124
-0.43344451171875,-0.11487519775390626,0.9572275439453125
-0.4263933203125,0.028257556152343752,0.839996875
-0.35077537109375,0.0887948681640625,0.7964961865234375
-0.38238416015625,0.02482629150390625,0.906353857421875
-0.349073359375,-0.08423890625,0.868014267578125
-0.23503857421875,-0.06144550537109375,0.8461410400390625
-0.539698671875,0.02360083984375,0.8874298291015625
-0.63963107421875,0.208889130859375,0.9808211376953125
-0.58711185546875,0.21403602783203124,0.844420673828125
-0.19808060546875,0.12286242431640625,0.763809228515625
-0.317950859375,0.08854977783203125,0.819844013671875
-0.39162365234375,0.22359455078125,0.8569547705078124
-0.65154515625,0.114774443359375,0.750046298828125
-0.34493990234375,0.0956573974609375,0.5630179150390625
-0.1706052734375,0.11354899169921875,0.64436666015625
-0.13413359375,0.1706550390625,0.950591845703125
-0.1599069140625,0.32089541259765625,1.3696239013671876
-0.69409544921875,0.33314992919921876,1.6284161328125
-0.5547736328125,0.391236337890625,1.478498505859375
-0.5834646875,0.11845079833984375,1.2548508984375
-0.401592578125,0.22580036376953125,1.072492080078125
-0.53556521484375,0.07139345458984375,0.9031588916015625
-0.3378887109375,-0.0553182470703125,0.591772607421875
-0.345183046875,0.06404074462890624,0.4145748876953125
-0.3194097265625,0.0956573974609375,0.3229039453125
-0.12319208984375,-0.03301502685546875,0.4194902197265625
-0.09547361328125001,0.026296833496093748,0.709740576171875
-0.18397822265625,0.2137909375,1.0594664501953126
-0.493014921875,0.2221240087890625,1.3610220703125
-0.76655251953125,0.24589777099609375,1.5028293994140625
-0.60097109375,0.3162386962890625,1.1872650830078124
-0.44171142578125,0.11894097900390625,1.1179589013671876
-0.610696875,0.23805488037109374,1.2017653125
-0.40815748046875,0.13413657958984376,0.90193005859375
-0.2980130078125,0.01845394287109375,0.600620205078125
-0.299471875,0.00276816162109375,0.4096595556640625
-0.2931501171875,0.00227798095703125,0.389260927734375
-0.2114535546875,-0.02272123291015625,0.4153121875
-0.25157240234375,0.15374380615234376,0.65419732421875
-0.48037140625,0.17923320068359375,0.9021758251953125
-0.65470603515625,0.146146005859375,1.1523662255859375
-0.63768591796875,0.22187891845703125,1.3199790478515625
-0.57787236328125,0.0848734228515625,1.2732833935546874
-0.4536255078125,0.11354899169921875,1.14966279296875
-0.43247193359375,0.21844765380859374,1.0250591259765625
-0.44292714843750003,-0.00360418701171875,0.755944697265625
-0.21607330078125,0.03953171142578125,0.58538267578125
-0.3408064453125,0.1152646240234375,0.5089492626953125
-0.22725794921875,0.03561026611328125,0.469872373046875
-0.10325423828125,0.0064445166015625,0.7345630029296875
-0.42517759765625,0.09737302978515625,1.0496357861328125
-0.72230021484375,0.11894097900390625,1.2177401416015625
-0.48037140625,0.09026541015625,1.2442829345703126
-0.607779140625,0.1074217333984375,1.1017383056640626
-0.50444271484375,0.1133039013671875,0.825742412109375
-0.30627992187499997,0.09688284912109375,0.7994453857421875
-0.2561921484375,0.09296140380859375,0.768724560546875
-0.38578818359375,0.0515411376953125,0.7940385205078125
-0.05900193359375,-0.01879978759765625,0.891607861328125
-0.18786853515625002,0.08168724853515624,1.103950205078125
-0.60097109375,0.263789365234375,1.2526389990234374
-0.61094001953125,0.22751599609375,1.11623853515625
-0.6342818945312501,0.14786163818359374,1.0127707958984375
-0.42712275390625,0.10668646240234375,0.817877880859375
-0.2202067578125,0.1172253466796875,0.7733941259765625
-0.31746457031249997,0.0059543359375,0.8294289111328125
-0.51951767578125,0.07482471923828125,0.9532952783203125
-0.59732392578125,0.10962754638671875,1.0383305224609374
-0.56182482421875,-0.06242586669921875,0.917167587890625
-0.2172890234375,0.14197947021484375,0.891607861328125
-0.39016478515624997,0.09541230712890625,0.7709364599609375
-0.23503857421875,-0.10727739746093751,0.8746499658203125
-0.1589343359375,-0.08007237060546875,1.00515203125
-0.4584883984375,0.04982550537109375,1.1961126806640625
-0.6230972460937501,0.021640117187500002,1.2300284716796874
-0.58857072265625,0.19491898193359375,1.1081282373046875
-0.47866939453125,0.14345001220703124,0.7670041943359375
-0.47672423828125,-0.076396015625,0.5934929736328125
-0.27005138671875,-0.170510703125,0.5635094482421875
-0.14945169921875,-0.047965537109375,0.620281533203125
-0.22725794921875,0.15668489013671874,0.8309035107421875
-0.44511544921875,0.2378097900390625,1.0395593554687501
-0.49277177734375,0.22776108642578125,1.2103671435546874
-0.28853037109375,0.16354741943359374,1.397887060546875
-0.32086859375,0.2748184301757812,1.3799460986328125
-0.5012818359375,0.17433139404296874,1.347750673828125
-0.43976626953125,0.15129290283203126,1.3059703515625
-0.532890625,-0.00213364501953125,0.9960586669921875
-0.4098594921875,-0.0724745703125,0.78199595703125
-0.1803310546875,0.0731090869140625,0.697943779296875
-0.23114826171875,0.06624655761718751,0.6647652880859375
-0.3544225390625,0.03561026611328125,0.8102591162109375
-0.471618203125,-0.0268877685546875,0.979100771484375
-0.45727267578124997,0.1054610107421875,1.091170341796875
-0.49131291015625,0.33216956787109375,1.1356540966796875
-0.37119951171875,0.3606000463867188,1.0658563818359374
-0.4823165625,0.1074217333984375,0.968287041015625
-0.30895451171875,0.0338946337890625,0.9675497412109375
-0.3694975,0.2765340625,0.954524111328125
-0.4857205859375,0.1084020947265625,0.7679872607421875
-0.4575158203125,0.0995788427734375,0.845403740234375
-0.588327578125,-0.0406128271484375,0.77216529296875
-0.45702953125,-0.0955130615234375,0.6141373681640625
-0.23309341796875,-0.046249904785156254,0.488550634765625
-0.17862904296875,0.00178780029296875,0.54802615234375
-0.341292734375,0.07041309326171875,0.784453623046875
-0.39891798828125,0.150067451171875,1.0732293798828125
-0.73543001953125,0.22678072509765626,1.2723003271484374
-0.80010646484375,0.16869431640625,1.0742124462890625
-0.4040240234375,0.0956573974609375,0.6637822216796875
-0.203186640625,0.01796376220703125,0.5261529248046874
-0.1725504296875,-0.055073156738281254,0.545076953125
-0.34785763671875003,-0.10703230712890625,0.5969337060546875
-0.45484123046875,-0.029338671875,0.6618160888671875
-0.413263515625,-0.045024453125,0.7797840576171875
-0.47088876953125003,0.062080021972656246,0.94223578125
-0.6393879296875,0.10374537841796876,1.0899415087890625
-0.4954463671875,0.2113400341796875,0.9397781152343749
-0.19467658203125,0.06257020263671875,0.8117337158203125
-0.22385392578125,0.16942958740234376,0.9886856689453125
-0.34348103515625,0.1064413720703125,1.1135351025390625
-0.393811953125,-0.13840386962890625,1.0850261767578124
-0.54285955078125,0.00619942626953125,0.9252778857421875
-0.4828028515625,0.01845394287109375,0.6925369140625
-0.37703498046875,-0.08889562255859375,0.5733401123046875
-0.17303671874999998,0.008895419921875,0.5974252392578125
-0.33326896484375,0.087324326171875,0.7045794775390625
-0.38092529296875,0.1035002880859375,0.8242678125
-0.3281629296875,0.15178308349609376,0.98843990234375
-0.56425626953125,0.22359455078125,1.0933822412109375
-0.56595828125,0.27726933349609373,1.1504000927734375
-0.42615017578125003,0.26697553955078124,0.9036504248046875
-0.282938046875,0.1701648583984375,0.82328474609375
-0.23114826171875,0.091245771484375,0.9424815478515625
-0.21972046875,0.02090484619140625,1.0407881884765624
-0.50103869140625,0.09933375244140626,0.9999909326171875
-0.59489248046875,0.20325205322265624,0.954524111328125
-0.67075357421875,0.0750698095703125,0.871455
-0.2960678515625,0.1348718505859375,0.9252778857421875
-0.1803310546875,0.01159141357421875,1.0896957421875
-0.43247193359375,-0.05458297607421875,1.1046875048828124
-0.5445615625,-0.0043394580078125,0.8537598046875
-0.535808359375,0.03021827880859375,0.6583753564453125
-0.3339983984375,-0.12860025634765626,0.5566279833984376
-0.45289607421875,-0.05262225341796875,0.7763433251953125
-0.36633662109375,-0.067572763671875,0.9007012255859375
-0.5003092578125,-0.1170810107421875,0.9532952783203125
-0.5615816796875,-0.029338671875,0.6583753564453125
-0.26421591796875,-0.0308092138671875,0.5118984619140625
-0.3242726171875,0.18266446533203126,0.672384052734375
-0.42031470703125,0.2569268359375,0.8407341748046875
-0.24087404296875,0.09394176513671874,1.144255927734375
-0.36050115234375,0.32359140625,1.4880834033203125
-0.5956219140625,0.29025912109375,1.600398740234375
-0.5586639453125,0.265750087890625,1.2713172607421874
-0.641819375,0.22187891845703125,0.926015185546875
-0.43344451171875,-0.05311243408203125,0.8372934423828124
-0.13632189453125,-0.11364974609375,0.7173593408203125
-0.15164,0.030463369140625002,0.694503046875
-0.18640966796875,-0.0710040283203125,0.59619640625
-0.1385101953125,0.0691876416015625,0.619298466796875
-0.1530988671875,0.18658591064453126,0.8662939013671875
-0.48158712890625,0.00570924560546875,1.0339067236328126
-0.7444263671875,0.080461796875,1.176697119140625
-0.6909345703125,0.25864246826171877,1.0184234277343749
-0.4565432421875,0.038306259765625,0.7436563671875001
-0.19029998046875,-0.123453359375,0.82328474609375
-0.15674603515625,-0.10507158447265624,0.909303056640625
-0.30919765625,-0.0759058349609375,0.9508376123046876
-0.35855599609375,0.026296833496093748,0.814928681640625
-0.46310814453125,0.11943115966796874,0.8242678125
-0.4565432421875,0.12825441162109374,0.8490902392578125
-0.28464005859375,0.0995788427734375,0.9159387548828125
-0.3242726171875,0.016738310546875,0.851793671875
-0.3709563671875,0.103010107421875,0.9783634716796875
-0.5197608203125,-0.01193725830078125,0.8746499658203125
-0.54966759765625,0.02286556884765625,0.7660211279296875
-0.59829650390625,-0.01046671630859375,0.6770536181640625
-0.5683897265625,-0.0415931884765625,0.56572134765625
-0.14993798828125,-0.00213364501953125,0.5718655126953125
-0.10276794921875,-0.01169216796875,0.6967149462890625
-0.18495080078125,0.108892275390625,0.9547698779296875
-0.5056584375,0.19442880126953124,0.807064150390625
-0.4322287890625,0.1554594384765625,0.7522581982421875
-0.42858162109375,0.114774443359375,0.8458952734375
-0.4555706640625,0.237319609375,1.012525029296875
-0.53070232421875,0.11501953369140624,1.011541962890625
-0.3942982421875,0.2623188232421875,0.9990078662109375
-0.42055785156250003,0.056933125,0.8574463037109374
-0.34202216796875,-0.030073942871093752,1.048898486328125
-0.3446967578125,0.01600303955078125,1.1818582177734376
-0.413263515625,0.122617333984375,1.25681703125
-0.35806970703125,-0.06193568603515625,1.123611533203125
-0.2746711328125,-0.11193411376953125,1.143272861328125
-0.50541529296875,-0.03546593017578125,0.996795966796875
-0.31430369140625003,-0.07320984130859375,0.8417172412109375
-0.18397822265625,-0.12075736572265625,0.8289373779296875
-0.446331171875,-0.024436865234375,1.0899415087890625
-0.50687416015625,-0.08963089355468751,1.258291630859375
-0.44122513671875,0.09786321044921875,1.2079094775390624
-0.58662556640625,-0.03938737548828125,0.9857364697265625
-0.21510072265625,0.0172284912109375,1.0284998583984375
-0.27831830078124997,-0.1621776318359375,0.8834975634765625
-0.397702265625,0.013552136230468751,0.8977520263671875
-0.3816547265625,0.204967685546875,0.881777197265625
-0.53313376953125,0.12555841796875,0.8102591162109375
-0.48304599609375,0.080461796875,0.8304119775390625
-0.11638404296875,0.0985984814453125,0.957473310546875
-0.15188314453125001,-0.0999246875,1.1415524951171876
-0.27977716796875,0.0191892138671875,1.3681493017578126
-0.469673046875,0.061834931640625,1.2408422021484375
-0.46116298828125,0.02531647216796875,0.959439443359375
-0.57787236328125,-0.036201201171875,0.7736398925781249
-0.41204779296875,-0.155805283203125,0.7323511035156249
-0.1871391015625,-0.010221625976562499,0.82328474609375
-0.1851939453125,-0.00801581298828125,0.916184521484375
-0.23892888671875,-0.013652890625,0.781012890625
-0.190543125,-0.0249270458984375,0.73874103515625
-0.279047734375,0.059874208984374996,0.8038691845703125
-0.50687416015625,0.15766525146484375,1.02383029296875
-0.423961875,0.0255615625,1.0334151904296875
-0.28804408203125,-0.08938580322265625,1.0147369287109376
-0.15966376953125,-0.05360261474609375,0.9614055761718749
-0.372415234375,-0.048455717773437504,0.9488714794921875
-0.3476144921875,-0.0406128271484375,0.80362341796875
-0.39818855468750003,0.05815857666015625,0.7633176953125
-0.44511544921875,0.16256705810546876,0.7886316552734375
-0.41010263671875,0.1515379931640625,0.8127167822265625
-0.2834243359375,-0.0028689160156250004,0.8105048828125
-0.1958923046875,0.0037485229492187503,0.70924904296875
-0.21364185546875,-0.05115171142578125,0.676316318359375
-0.154557734375,-0.0631611376953125,0.600620205078125
-0.26640421875,0.04198261474609375,0.626179931640625
-0.3500459375,0.11771552734375,0.725469638671875
-0.3962433984375,-0.00654527099609375,0.6711552197265624
-0.1628246484375,0.04639424072265625,0.7502920654296875
-0.3019033203125,0.11305881103515625,0.9252778857421875
-0.33861814453125,0.1706550390625,1.0267794921875
-0.26032560546875,0.0819323388671875,1.1626884228515626
-0.2435486328125,0.05325677001953125,1.2865547900390626
-0.38627447265625,0.1133039013671875,1.2501813330078124
-0.39551396484375,0.07678544189453125,1.0235845263671874
-0.2099946875,0.12482314697265626,0.8242678125
-0.29387955078125,-0.08423890625,0.7468513330078125
-0.20683380859375,-0.10703230712890625,0.7498005322265625
-0.2260422265625,-0.037916833496093746,0.797233486328125
-0.35855599609375,-0.0371815625,0.8264797119140626
-0.25935302734375,-0.12271808837890624,0.8815314306640625
-0.143859375,-0.08497417724609375,0.97271083984375
-0.28123603515625,0.0436982470703125,1.2076637109375
-0.31819400390625,0.00276816162109375,1.3052330517578126
-0.41253408203124997,-0.0680629443359375,1.1666206884765624
-0.41253408203124997,0.00865032958984375,1.0661021484375
-0.29363640625,0.012816865234374999,0.944693447265625
-0.06191966796875,-0.096983603515625,0.9837703369140625
-0.1268392578125,-0.14330567626953125,1.2796733251953125
-0.32086859375,-0.1141399267578125,1.4315570849609376
-0.43976626953125,0.021885207519531248,1.2251131396484376
-0.32694720703125,-0.050661530761718754,0.872929599609375
-0.26372962890625,-0.18006922607421874,0.6795112841796875
-0.16793068359375,-0.1857063037109375,0.6716467529296875
-0.07845349609375,-0.07566074462890625,0.83213234375
-0.11492517578125,-0.0455146337890625,0.9881941357421875
-0.33642984375,-0.030319033203124998,1.0857634765625
-0.37533296875,-0.11046357177734376,1.08871267578125
-0.31041337890625,-0.07566074462890625,0.9717277734375
-0.3072525,-0.07468038330078125,0.9611598095703124
-0.14021220703125,-0.1906081103515625,1.0427543212890624
-0.0665394140625,-0.06291604736328126,1.1381117626953126
-0.23455228515625,-0.1190417333984375,1.2084010107421874
-0.36585033203125,0.00325834228515625,1.1213996337890624
-0.17717017578125,-0.07075893798828126,0.938303515625
-0.181789921875,0.1446754638671875,0.9407611816406249
-0.35393625,0.15570452880859376,1.0978060400390626
-0.2698082421875,0.09100068115234375,1.2521474658203124
-0.20732009765625,0.0373258984375,1.221918173828125
-0.185680234375,0.07874616455078125,1.14179826171875
-0.18835482421875,0.07850107421875,1.0240760595703124
-0.1827625,0.0010525292968750002,0.9272440185546875
-0.23260712890625002,0.1476165478515625,0.9582106103515625
-0.44657431640625,-0.10409122314453124,0.947642646484375
-0.37800755859375,0.09786321044921875,0.9881941357421875
-0.32840607421875,-0.0308092138671875,0.839505341796875
-0.15771861328125,0.0069346972656249995,0.8205813134765625
-0.17230728515625,0.042227705078125,0.7837163232421875
-0.20877896484375,-0.020515419921875,0.749554765625
-0.20415921875,-0.00850599365234375,0.7640549951171876
-0.15577345703125,0.03021827880859375,0.8023945849609375
-0.2989855859375,0.16354741943359374,0.80067421875
-0.28318119140625,-0.02909358154296875,0.7741314257812499
-0.11784291015625001,-0.0063001806640625,0.78986048828125
-0.23844259765625,0.11550971435546875,0.8579378369140624
-0.249870390625,0.06158984130859375,0.8576920703124999
-0.3485870703125,-0.04772044677734375,0.904387724609375
-0.35101851562499997,-0.0543378857421875,0.8790737646484375
-0.29436583984375,-0.004829638671875,0.8043607177734375
-0.31041337890625,-0.16095218017578125,0.6785282177734375
-0.1569891796875,-0.05482806640625,0.6824604833984375
-0.057056777343750004,-0.0371815625,0.797233486328125
-0.051950742187499996,0.0059543359375,0.98942296875
-0.23114826171875,-0.01585870361328125,1.3244028466796876
-0.47866939453125,0.04443351806640625,1.339886142578125
-0.282938046875,-0.0001729223632812504,1.1447474609375
-0.2192341796875,0.049090234375,0.92355751953125
-0.13291787109375,-0.03399538818359375,0.8471241064453126
-0.18203306640625,-0.18889247802734374,0.8259881787109375
-0.24306234375,-0.1151202880859375,0.8323781103515625
-0.31989601562500003,-0.09232688720703125,0.9051250244140625
-0.2488978125,-0.06144550537109375,0.9911433349609375
-0.25983931640625,-0.11144393310546875,1.1336879638671875
-0.199296328125,-0.00507472900390625,1.2025026123046876
-0.28901666015625,-0.07615092529296875,1.065610615234375
-0.03322861328125,-0.04183827880859375,0.968287041015625
-0.06970029296875,-0.05703387939453125,1.091661875
-0.29752671875000003,-0.09379742919921875,1.248460966796875
-0.37800755859375,0.0221302978515625,1.136391396484375
-0.27540056640625,-0.1808044970703125,0.8078014501953125
-0.109819140625,-0.20408807861328124,0.6765620849609375
-0.14215736328125,-0.2317832861328125,0.7586481298828125
-0.19248828125,-0.28300716552734373,0.895540126953125
-0.15382830078125,-0.3045751147460938,0.9547698779296875
-0.17303671874999998,-0.2935460498046875,1.0319405908203125
-0.2707808203125,-0.1504132958984375,1.1086197705078125
-0.15577345703125,-0.19036302001953126,1.037101689453125
-0.13583560546875,0.01110123291015625,0.956490244140625
-0.1210037890625,-0.0161037939453125,0.9754142724609375
-0.1861665234375,-0.09722869384765626,1.0334151904296875
-0.07213173828125,0.01404231689453125,0.9609140429687499
-0.144831953125,0.012816865234374999,0.9238032861328125
-0.11930177734375,-0.0768861962890625,0.9292101513671875
-0.10763083984374999,-0.0974737841796875,0.9400238818359374
0.0020273437500000005,-0.12124754638671875,1.0938737744140625
-0.02715,-0.1406096826171875,1.2713172607421874
-0.28269490234375,-0.13203152099609375,1.3076907177734376
-0.36147373046875,0.02972809814453125,1.1838243505859376
-0.3578265625,-0.059729873046875,0.937811982421875
-0.1900568359375,-0.10115013916015625,0.7507835986328125
-0.07383375,0.079481435546875,0.7419360009765625
-0.0035649804687499995,-0.03056412353515625,0.701876044921875
-0.0305540234375,-0.1200220947265625,0.665502587890625
-0.012561328125,-0.1151202880859375,0.6451039599609375
0.03047525390625,-0.092081796875,0.7158847412109375
0.04506392578125,-0.089140712890625,0.9174133544921875
0.05576228515625,-0.092081796875,1.1302472314453125
-0.072861171875,0.040266982421875,1.2840971240234376
-0.09085386718749999,0.050070595703125,1.3258774462890626
-0.1025248046875,0.0387964404296875,1.2575543310546875
-0.1229489453125,0.124578056640625,1.0461950537109375
-0.18689595703125,-0.01978014892578125,0.918150654296875
-0.07188859375000001,0.01698340087890625,0.9636174755859375
-0.12829812499999999,0.09002031982421875,1.065610615234375
0.07959044921875,-0.05360261474609375,1.0491442529296875
0.012968847656250001,-0.1229631787109375,1.12410306640625
-0.10568568359375,-0.04281864013671875,1.048406953125
-0.13486302734375,-0.10360104248046875,0.92748978515625
-0.16525609375,-0.03889719482421875,0.864082001953125
-0.0159653515625,-0.10801266845703125,0.9007012255859375
0.0003253320312500002,-0.0553182470703125,1.0638902490234374
-0.090367578125,0.08021670654296875,1.2029941455078126
-0.10714455078125,-0.03056412353515625,1.09461107421875
-0.0966893359375,-0.00777072265625,0.8731753662109375
-0.11930177734375,-0.08154291259765625,0.73480876953125
0.05527599609375,-0.05311243408203125,0.799199619140625
0.00421564453125,-0.07320984130859375,0.9759058056640625
-0.03079716796875,-0.0415931884765625,1.14376439453125
-0.15625974609374998,-0.057769150390625,1.18603625
-0.2873146484375,-0.1131595654296875,1.0570087841796876
-0.112736875,-0.1111988427734375,0.8289373779296875
0.02536921875,-0.03203466552734375,0.809030283203125
0.06500177734375,-0.0881603515625,0.9498545458984375
-0.009886738281250002,-0.03546593017578125,1.0904330419921875
-0.16525609375,0.0486000537109375,1.0058893310546875
-0.2153438671875,-0.09281706787109376,0.8422087744140625
-0.020828242187500002,-0.1268846240234375,0.8038691845703125
-0.06678255859375,-0.12222790771484375,0.915201455078125
0.05187197265625,-0.1131595654296875,0.9729566064453125
-0.03274232421875,-0.21340151123046874,1.08871267578125
-0.14847912109375,-0.0011532836914062497,1.1798920849609376
-0.1569891796875,0.05497240234375,1.083305810546875
-0.14896541015625,0.0686974609375,0.9862280029296875
-0.06483740234375,0.14124419921875,1.0550426513671876
0.054789707031249996,-0.0268877685546875,1.092153408203125
0.042389335937499995,-0.03644629150390625,1.182595517578125
-0.047087851562500005,0.01306195556640625,1.2098756103515624
-0.13000013671875,-0.08963089355468751,1.0476696533203125
