ax,ay,az
-0.1842213671875,-0.118551552734375,0.810996416015625
-0.15577345703125,-0.01634888427734375,0.818860947265625
-0.14847912109375,-0.03644629150390625,0.946659580078125
-0.32086859375,-0.202862626953125,0.698926845703125
-0.03955037109375,-0.0219859619140625,1.0073639306640625
-0.18738224609375,-0.013162709960937501,0.966320908203125
-0.23795630859375,-0.0180645166015625,0.72891037109375
-0.236254296875,0.0250713818359375,0.9011927587890625
-0.175954453125,0.159871064453125,1.0437373876953124
-0.31089966796875,0.18560554931640624,0.9717277734375
-0.288773515625,0.01649322021484375,1.111323203125
-0.17036212890625,0.148106728515625,1.0284998583984375
-0.0947441796875,0.16991976806640624,0.83311541015625
-0.189570546875,-0.0513968017578125,0.71318130859375
-0.162338359375,-0.06095532470703125,0.9223286865234375
-0.253760703125,-0.04036773681640625,1.3411149755859375
-0.35417939453125,-0.03301502685546875,1.4986513671875
-0.2970404296875,0.05570767333984375,1.2605035302734375
-0.18981369140625,-0.0739451123046875,1.0339067236328126
-0.345183046875,0.028502646484374998,0.8576920703124999
-0.02787943359375,0.04198261474609375,0.785436689453125
-0.21266927734375,-0.09134652587890625,0.9739396728515625
-0.14410251953125,0.2740831591796875,1.2752495263671875
-0.20634751953125,-0.00777072265625,1.0781447119140626
-0.32791978515625,-0.08963089355468751,0.970253173828125
-0.19832375,-0.01291761962890625,1.0697886474609375
-0.12951384765625001,-0.02909358154296875,0.927981318359375
-0.224583359375,-0.1092381201171875,0.70629984375
-0.20464550781250002,0.0544822216796875,0.8009199853515625
-0.30846822265625,-0.1739419677734375,0.91176072265625
-0.244034921875,0.07065818359375,1.2098756103515624
-0.32548833984375003,0.15692998046875,1.268122294921875
-0.22701480468750002,0.0878145068359375,1.2192147412109375
-0.28755779296875,-0.0945327001953125,0.978117705078125
-0.13583560546875,0.28805330810546875,1.09952640625
-0.230418828125,-0.257762861328125,1.0791277783203126
-0.0334717578125,-0.0435539111328125,1.083305810546875
-0.09912078125,0.18045865234375,1.02088109375
-0.1783858984375,0.01845394287109375,1.21847744140625
-0.14629082031250001,-0.13938423095703126,1.03169482421875
0.09417912109375,0.04100225341796875,1.091170341796875
-0.370470078125,-0.3298194189453125,1.0398051220703124
-0.4589746875,-0.3572695361328125,0.86457353515625
-0.32402947265625,-0.38986655029296874,0.6878673486328125
-0.267376796875,-0.35555390380859375,0.5885776416015625
-0.2367405859375,0.02041466552734375,0.74463943359375
-0.1210037890625,0.1240878759765625,1.0334151904296875
-0.08380267578125,0.06649164794921875,1.128526865234375
-0.11541146484375,-0.07124911865234375,1.1388490625
0.058193730468749996,-0.12418863037109375,1.18701931640625
-0.172064140625,-0.2298225634765625,0.98647376953125
-0.23819945312500002,0.16011615478515626,0.9953213671875
-0.41545181640625,-0.12149263671875,0.9247863525390625
-0.44292714843750003,0.01575794921875,1.087238076171875
-0.39065107421875,0.126538779296875,1.1907058154296875
-0.52511,0.21648693115234374,1.1621968896484376
-0.40864376953125,-0.0739451123046875,0.9193794873046874
-0.17692703125,0.008895419921875,1.081339677734375
-0.17182099609375,0.10202974609375,1.2044687451171874
-0.35369310546875,-0.21095060791015624,0.98942296875
0.051385683593749995,-0.03129939453125,0.8889044287109376
-0.14993798828125,-0.00948635498046875,0.6175781005859375
-0.05073501953125,-0.04428918212890625,0.7316138037109375
-0.12343523437500001,0.04737460205078125,0.9454307470703125
-0.13802390625,-0.0170841552734375,1.1440101611328124
-0.259596171875,0.02727719482421875,1.443108115234375
-0.5207333984375,0.0956573974609375,1.4762866064453124
-0.4088869140625,0.06281529296875,1.1010010058593749
-0.4200715625,0.00227798095703125,0.7812586572265625
-0.059245078125,-0.073454931640625,0.7665126611328125
-0.22361078125,-0.259723583984375,0.7529954980468749
0.0598957421875,-0.224430576171875,1.024813359375
-0.10690140625,-0.4621681982421875,1.2939277880859374
-0.30141703125,-0.0808076416015625,1.4379470166015624
-0.187625390625,0.0574233056640625,1.5878646435546875
-0.38530189453125,-0.25482177734375,1.374785
-0.14556138671875,-0.09477779052734375,1.283851357421875
-0.084532109375,-0.10899302978515625,1.4453200146484375
-0.3495596484375,-0.13399224365234375,1.1956211474609375
-0.37265837890625,0.0809519775390625,0.687130048828125
-0.36244630859375,-0.015368522949218751,0.4322700830078125
-0.0461152734375,-0.19183356201171875,0.4189986865234375
0.08299447265625,-0.1680597998046875,0.664519521484375
-0.1326747265625,-0.04526954345703125,1.05725455078125
-0.37022693359375003,-0.13742350830078126,1.3452930078125
-0.53653779296875,-0.03742665283203125,1.7323754052734375
-0.57398205078125,0.19810515625,1.4610490771484375
0.02415349609375,-0.09771887451171875,1.09067880859375
-0.0256911328125,0.0035034326171875,1.0739666796875
-0.18592337890625,0.2417312353515625,1.1132893359375
-0.1103054296875,0.0348749951171875,0.8805483642578125
-0.17036212890625,0.06943273193359376,0.8323781103515625
-0.177899609375,0.052031318359375,0.95304951171875
-0.1589343359375,0.0010525292968750002,0.9537868115234375
-0.197351171875,0.0299731884765625,0.996795966796875
-0.197351171875,0.0652661962890625,1.10640787109375
-0.30627992187499997,0.01894412353515625,1.195375380859375
-0.282938046875,0.120656611328125,0.9434646142578125
-0.2333365625,-0.0043394580078125,0.72497810546875
-0.1453182421875,-0.07958218994140626,0.6374851953125
-0.07407689453124999,-0.1337471533203125,0.7328426367187499
-0.046358417968749996,-0.12761989501953125,0.7104778759765625
-0.0889087109375,-0.140119501953125,0.7075286767578125
-0.06824142578125,-0.2798209912109375,0.842454541015625
-0.1268392578125,-0.02419177490234375,0.9717277734375
-0.2338228515625,0.0731090869140625,1.043983154296875
-0.1647698046875,0.15962597412109375,1.10837400390625
-0.15139685546875,0.09443194580078125,1.233714970703125
-0.343237890625,0.12531332763671876,1.24010490234375
-0.2056180859375,-0.08301345458984374,0.945676513671875
-0.11322316406249999,0.0397768017578125,0.7842078564453125
-0.1744955859375,-0.08203309326171875,0.6603414892578126
-0.15139685546875,-0.1004148681640625,0.626179931640625
-0.19516287109375,0.03119864013671875,0.694011513671875
-0.144831953125,0.11109808837890625,0.700892978515625
-0.09085386718749999,0.0740894482421875,0.7266984716796875
-0.05243703125,0.033404453125,0.8294289111328125
-0.13778076171875,0.05374695068359375,0.935845849609375
-0.16987583984375,0.08266760986328126,1.0643817822265624
-0.2411171875,0.04688442138671875,1.0594664501953126
-0.22044990234375,0.0897752294921875,0.9614055761718749
-0.24087404296875,0.09810830078125,0.8658023681640625
-0.23309341796875,0.0936966748046875,0.8427003076171875
-0.21753216796875,0.19344843994140626,0.87440419921875
-0.185680234375,0.1103628173828125,0.909303056640625
-0.15625974609374998,0.2083989501953125,1.00416896484375
-0.14118478515625,0.0417375244140625,1.0093300634765625
-0.17960162109375,-0.0327699365234375,1.0083469970703125
-0.20586123046875,0.104970830078125,1.02088109375
-0.21461443359375,0.11158826904296874,0.9631259423828125
-0.2620276171875,-0.07026875732421875,0.7901062548828125
-0.22044990234375,0.09982393310546875,0.76921609375
-0.249870390625,0.00227798095703125,0.712689775390625
-0.1385101953125,-0.07320984130859375,0.7212916064453125
-0.14993798828125,0.03462990478515625,0.818860947265625
-0.299471875,0.11452935302734375,0.8898874951171875
-0.20148462890625,-0.03129939453125,0.970253173828125
-0.31770771484375,0.13340130859375,1.1159927685546875
-0.185680234375,0.169674677734375,1.2034856787109376
-0.3349709765625,-0.0562986083984375,1.003677431640625
-0.24670951171875,-0.06242586669921875,1.101984072265625
-0.2406308984375,-0.0803174609375,0.966320908203125
-0.21461443359375,-0.11634573974609375,0.7173593408203125
-0.14069849609375001,-0.06585713134765625,0.6868842822265625
-0.18227621093750002,0.021640117187500002,0.9088115234375
-0.1725504296875,0.07065818359375,0.882760263671875
-0.2800203125,0.19099753662109376,0.980083837890625
-0.16647181640625,0.14884199951171875,1.3130975830078124
-0.28950294921874997,0.16673359375,1.4354893505859374
-0.34299474609375,0.096147578125,1.374785
-0.20877896484375,0.0525214990234375,1.2177401416015625
-0.2454937890625,-0.038161923828125,0.9090572900390625
-0.20780638671875,-0.02149578125,0.8481071728515625
-0.18470765625,-0.0332601171875,0.837539208984375
-0.20683380859375,0.02335574951171875,0.991880634765625
-0.19078626953125,0.06404074462890624,1.0776531787109376
-0.24306234375,-0.032279755859375,0.992863701171875
-0.1608794921875,0.015022678222656249,0.9331424169921875
-0.1064151171875,-0.02762303955078125,0.8884128955078126
-0.143859375,0.081442158203125,1.0319405908203125
-0.23066197265625,0.05227640869140625,1.19291771484375
-0.19346085937500002,0.0789912548828125,1.36003900390625
-0.26713365234374997,0.12139188232421876,1.4428623486328125
-0.3835998828125,0.085363603515625,1.3573355712890625
-0.259596171875,0.103010107421875,1.2039772119140626
-0.28707150390625,0.09884357177734375,1.062661416015625
-0.15431458984375,-0.0567887890625,1.1012467724609376
-0.09839134765625,-0.0249270458984375,1.1371286962890625
-0.255705859375,-0.05458297607421875,1.102967138671875
-0.18689595703125,-0.18448085205078124,1.1194335009765626
-0.14847912109375,-0.0661022216796875,1.067576748046875
-0.20415921875,-0.14894275390625,1.1336879638671875
-0.36730919921875,-0.17467723876953126,1.160968056640625
-0.2221519140625,-0.02737794921875,1.00810123046875
-0.249870390625,-0.07860182861328124,0.91569298828125
-0.29922873046875,-0.08105273193359375,1.0550426513671876
-0.2357680078125,0.07482471923828125,1.0609410498046874
-0.18251935546875,0.0231106591796875,1.091170341796875
-0.21947732421875,0.11305881103515625,1.2054518115234374
-0.20488865234375,0.02874773681640625,1.1253318994140624
-0.164283515625,0.0358553564453125,1.0184234277343749
-0.18981369140625,-0.00752563232421875,1.1081282373046875
-0.201241484375,-0.06634731201171876,1.1676037548828124
-0.17522501953125,-0.09232688720703125,1.1014925390624999
-0.221665625,-0.11438501708984375,1.074458212890625
-0.22093619140625,-0.05654369873046875,1.1135351025390625
-0.3660934765625,-0.0033590966796874996,0.989914501953125
-0.2834243359375,0.05227640869140625,0.9011927587890625
-0.23114826171875,-0.0533575244140625,0.84097994140625
-0.09498732421875,-0.05556333740234375,0.7994453857421875
-0.14264365234375,-0.0063001806640625,0.8682600341796876
-0.168173828125,-0.02860340087890625,0.899472392578125
-0.2513292578125,0.03708080810546875,0.94125271484375
-0.26616107421875,0.0740894482421875,1.0110504296875
-0.23844259765625,-0.02860340087890625,1.0936280078125
-0.237226875,0.052031318359375,1.046932353515625
-0.1754681640625,-0.00605509033203125,0.937811982421875
-0.21510072265625,-0.091101435546875,0.8436833740234375
-0.18689595703125,-0.11438501708984375,0.7055625439453125
-0.230418828125,-0.05703387939453125,0.8210728466796875
-0.23819945312500002,-0.1111988427734375,0.9301932177734376
-0.2454937890625,-0.03546593017578125,1.0739666796875
-0.24038775390625,-0.02174087158203125,1.0845346435546874
-0.12829812499999999,-0.0602200537109375,1.0270252587890625
-0.1978374609375,-0.11536537841796875,0.97369390625
-0.121490078125,0.02090484619140625,0.9827872705078124
-0.1472633984375,-0.00409436767578125,0.8849721630859375
-0.1744955859375,-0.09624833251953124,0.9252778857421875
-0.18932740234375,0.0294830078125,1.1054248046875
-0.30919765625,0.00791505859375,1.1823497509765626
-0.23528171875,-0.03252484619140625,1.1130435693359375
-0.3072525,-0.04772044677734375,0.9065996240234375
-0.253760703125,0.048109873046875,0.9198710205078124
-0.25108611328125,0.05325677001953125,1.014491162109375
-0.3155194140625,-0.25065524169921877,0.9877026025390625
-0.076751484375,-0.1582561865234375,0.9881941357421875
-0.09887763671875,-0.11364974609375,0.9953213671875
-0.1093328515625,-0.063651318359375,1.0997721728515626
-0.07018658203125,0.04394333740234375,1.2467406005859374
-0.30020130859375,0.01575794921875,1.4177941552734374
-0.38189787109375,0.0525214990234375,1.4295909521484376
-0.37995271484375,0.1358522119140625,1.090187275390625
-0.21850474609375,-0.1357078759765625,0.959439443359375
-0.2172890234375,-0.12075736572265625,0.971236240234375
-0.24379177734375002,-0.1376685986328125,0.8984893261718749
-0.112736875,-0.0141430712890625,0.8368019091796874
-0.22920310546875,-0.10164031982421876,0.8392595751953125
-0.16258150390625,0.0642858349609375,0.7679872607421875
-0.1774133203125,-0.013162709960937501,0.9193794873046874
-0.25059982421875,-0.029338671875,1.062661416015625
-0.22190876953125,-0.10801266845703125,1.0987891064453126
-0.20099833984375,-0.11193411376953125,1.2231470068359376
-0.18300564453125,-0.11585555908203125,1.1194335009765626
-0.31576255859375,-0.03987755615234375,1.1150097021484375
-0.26251390625,-0.053847705078125,0.8967689599609375
-0.25789416015625,-0.08840544189453126,0.738249501953125
-0.15236943359375,-0.124433720703125,0.7208000732421875
-0.21412814453125,-0.09918941650390625,0.646824326171875
-0.14167107421875,-0.17712814208984376,0.6451039599609375
0.0472522265625,-0.136198056640625,0.9154472216796875
-0.005510136718749999,0.0887948681640625,1.0766701123046876
-0.2202067578125,0.08658905517578125,1.2487067333984374
-0.2182616015625,0.1549692578125,1.403785458984375
-0.27199654296875,0.09345158447265625,1.2993346533203125
-0.33229638671875,-0.02223105224609375,1.3843698974609375
-0.2892598046875,0.177517568359375,1.252884765625
-0.21023783203125002,0.03536517578125,0.9498545458984375
-0.16793068359375,-0.12958061767578125,0.8223016796875
-0.3320532421875,-0.0038492773437499997,0.9385492822265625
-0.26056875,-0.169530341796875,1.0727378466796875
-0.2561921484375,-0.17712814208984376,1.083305810546875
-0.1103054296875,-0.0023787353515625003,1.031203291015625
-0.24865466796875,-0.0621807763671875,0.7989538525390625
-0.0256911328125,-0.01732924560546875,0.81148794921875
-0.009886738281250002,0.1182057080078125,1.0049062646484375
-0.236254296875,-0.11830646240234374,1.1317218310546875
-0.380195859375,0.02923791748046875,1.0565172509765626
-0.27685943359375,0.0495804150390625,0.9191337207031249
-0.38043900390625,-0.13448242431640625,0.6608330224609374
-0.2124261328125,-0.022476142578125,0.80853875
-0.14312994140625,-0.087179990234375,0.8515479052734375
-0.30749564453125,-0.12369844970703125,0.9105318896484375
-0.17036212890625,-0.045024453125,0.8446664404296875
-0.222638203125,-0.17418705810546875,0.662553388671875
-0.10203851562499999,-0.21585241455078125,0.7448852001953125
-0.18738224609375,-0.06659240234375,0.996795966796875
-0.038091503906250004,-0.08595453857421875,1.1351625634765625
0.06257033203125,-0.230312744140625,0.963371708984375
-0.016451640625,-0.0670825830078125,0.904387724609375
-0.36196001953125,-0.01144707763671875,1.039067822265625
-0.12367837890625,-0.11536537841796875,1.1513831591796875
-0.33861814453125,-0.02370159423828125,1.1828412841796876
-0.3865176171875,0.11305881103515625,1.20864677734375
-0.18592337890625,0.163792509765625,1.2017653125
-0.31746457031249997,-0.020515419921875,0.9835245703125
0.03631072265625,0.1260485986328125,1.046932353515625
-0.03687578125,-0.05164189208984375,1.1093570703125
-0.02739314453125,0.14050892822265626,1.2233927734375
-0.16063634765625,-0.159726728515625,0.9257694189453125
-0.041495527343750005,0.0074248779296875,0.7792925244140625
-0.084532109375,-0.196980458984375,0.73775796875
-0.30871136718750003,-0.232273466796875,0.7935469873046875
-0.09790505859375,-0.0729647509765625,0.7964961865234375
-0.1939471484375,-0.11634573974609375,0.811979482421875
-0.20026890625,-0.075415654296875,1.0899415087890625
-0.34591248046875,0.1603612451171875,1.1931634814453125
-0.46991619140625,0.2878082177734375,1.24010490234375
-0.19467658203125,0.3025136376953125,1.016948828125
-0.1920019921875,0.18952699462890624,0.8412257080078125
-0.20294349609375,-0.0719843896484375,0.49666093261718747
0.01977689453125,-0.06046514404296875,0.497889765625
0.058193730468749996,-0.09085634521484375,0.6642737548828125
-0.0538958984375,-0.21781313720703124,0.7994453857421875
-0.32281375,-0.212666240234375,0.916184521484375
-0.514411640625,-0.05482806640625,1.0110504296875
-0.16987583984375,-0.3209961669921875,0.862115869140625
-0.183735078125,-0.0023787353515625003,0.8065726171875
0.020506328125,0.06796218994140625,0.655671923828125
0.104148046875,0.09737302978515625,0.9326508837890625
0.18706033203125,-0.16070708984375,1.1329506640625
-0.1482359765625,-0.3638869750976563,1.3838783642578125
-0.5559893554687501,-0.09183670654296874,1.1872650830078124
-0.4079143359375,-0.15286419921875,1.064136015625
-0.430769921875,-0.153844560546875,1.2408422021484375
-0.314060546875,-0.015368522949218751,1.2332234375
-0.2722396875,-0.0016434643554687498,1.10247560546875
-0.2104809765625,-0.04723026611328125,0.7753602587890625
-0.1093328515625,-0.083258544921875,0.60111173828125
0.0151571484375,-0.255802138671875,0.741690234375
0.12530162109375,-0.195019736328125,1.16735798828125
-0.21412814453125,0.23756469970703126,1.705586845703125
-0.3495596484375,0.212810576171875,1.6001529736328126
-0.129270703125,0.19491898193359375,1.3583186376953125
-0.10568568359375,0.27432824951171875,1.3180129150390625
-0.42931105468749997,-0.0435539111328125,1.3715900341796874
-0.25254498046875,0.2569268359375,1.924810654296875
-0.27442798828125,0.4779983154296875,2.129718558349609
-0.46991619140625,0.4650085278320312,1.9402939501953125
-0.48353228515625,0.21452620849609375,1.3256316796875
-0.48742259765625,0.09835339111328124,1.0275167919921875
-0.42323244140625,-0.34501501953125,0.556382216796875
-0.051464453125000004,-0.2886442431640625,0.4745419384765625
0.07594328125,-0.24575343505859376,0.4212105859375
0.03825587890625,-0.2131564208984375,0.3860659619140625
0.047738515625,-0.273448642578125,0.4868302685546875
-0.01085931640625,-0.39427817626953127,0.9744312060546875
-0.19370400390625,-0.5991736938476563,1.31088568359375
-0.26275705078125,-0.7621587646484375,1.7309008056640625
-0.06289224609374999,-0.8229411669921876,1.9076069921875
-0.047574140625,-0.6859356713867187,1.5581268847656249
-0.10763083984374999,-0.29428132080078123,0.75840236328125
-0.00891416015625,-0.13056097900390626,0.394176259765625
-0.02715,-0.07075893798828126,0.7475886328125
-0.15358515625,0.0760501708984375,1.1835785839843749
-0.391866796875,0.09541230712890625,0.990897568359375
-0.50590158203125,-0.06242586669921875,0.8240220458984375
-0.37338781249999997,0.0789912548828125,0.73775796875
-0.05365275390625,0.0691876416015625,0.568179013671875
0.04944052734375,0.01159141357421875,0.435465048828125
-0.009643593750000002,0.03708080810546875,0.59717947265625
-0.05900193359375,0.13070531494140625,0.899472392578125
-0.10276794921875,0.2289865380859375,1.166866455078125
-0.384086171875,0.3260423095703125,1.825520947265625
-0.561095390625,0.206928408203125,1.5379740234375001
-0.36341888671875,0.1706550390625,0.638959794921875
-0.061190234375,0.110852998046875,0.4991185986328125
0.104148046875,0.08217742919921875,0.7928096875
0.06305662109375,0.195164072265625,1.1427813281249999
-0.3913805078125,0.02433611083984375,1.0511103857421875
-0.489124609375,-0.09036616455078125,0.843929140625
-0.144831953125,-0.18448085205078124,0.7394783349609375
0.06451548828125,-0.2023724462890625,0.62273919921875
0.04992681640625,-0.2817817138671875,0.5728485791015625
-0.01863994140625,-0.4104541381835938,0.8805483642578125
0.16323216796875,-0.2268814794921875,1.3502083398437499
0.21818283203125,0.062080021972656246,1.77882529296875
-0.61385775390625,-0.00752563232421875,1.7510536669921875
-0.5975670703125,-0.2621744873046875,1.1926719482421875
-0.49909353515625,-0.0006631030273437505,1.0284998583984375
-0.209022109375,-0.05458297607421875,0.7090032763671875
0.28893789062499997,-0.07958218994140626,0.67484171875
0.0093216796875,0.30030782470703127,1.317275615234375
-0.35101851562499997,0.30226854736328124,1.4003447265625
-0.2523018359375,0.2765340625,0.934862783203125
-0.21996361328125,0.28633767578125,0.7370206689453125
-0.23455228515625,0.21207530517578124,0.7397241015625
-0.19419029296875,0.13952856689453125,0.495432099609375
-0.07359060546875,0.114774443359375,0.275225224609375
0.01491400390625,0.0486000537109375,0.58341654296875
-0.1190586328125,-0.03840701416015625,0.9007012255859375
-0.43733482421875003,-0.03154448486328125,1.3563525048828124
-0.4234755859375,0.12188206298828125,1.58614427734375
-0.2717533984375,-0.1023755908203125,1.182595517578125
-0.03760521484375,-0.2062938916015625,1.1322133642578125
-0.2095083984375,0.19540916259765626,0.8564632373046875
-0.11395259765625,-0.10801266845703125,0.4425922802734375
-0.1414279296875,0.00963069091796875,0.56178908203125
-0.17376615234375,0.1240878759765625,0.5753062451171875
-0.15577345703125,0.1936935302734375,0.7635634619140625
-0.140941640625,0.1809488330078125,0.9016842919921875
-0.0023492578125000017,-0.128355166015625,0.7593854296875
-0.25108611328125,-0.11781628173828125,0.7478343994140625
-0.28172232421875,-0.05458297607421875,0.72301197265625
-0.1326747265625,0.1005592041015625,0.8181236474609375
-0.23066197265625,0.104970830078125,1.057746083984375
-0.3573402734375,0.12335260498046875,1.177680185546875
-0.26956509765625,0.2731027978515625,1.3440641748046875
-0.34250845703125,0.2250650927734375,1.2850801904296876
-0.253760703125,0.21452620849609375,1.2236385400390626
-0.36682291015625,0.08315779052734375,1.113780869140625
-0.25740787109375,-0.0567887890625,0.913235322265625
-0.16355408203125,0.0133070458984375,0.6414174609375
-0.133161015625,0.11894097900390625,0.5885776416015625
-0.24306234375,0.07457962890625,0.6814774169921874
-0.2722396875,0.1378129345703125,0.7773263916015625
-0.27394169921875,0.21158512451171874,0.8267254785156251
-0.07383375,0.05717821533203125,0.965829375
-0.10568568359375,-0.09771887451171875,1.1671122216796874
-0.23139140625,-0.044044091796875,1.303512685546875
-0.33278267578125,-0.15212892822265625,1.2197062744140625
-0.1044699609375,-0.05801424072265625,1.1533492919921875
-0.2800203125,-0.01046671630859375,0.996795966796875
-0.31576255859375,-0.03350520751953125,0.9439561474609375
-0.21412814453125,-0.10065995849609374,0.98647376953125
-0.12416466796875,0.04590406005859375,1.0130165625
-0.1696326953125,-0.0038492773437499997,1.0550426513671876
-0.18592337890625,0.14492055419921876,1.281885224609375
-0.28196546875,0.07433453857421875,1.2496897998046874
-0.292663828125,0.02531647216796875,1.1346710302734375
-0.2474389453125,0.10129447509765625,1.1612138232421876
-0.245980078125,-0.05997496337890625,0.9867195361328125
-0.13340416015625,0.03904153076171875,0.8156659814453124
-0.18227621093750002,-0.012427438964843749,0.690079248046875
-0.0334717578125,0.053992041015625,0.721537373046875
-0.1978374609375,0.055952763671875,0.829674677734375
-0.08623412109375,-0.10360104248046875,1.1838243505859376
-0.3505322265625,-0.0009081933593750001,1.50848203125
-0.43004048828125,0.0446786083984375,1.522736494140625
-0.33570041015625,-0.0646316796875,1.194392314453125
-0.1375376171875,0.19884042724609374,0.8653108349609375
-0.20683380859375,-0.04085791748046875,0.6274087646484375
-0.15066742187499998,-0.03742665283203125,0.701876044921875
-0.109819140625,-0.02468195556640625,0.980083837890625
-0.34445361328125,-0.07860182861328124,1.1051790380859374
-0.25303126953125,0.06673673828125,1.2585373974609375
-0.2211793359375,-0.0955130615234375,1.1277895654296874
-0.06751199218750001,-0.013652890625,1.1297556982421875
-0.2960678515625,-0.045024453125,1.0584833837890626
-0.2581373046875,0.02727719482421875,0.899472392578125
-0.076751484375,-0.1808044970703125,0.840488408203125
-0.2450075,-0.077376376953125,0.906845390625
-0.28707150390625,-0.0028689160156250004,0.904387724609375
-0.25789416015625,-0.13742350830078126,0.9007012255859375
-0.1501811328125,0.02482629150390625,0.9857364697265625
-0.15917748046875,-0.1121792041015625,0.9262609521484375
-0.1637972265625,-0.04821062744140625,0.985490703125
-0.13291787109375,-0.0739451123046875,1.0865007763671874
-0.224583359375,0.0456589697265625,1.12213693359375
-0.2450075,0.11403917236328125,0.9926179345703126
-0.20026890625,-0.01169216796875,1.0845346435546874
-0.05559791015625,0.20178151123046875,1.15949345703125
-0.1297569921875,0.01575794921875,1.04742388671875
-0.27029453125,-0.1357078759765625,0.96484630859375
-0.294608984375,0.01012087158203125,0.9493630126953125
-0.21558701171875,-0.042083369140625,0.9257694189453125
-0.25740787109375,-0.030073942871093752,0.9582106103515625
-0.2542469921875,0.03512008544921875,0.9414984814453125
-0.097175625,0.01649322021484375,1.1351625634765625
-0.2717533984375,0.0005623486328125002,1.1459762939453124
-0.09304216796875,-0.02174087158203125,1.037101689453125
-0.14702025390625,0.0368357177734375,0.979100771484375
-0.12951384765625001,-0.11364974609375,0.8751414990234375
-0.12124693359375,-0.01634888427734375,0.885709462890625
-0.30530734375,-0.044044091796875,0.8790737646484375
-0.18495080078125,0.03144373046875,0.90389619140625
-0.2027003515625,0.04982550537109375,0.83114927734375
-0.2007551953125,0.08021670654296875,0.9442019140625
-0.24670951171875,-0.0151234326171875,0.9129895556640625
-0.20829267578125,0.012816865234374999,0.943710380859375
-0.1073876953125,-0.055073156738281254,1.0575003173828126
-0.13510617187500001,0.00987578125,1.1346710302734375
-0.20197091796875,-0.15605037353515624,1.0339067236328126
-0.189570546875,-0.1778634130859375,1.048406953125
-0.222638203125,-0.01830960693359375,0.9120064892578125
-0.15285572265625,-0.1386489599609375,0.84097994140625
-0.049762441406249996,-0.0219859619140625,0.9528037451171875
-0.222638203125,0.01845394287109375,0.9795923046875
-0.09109701171875,-0.05850442138671875,1.03759322265625
-0.12513724609375,0.00865032958984375,1.0503730859375
-0.20002576171875,-0.022476142578125,1.1808751513671876
-0.24038775390625,-0.07909200927734375,1.02088109375
-0.33764556640625,0.02041466552734375,1.0110504296875
-0.23990146484375,0.0137972265625,1.0503730859375
-0.115654609375,-0.09134652587890625,0.9808211376953125
-0.24962724609375,-0.060710234375,0.86260740234375
-0.111764296875,-0.10262068115234375,0.785436689453125
-0.1399690625,-0.0092412646484375,0.75840236328125
-0.0947441796875,-0.0259074072265625,0.741690234375
-0.11054857421875,-0.0141430712890625,0.916184521484375
-0.2007551953125,-0.029338671875,1.0555341845703126
-0.2912049609375,0.0182088525390625,1.1762055859375
-0.286828359375,0.00717978759765625,1.072492080078125
-0.09134015625,0.0309535498046875,0.9877026025390625
-0.304334765625,0.0064445166015625,0.9336339501953125
-0.15723232421875,0.118695888671875,0.901438525390625
-0.11930177734375,-0.06659240234375,0.8648193017578125
-0.2406308984375,-0.1239435400390625,0.9498545458984375
-0.21364185546875,0.0451687890625,1.0270252587890625
-0.23917203125,-0.02076051025390625,1.0029401318359374
-0.1842213671875,-0.046740085449218746,1.0226014599609374
-0.240144609375,0.05962911865234375,1.0235845263671874
-0.20926525390625,-0.1200220947265625,0.9100403564453124
-0.02982458984375,-0.112669384765625,0.8481071728515625
-0.19759431640625,-0.03448556884765625,0.7711822265625
-0.0388209375,-0.08350363525390625,0.8230389794921875
-0.129270703125,-0.1308060693359375,1.02972869140625
-0.33229638671875,0.08805959716796875,1.1852989501953124
-0.24281919921875,0.1005592041015625,1.1327048974609375
-0.22968939453125,-0.04477936279296875,1.0899415087890625
-0.267376796875,0.03512008544921875,1.2034856787109376
-0.25351755859375,0.0936966748046875,1.26369849609375
-0.1355924609375,0.07433453857421875,1.1277895654296874
-0.22677166015625,-0.0033590966796874996,0.9277355517578125
-0.13778076171875,-0.0415931884765625,1.097068740234375
-0.32305689453124997,-0.0631611376953125,1.1056705712890624
-0.1229489453125,0.0495804150390625,1.00220283203125
-0.172064140625,-0.10997339111328125,0.7743771923828124
-0.07067287109375,-0.09379742919921875,0.9267524853515625
-0.12951384765625001,-0.12173772705078124,1.024813359375
-0.24695265625,-0.05311243408203125,0.873912666015625
-0.1949197265625,-0.07664110595703125,0.8616243359375
-0.22725794921875,-0.0680629443359375,0.8697346337890625
-0.1112780078125,-0.0170841552734375,0.9238032861328125
-0.25838044921875,0.0721287255859375,0.888658662109375
-0.255705859375,-0.0455146337890625,1.1368829296875
-0.257651015625,0.0652661962890625,1.24108796875
-0.18251935546875,0.10521592041015625,1.1523662255859375
-0.1404553515625,-0.00703545166015625,0.7942842871093749
-0.0918264453125,-0.07222947998046875,0.811979482421875
0.01929060546875,0.07261890625,1.0363643896484376
-0.018883085937500002,0.0172284912109375,1.2501813330078124
-0.28998923828125,0.0623251123046875,1.2703341943359374
-0.187625390625,-0.081297822265625,1.3283351123046876
-0.13048642578125,-0.02174087158203125,1.303512685546875
-0.30749564453125,0.07850107421875,1.128526865234375
-0.1939471484375,-0.071494208984375,1.0933822412109375
-0.2843969140625,-0.1357078759765625,1.0825685107421874
-0.25789416015625,-0.0425735498046875,0.889641728515625
-0.17692703125,-0.0651218603515625,0.64829892578125
-0.1287844140625,-0.104826494140625,0.5954591064453125
-0.1229489453125,-0.107767578125,0.58931494140625
-0.08720669921875,0.0059543359375,0.5654755810546875
-0.046358417968749996,0.021885207519531248,0.479703037109375
0.05722115234375,-0.01830960693359375,0.609467802734375
0.00227048828125,0.0093856005859375,0.9518206787109375
-0.07699462890625,0.0878145068359375,1.20274837890625
-0.21412814453125,-0.0180645166015625,1.4219721875
-0.27685943359375,-0.03546593017578125,1.6281703662109375
-0.34639876953125,0.01183650390625,1.4939818017578126
-0.30919765625,0.03413972412109375,1.1336879638671875
-0.24184662109375,0.06673673828125,0.9528037451171875
-0.30895451171875,-0.06095532470703125,0.8274627783203125
-0.14312994140625,-0.04134809814453125,0.8259881787109375
-0.12027435546875,-0.00409436767578125,0.78199595703125
-0.02690685546875,-0.09771887451171875,0.8171405810546875
-0.09644619140624999,-0.091101435546875,0.978117705078125
-0.103983671875,0.05129604736328125,1.073475146484375
-0.17717017578125,-0.0016434643554687498,1.0034316650390624
-0.170118984375,0.036345537109375,1.1312302978515625
-0.28658521484375,0.014777587890624999,1.19095158203125
-0.310170234375,0.0593840283203125,1.1803836181640626
-0.377278125,0.15717507080078125,1.101984072265625
-0.32402947265625,0.03364954345703125,0.9891772021484375
-0.212912421875,-0.10997339111328125,0.9837703369140625
-0.24281919921875,0.030463369140625002,1.0786362451171876
-0.23844259765625,0.0054641552734375,1.14179826171875
-0.1511537109375,-0.00311400634765625,1.16342572265625
-0.14580453125,0.0897752294921875,1.2049602783203124
-0.23941517578125,0.0133070458984375,1.239613369140625
-0.25205869140625,0.055952763671875,1.118696201171875
-0.26032560546875,-0.057769150390625,0.9061080908203125
-0.11832919921875,-0.14918784423828124,0.7812586572265625
-0.19370400390625,-0.01830960693359375,0.68368931640625
-0.25546271484375,0.010856142578125,0.6829520166015625
-0.3126016796875,-0.0016434643554687498,0.904387724609375
-0.41982841796875,0.01747358154296875,1.0776531787109376
-0.4341739453125,0.055952763671875,1.001711298828125
-0.232363984375,0.01453249755859375,0.7242408056640625
-0.09912078125,-0.0778665576171875,0.591772607421875
-0.034930625,-0.165608896484375,0.569162080078125
-0.0626491015625,-0.1337471533203125,0.7050710107421875
-0.148722265625,-0.201882265625,0.8567090039062499
0.00591765625,-0.28986969482421876,0.921099853515625
-0.010616171875,-0.3327605029296875,0.9203625537109374
-0.055354765624999996,-0.16193254150390626,1.0407881884765624
-0.08428896484375001,-0.096983603515625,0.9960586669921875
-0.23139140625,0.0436982470703125,1.0503730859375
-0.3116291015625,0.2451625,1.2285538720703124
-0.44073884765625,0.279475146484375,1.4136161230468751
-0.3466419140625,0.24344686767578125,1.5033209326171875
-0.13024328125,0.16697868408203126,1.3932174951171874
-0.1200312109375,0.0780108935546875,1.108865537109375
-0.1190586328125,0.05668803466796875,1.0083469970703125
-0.05365275390625,0.0182088525390625,0.951574912109375
-0.0918264453125,0.10423555908203125,0.9518206787109375
-0.22944625,0.07482471923828125,1.0840431103515624
-0.13145900390625,0.1554594384765625,1.042017021484375
-0.15188314453125001,0.112813720703125,0.9700074072265625
-0.14118478515625,0.16599832275390625,1.0668394482421875
-0.14580453125,0.08266760986328126,1.27746142578125
-0.2435486328125,0.05105095703125,1.397887060546875
-0.2649453515625,-0.04183827880859375,1.53305869140625
-0.33764556640625,-0.07566074462890625,1.424429853515625
-0.3777644140625,-0.0768861962890625,1.1604765234375
-0.19346085937500002,-0.1317864306640625,1.1533492919921875
-0.27345541015625,-0.12565917236328125,0.8972604931640625
-0.16695810546875,-0.18055940673828125,0.7950215869140624
-0.02885201171875,-0.24722397705078125,0.7424275341796875
0.018561171875,-0.253841416015625,0.7198170068359375
0.00421564453125,-0.1974706396484375,0.82131861328125
-0.013047617187499999,-0.17761832275390624,0.985982236328125
-0.1375376171875,-0.13595296630859374,1.1975872802734375
-0.19029998046875,-0.12222790771484375,1.26566462890625
-0.240144609375,-0.12075736572265625,1.28729208984375
-0.42906791015625,-0.0960032421875,1.16244265625
-0.42080099609375,-0.14575657958984375,0.8141913818359375
-0.17765646484375,-0.167569619140625,0.5526957177734375
-0.09255587890625,-0.1430605859375,0.5035423974609375
-0.09206958984375,-0.01291761962890625,0.5568737500000001
-0.08185751953125,-0.016593974609375,0.844420673828125
-0.199296328125,0.05913893798828125,1.1263149658203124
-0.2450075,0.20521277587890624,1.169815654296875
-0.1569891796875,0.25177993896484374,1.145238994140625
-0.21412814453125,0.250064306640625,1.0437373876953124
-0.17376615234375,0.23903524169921875,0.8930824609375
-0.1321884375,0.08242251953125,0.8309035107421875
-0.19637859375,0.06453092529296875,0.9002096923828125
-0.2736985546875,0.077520712890625,0.7554531640625
-0.24476435546875,-0.10262068115234375,0.70531677734375
-0.29387955078125,-0.11487519775390626,0.9395323486328125
-0.36244630859375,-0.08987598388671875,1.1641630224609374
-0.29582470703125,0.012816865234374999,1.0899415087890625
-0.25546271484375,0.00178780029296875,0.7593854296875
-0.21972046875,-0.0332601171875,0.804606484375
-0.22968939453125,0.00963069091796875,0.94223578125
-0.187625390625,0.00816014892578125,0.9110234228515625
-0.16525609375,-0.1180613720703125,0.8490902392578125
-0.07115916015625,-0.17614778076171875,0.8309035107421875
-0.1414279296875,-0.02664267822265625,0.926015185546875
-0.16793068359375,-0.06781785400390625,1.0189149609375
-0.32597462890625,-0.07909200927734375,1.2457575341796876
-0.43830740234375,-0.05360261474609375,1.3652001025390625
-0.4088869140625,-0.004829638671875,1.3652001025390625
-0.46286499999999997,-0.00409436767578125,1.0110504296875
-0.18057419921875,-0.10850284912109374,0.6598499560546875
-0.09061072265625,-0.136198056640625,0.6652568212890625
-0.14118478515625,-0.15408965087890625,0.8397511083984375
-0.11784291015625001,-0.19207865234375,0.8004284521484375
-0.1788721875,-0.10580685546875,1.000728232421875
-0.4594609765625,-0.10065995849609374,0.974185439453125
-0.21607330078125,-0.09036616455078125,0.7593854296875
-0.08720669921875,-0.05850442138671875,0.6355190625
-0.11978806640625,-0.09918941650390625,0.6217561328125
-0.08623412109375,0.055462583007812497,0.9609140429687499
-0.2523018359375,0.12163697265625,1.263206962890625
-0.3835998828125,0.07580508056640625,1.2870463232421876
-0.25789416015625,0.0417375244140625,1.343326875
-0.4001337109375,0.11403917236328125,1.4217264208984375
-0.4079143359375,0.1534987158203125,1.3607763037109375
-0.3962433984375,0.1113431787109375,1.207172177734375
-0.36050115234375,-0.15997181884765624,0.9272440185546875
-0.18446451171875,-0.124433720703125,0.601603271484375
-0.12416466796875,-0.1670794384765625,0.41826138671875
-0.01742421875,-0.1523740185546875,0.40326962402343747
0.057707441406250004,-0.09036616455078125,0.6964691796875
-0.014992773437499999,-0.07026875732421875,1.182595517578125
-0.28512634765625,0.0633054736328125,1.4713712744140626
-0.35223423828125,0.0750698095703125,1.7132056103515625
-0.411318359375,0.07065818359375,1.622026201171875
-0.44560173828125,0.1682041357421875,1.465227109375
-0.2075632421875,0.00325834228515625,1.109848603515625
-0.2873146484375,0.12433296630859375,1.1916888818359375
-0.346155625,0.03928662109375,1.309411083984375
-0.335457265625,-0.106787216796875,1.1228742333984374
-0.277102578125,-0.17247142578125,1.0447204541015624
-0.23941517578125,-0.1494329345703125,0.8559717041015625
-0.04003666015625,-0.1092381201171875,0.6092220361328125
0.05649171875,-0.19330410400390624,0.622247666015625
0.0453070703125,-0.26585084228515626,0.7905977880859375
-0.0636216796875,-0.16095218017578125,1.0975602734375
-0.41302037109375,-0.0327699365234375,1.5018463330078125
-0.5440752734375,-0.08301345458984374,1.556160751953125
-0.52486685546875,0.02090484619140625,1.3558609716796874
-0.47721052734375,0.09149086181640625,1.1587561572265626
-0.37411724609375,-0.1053166748046875,0.9395323486328125
-0.159420625,-0.11242429443359375,0.8584293701171875
-0.19224513671875,-0.11561046875,0.6883588818359375
-0.08088494140625,-0.0729647509765625,0.6298664306640624
0.1094972265625,-0.0915916162109375,0.62273919921875
0.0667037890625,-0.02517213623046875,0.7630719287109375
-0.0855046875,0.02923791748046875,1.08084814453125
-0.20586123046875,0.07850107421875,1.431311318359375
-0.28074974609375003,0.0917359521484375,1.5701694482421875
-0.45435494140625,0.153988896484375,1.4000989599609375
-0.40037685546875,0.04712951171875,1.079373544921875
-0.377278125,0.046149150390625,0.9041419580078125
-0.40134943359374997,0.019679394531249998,0.7040879443359375
-0.2931501171875,-0.08889562255859375,0.7050710107421875
-0.33132380859375,-0.20849970458984374,0.8309035107421875
-0.26032560546875,-0.20114699462890626,0.8628531689453125
-0.0733474609375,-0.12075736572265625,0.63846826171875
0.0472522265625,-0.15457983154296875,0.518042626953125
-0.003808124999999999,-0.17247142578125,0.6981895458984375
0.05089939453125,-0.0376717431640625,0.978117705078125
-0.12027435546875,-0.022476142578125,1.453921845703125
-0.13534931640625,-0.02321141357421875,1.6016275732421874
-0.179844765625,-0.10311086181640625,1.660365791015625
-0.42979734375,-0.01487834228515625,1.273037626953125
-0.30555048828125,-0.0562986083984375,0.7271900048828125
-0.298499296875,-0.1210024560546875,0.5748147119140625
-0.26640421875,-0.0347306591796875,0.5969337060546875
-0.18981369140625,0.06109966064453125,0.6524769580078125
-0.3038484765625,0.0956573974609375,0.7279273046875
-0.294608984375,0.03144373046875,0.781504423828125
-0.119544921875,-0.01438816162109375,0.7458682666015625
-0.1278118359375,0.0770305322265625,0.843437607421875
-0.11054857421875,0.10399046875,0.8382765087890625
-0.06143337890625,0.0530116796875,0.9596852099609375
-0.146777109375,-0.04526954345703125,1.0747039794921875
-0.18689595703125,0.019434304199218752,1.1228742333984374
-0.27929087890625,0.03168882080078125,1.008592763671875
-0.34931650390625,0.03806116943359375,0.92650671875
-0.405482890625,-0.00654527099609375,0.93142205078125
-0.4147223828125,0.069677822265625,0.8957858935546875
-0.25205869140625,0.04345315673828125,0.870963466796875
-0.2591098828125,-0.079337099609375,0.89996392578125
-0.1550440234375,-0.07811164794921875,0.975168505859375
-0.121490078125,-0.05017135009765625,1.150154326171875
-0.19419029296875,-0.02762303955078125,1.1892312158203124
-0.2318776953125,0.01110123291015625,1.087729609375
-0.13680818359375,-0.055808427734375,0.87243806640625
-0.21972046875,-0.1023755908203125,0.901438525390625
-0.24573693359375,-0.12222790771484375,1.0294829248046875
-0.3281629296875,-0.1298257080078125,1.041033955078125
-0.376305546875,-0.132276611328125,1.0211268603515624
-0.407428046875,-0.0974737841796875,0.9267524853515625
-0.38335673828125,-0.0621807763671875,0.8141913818359375
-0.16258150390625,-0.0964934228515625,0.914709921875
-0.333512109375,0.00619942626953125,1.148188193359375
-0.232363984375,-0.047965537109375,1.220935107421875
-0.327676640625,-0.1141399267578125,1.2157740087890625
-0.30944080078125,-0.04306373046875,1.0545511181640626
-0.360744296875,-0.0239466845703125,0.740215634765625
-0.1667149609375,-0.02762303955078125,0.5581025830078125
-0.24184662109375,-0.01193725830078125,0.5369666552734375
-0.207076953125,-0.03399538818359375,0.6269172314453125
-0.205131796875,0.1123235400390625,0.8122252490234375
-0.3408064453125,0.0652661962890625,0.8417172412109375
-0.3729015234375,0.04002189208984375,0.923065986328125
-0.2474389453125,0.04688442138671875,1.0358728564453126
-0.2989855859375,0.0211499365234375,1.0751955126953125
-0.34226531250000003,-0.08742508056640624,1.166866455078125
-0.30871136718750003,-0.09404251953125001,1.3590559375
-0.3767918359375,-0.159726728515625,1.297614287109375
-0.27296912109375,-0.11683592041015625,1.2332234375
-0.2581373046875,-0.08203309326171875,0.9405154150390624
-0.23990146484375,-0.16683434814453124,0.6839350830078125
-0.11857234375,-0.12075736572265625,0.6893419482421875
-0.288773515625,-0.217568046875,0.8117337158203125
-0.329621796875,-0.1210024560546875,1.0250591259765625
-0.201241484375,-0.07713128662109375,1.179646318359375
-0.2746711328125,-0.0915916162109375,1.203239912109375
-0.27248283203125,-0.091101435546875,1.1376202294921876
-0.2240970703125,-0.0788469189453125,1.1258234326171874
-0.3369161328125,-0.1229631787109375,0.97664310546875
-0.40134943359374997,-0.15359947021484374,0.82918314453125
-0.37411724609375,-0.11634573974609375,0.888658662109375
-0.30263275390625,-0.1621776318359375,1.0614325830078124
-0.2114535546875,-0.05213207275390625,1.3244028466796876
-0.2396583203125,-0.030073942871093752,1.3391488427734375
-0.26810623046875,0.02580665283203125,1.3553694384765624
-0.29047552734375,-0.05899460205078125,1.2211808740234376
-0.338375,-0.09820905517578125,1.0643817822265624
-0.2970404296875,-0.1509034765625,0.884726396484375
-0.2566784375,-0.13448242431640625,0.7193254736328125
-0.18300564453125,-0.196980458984375,0.682214716796875
-0.2056180859375,-0.2268814794921875,0.841471474609375
-0.24695265625,-0.13056097900390626,1.1577730908203125
-0.34542619140624997,-0.04821062744140625,1.3489795068359376
-0.35588140625,-0.06683749267578125,1.4136161230468751
-0.32111173828125,0.0701680029296875,1.3288266455078124
-0.2600824609375,0.01747358154296875,1.071509013671875
-0.323786328125,-0.12614935302734376,0.9700074072265625
-0.26251390625,-0.1013952294921875,1.066593681640625
-0.29242068359375,-0.13007079833984375,0.98647376953125
-0.0879361328125,-0.0170841552734375,1.163917255859375
-0.36001486328125,-0.30408493408203124,0.967303974609375
-0.3262177734375,-0.249919970703125,0.7851909228515626
-0.2099946875,-0.07051384765625,0.9832788037109375
-0.3320532421875,-0.13546278564453124,1.0117877294921875
-0.27005138671875,-0.07615092529296875,1.1700614208984375
-0.2717533984375,-0.00997653564453125,1.213562109375
-0.33253953125,-0.13105115966796876,1.047915419921875
-0.33521412109375,-0.2717330102539062,0.825742412109375
-0.26616107421875,-0.238155634765625,0.777080625
-0.37119951171875,-0.201882265625,0.70728291015625
-0.30263275390625,-0.10948321044921874,0.7168678076171875
-0.0655668359375,-0.13448242431640625,0.7517666650390625
-0.1190586328125,-0.03399538818359375,0.9886856689453125
-0.38870591796875,0.06060947998046875,1.0186691943359376
-0.22288134765625,-0.0411030078125,0.97271083984375
-0.39502767578125,-0.0210056005859375,0.954032578125
-0.3038484765625,0.093206494140625,0.9719735400390626
-0.19029998046875,0.0015427099609375003,1.078390478515625
-0.2843969140625,-0.0268877685546875,1.3244028466796876
-0.3281629296875,0.05080586669921875,1.206189111328125
-0.22531279296875,-0.17614778076171875,0.903404658203125
-0.13875333984375,-0.15801109619140624,0.7620888623046875
-0.21510072265625,-0.12958061767578125,0.83311541015625
-0.2800203125,-0.18840229736328126,1.0407881884765624
-0.312115390625,-0.0332601171875,1.1705529541015625
-0.2707808203125,-0.04281864013671875,1.0073639306640625
-0.31308796875,0.012816865234374999,0.9036504248046875
-0.2357680078125,-0.024436865234375,0.91372685546875
-0.277102578125,0.08217742919921875,1.1051790380859374
-0.26470220703125,0.08609887451171874,1.3121145166015624
-0.3660934765625,-0.083258544921875,1.2705799609375
-0.27685943359375,-0.0121823486328125,1.12213693359375
-0.30627992187499997,-0.17859868408203125,0.7837163232421875
-0.1735230078125,-0.226391298828125,0.66796025390625
0.02318091796875,-0.23202837646484376,0.7448852001953125
-0.12440781249999999,-0.2278618408203125,1.197341513671875
-0.35199109375,-0.09477779052734375,1.251410166015625
-0.26372962890625,-0.037916833496093746,1.3096568505859374
-0.3690112109375,0.0044837939453125,1.331038544921875
-0.3729015234375,-0.01389798095703125,1.3256316796875
-0.35709712890625,0.0059543359375,1.1572815576171875
-0.32281375,0.06649164794921875,0.8576920703124999
-0.20415921875,-0.083258544921875,0.510178095703125
-0.11079171875,-0.07271966064453125,0.4371854150390625
-0.107873984375,-0.11561046875,0.34944673828125
-0.0198556640625,-0.15359947021484374,0.2695725927734375
-0.02690685546875,-0.05213207275390625,0.54212775390625
-0.13024328125,-0.0004180126953125,0.7065456103515625
-0.2450075,0.1074217333984375,0.9090572900390625
-0.45921783203125,0.05227640869140625,1.212087509765625
-0.5100350390625,0.1152646240234375,1.1730106201171875
-0.34250845703125,0.2201632861328125,1.16735798828125
-0.27442798828125,0.09394176513671874,1.0289913916015625
-0.10714455078125,-0.1180613720703125,0.842454541015625
0.03704015625,-0.05090662109375,0.93437125
-0.12659611328125,-0.21830331787109375,1.079373544921875
-0.2980130078125,-0.23055783447265624,1.118696201171875
-0.41010263671875,-0.0455146337890625,0.9660751416015625
-0.22750109375,0.1113431787109375,0.968287041015625
-0.115654609375,0.17040994873046875,0.891116328125
-0.20002576171875,-0.04772044677734375,0.9660751416015625
-0.2289599609375,0.174576484375,1.2332234375
-0.21266927734375,0.13266603759765624,1.2585373974609375
-0.28366748046875,0.00791505859375,1.3922344287109376
-0.46942990234375,0.06109966064453125,1.361513603515625
-0.4954463671875,0.13952856689453125,1.353649072265625
-0.4040240234375,-0.028113220214843748,1.0857634765625
-0.2338228515625,-0.16242272216796874,0.8043607177734375
-0.1530988671875,-0.19771572998046874,0.702367578125
-0.09912078125,-0.28986969482421876,0.653705791015625
-0.11443888671875,-0.2567825,0.7989538525390625
-0.28512634765625,-0.1553151025390625,0.7905977880859375
-0.16160892578125,-0.1062970361328125,0.7807671240234375
-0.1637972265625,0.14516564453125,0.9483799462890625
-0.16549923828125,0.2632991845703125,0.97369390625
-0.255705859375,0.2632991845703125,1.33841154296875
-0.3262177734375,0.13609730224609376,1.34430994140625
-0.20051205078125,-0.05874951171875,1.41410765625
-0.2785614453125,-0.200901904296875,1.2359268701171875
-0.38481560546875,-0.02272123291015625,0.9186421875
-0.41034578125,-0.07026875732421875,0.700892978515625
-0.37995271484375,-0.1092381201171875,0.519025693359375
-0.02398912109375,-0.05556333740234375,0.7232577392578124
-0.29631099609375,0.1652630517578125,0.9410069482421874
-0.42177357421875,0.0299731884765625,0.8537598046875
-0.25108611328125,-0.1837455810546875,0.97860923828125
-0.20342978515625,-0.107767578125,1.295648154296875
-0.2736985546875,-0.18006922607421874,0.97860923828125
-0.3330258203125,-0.165608896484375,0.766758427734375
-0.1633109375,-0.1945295556640625,0.84491220703125
-0.339347578125,-0.08987598388671875,0.8933282275390625
-0.34007701171875,0.152028173828125,0.9252778857421875
-0.32013916015625,0.09590248779296875,0.849336005859375
-0.28755779296875,0.1436951025390625,0.7031048779296875
-0.0947441796875,0.06502110595703126,0.5251698583984374
-0.1696326953125,-0.12369844970703125,0.6807401171875
-0.15042427734375,0.01159141357421875,0.9518206787109375
-0.3524773828125,-0.14428603759765624,1.2870463232421876
-0.40426716796875,0.06698182861328125,1.394446328125
-0.5392123828125,0.09884357177734375,1.3489795068359376
-0.38919220703125,-0.091101435546875,1.20471451171875
-0.15091056640625,0.01845394287109375,0.983033037109375
-0.2202067578125,-0.0210056005859375,0.847369873046875
-0.30919765625,0.0010525292968750002,0.7655295947265625
-0.25351755859375,0.0686974609375,0.8220559130859375
-0.2552195703125,-0.05262225341796875,0.636993662109375
-0.24038775390625,-0.08742508056640624,0.614383134765625
-0.222638203125,-0.17810850341796874,0.7881401220703125
-0.33253953125,-0.01634888427734375,1.0098215966796875
-0.360744296875,-0.06536695068359374,1.0589749169921876
-0.35904228515625003,-0.0415931884765625,1.025304892578125
-0.352963671875,-0.03546593017578125,0.824759345703125
-0.38700390625000003,-0.045024453125,0.7247323388671875
-0.247925234375,-0.11193411376953125,0.77019916015625
-0.2746711328125,-0.046740085449218746,0.843929140625
-0.20975154296875,0.03364954345703125,0.769707626953125
-0.1093328515625,0.01600303955078125,0.7279273046875
-0.1365650390625,-0.1259042626953125,0.8893959619140624
-0.23649744140625,-0.16070708984375,1.0975602734375
-0.408400625,-0.13007079833984375,1.2015195458984376
-0.32086859375,-0.0366913818359375,1.137374462890625
-0.438550546875,-0.12811007568359375,0.9587021435546875
-0.21753216796875,-0.0724745703125,0.9714820068359376
-0.29679728515625,-0.02713285888671875,1.0879753759765625
-0.34153587890625,-0.15678564453125,1.1617053564453126
-0.268349375,-0.07468038330078125,1.1769428857421875
-0.30166017578125,-0.0239466845703125,0.9818042041015624
-0.36682291015625,-0.05017135009765625,0.8864467626953125
-0.28658521484375,-0.04183827880859375,0.967303974609375
-0.06240595703125,-0.02370159423828125,0.9124980224609375
-0.26567478515625,-0.042328459472656246,1.0466865869140625
-0.33861814453125,-0.013407800292968751,1.0393135888671874
-0.07383375,-0.27124282958984375,0.8970147265625
-0.32986494140625,-0.059729873046875,1.1410609619140626
-0.563040546875,-0.087179990234375,1.1287726318359375
-0.44219771484375,-0.18840229736328126,1.1435186279296874
-0.27005138671875,0.0044837939453125,1.1184504345703126
-0.26859251953125,0.0020328906249999995,1.0029401318359374
-0.47866939453125,-0.08154291259765625,0.9321593505859375
-0.263486484375,-0.08595453857421875,0.86064126953125
-0.31430369140625003,-0.05017135009765625,0.850319072265625
-0.26227076171875,0.0005623486328125002,0.7121982421874999
-0.013777050781250001,-0.170510703125,0.9046334912109375
-0.240144609375,-0.0661022216796875,1.0201437939453124
-0.3262177734375,-0.1151202880859375,1.0594664501953126
-0.10106593750000001,-0.1116890234375,1.0919076416015625
-0.37849384765625,-0.014633251953124999,1.220935107421875
-0.45313921875,0.03512008544921875,1.2391218359375
-0.4643238671875,0.004973974609375,1.1621968896484376
-0.35393625,0.07384435791015626,1.15359505859375
-0.35977171875,0.00791505859375,0.914218388671875
-0.28901666015625,0.00717978759765625,0.972219306640625
-0.1890842578125,-0.04330882080078125,0.9756600390625
-0.36366203125,-0.124433720703125,1.0343982568359376
-0.23163455078125,-0.11193411376953125,1.0481611865234375
-0.18008791015625,-0.132276611328125,0.9198710205078124
-0.22361078125,-0.07173929931640625,0.9159387548828125
-0.30944080078125,-0.057278969726562504,0.9223286865234375
-0.1365650390625,-0.13448242431640625,1.0894499755859375
-0.38481560546875,0.0054641552734375,1.18603625
-0.3884627734375,-0.1038461328125,1.164900322265625
-0.45386865234375,-0.0327699365234375,1.27942755859375
-0.35174794921875,0.0603643896484375,1.2550966650390625
-0.32013916015625,-0.1219828173828125,1.1341794970703125
-0.26372962890625,0.0008074389648437498,0.9604225097656249
-0.35417939453125,-0.095022880859375,1.0083469970703125
-0.452166640625,-0.12958061767578125,1.02776255859375
-0.27540056640625,0.004973974609375,0.9478884130859375
-0.33472783203125,-0.11757119140625,0.9582106103515625
-0.27977716796875,-0.18889247802734374,1.0599579833984376
-0.467727890625,-0.2567825,0.822793212890625
-0.1346198828125,-0.23398909912109375,0.7004014453125
-0.29387955078125,-0.17761832275390624,0.8127167822265625
-0.286828359375,-0.22467566650390625,0.7478343994140625
-0.18835482421875,-0.1053166748046875,1.016948828125
-0.491069765625,-0.012427438964843749,1.2020110791015626
-0.48815203125,0.0093856005859375,1.0786362451171876
-0.3019033203125,-0.01732924560546875,1.0284998583984375
-0.413263515625,0.07433453857421875,1.021372626953125
-0.29193439453125003,-0.00703545166015625,0.8380307421875
-0.20342978515625,-0.0960032421875,0.938795048828125
-0.2736985546875,-0.081297822265625,0.9936010009765625
-0.187625390625,-0.08105273193359375,0.8535140380859375
-0.21607330078125,-0.06267095703125,0.92552365234375
-0.212912421875,0.02776737548828125,1.045949287109375
-0.36585033203125,-0.04821062744140625,0.8515479052734375
-0.26956509765625,-0.1038461328125,1.0702801806640625
-0.299471875,-0.013652890625,1.1725190869140625
-0.37144265625,-0.25482177734375,0.98942296875
-0.4263933203125,-0.1641383544921875,1.08674654296875
-0.30530734375,-0.18006922607421874,0.8500733056640625
-0.3164919921875,-0.220509130859375,0.6283918310546874
-0.2124261328125,-0.1729616064453125,0.8790737646484375
-0.19637859375,-0.07958218994140626,1.100017939453125
-0.36925435546875,-0.1665892578125,0.9105318896484375
-0.253760703125,0.0012976196289062499,1.00416896484375
-0.25546271484375,-0.08595453857421875,0.8500733056640625
-0.25059982421875,-0.098944326171875,0.8397511083984375
-0.23163455078125,-0.132276611328125,0.977626171875
-0.3019033203125,-0.1121792041015625,1.013508095703125
-0.31916658203125,-0.15654055419921875,0.97271083984375
-0.29509527343749997,-0.10409122314453124,1.1558069580078125
-0.49909353515625,-0.15065838623046876,1.1440101611328124
-0.411318359375,-0.10556176513671875,1.056763017578125
-0.265431640625,0.03413972412109375,1.1336879638671875
-0.49325806640625003,-0.07615092529296875,1.0407881884765624
-0.28585578125,-0.010711806640625,0.93732044921875
-0.10714455078125,-0.12222790771484375,0.8240220458984375
-0.2542469921875,-0.1808044970703125,0.8267254785156251
-0.24962724609375,-0.0837487255859375,0.930438984375
-0.271267109375,-0.052867343750000004,0.8795652978515625
-0.3553951171875,-0.15556019287109374,0.8572005371093749
-0.30166017578125,0.02360083984375,0.9267524853515625
-0.31333111328125,-0.09379742919921875,0.938303515625
-0.33618669921875,-0.19967645263671874,1.0496357861328125
-0.3038484765625,-0.10899302978515625,1.0643817822265624
-0.3952708203125,-0.14281549560546875,0.918150654296875
-0.37533296875,-0.20310771728515625,0.8117337158203125
-0.19637859375,-0.13497260498046876,0.7357918359375
-0.27734572265625,-0.0906112548828125,0.7414444677734375
-0.25400384765625,-0.19330410400390624,0.78396208984375
-0.168173828125,-0.20359789794921876,0.96484630859375
-0.300444453125,-0.15801109619140624,0.9599309765625
-0.28220861328125,-0.167569619140625,0.8800568310546875
-0.19905318359375002,-0.2692821069335937,0.762826162109375
-0.2630001953125,-0.2376654541015625,0.7746229589843749
-0.1637972265625,-0.19403937500000001,0.896523193359375
-0.33983386718749997,-0.19600009765625,0.8427003076171875
-0.34931650390625,-0.12933552734375,0.9311762841796875
-0.2892598046875,-0.08644471923828125,0.924049052734375
-0.35855599609375,0.008895419921875,0.9127437890625
-0.2231244921875,0.083402880859375,0.9365831494140625
-0.1949197265625,-0.0803174609375,0.88030259765625
-0.12221951171875,-0.0513968017578125,0.968287041015625
-0.2027003515625,-0.11732610107421874,0.991880634765625
-0.2411171875,-0.189137568359375,0.9719735400390626
-0.23892888671875,-0.1268846240234375,1.057746083984375
-0.32548833984375003,-0.0366913818359375,0.9601767431640625
-0.269321953125,-0.11046357177734376,0.9483799462890625
-0.26227076171875,-0.03546593017578125,1.056271484375
-0.28901666015625,0.0012976196289062499,0.9670582080078125
-0.33253953125,-0.1239435400390625,0.9134810888671875
-0.228473671875,-0.08423890625,0.858183603515625
-0.33642984375,-0.16830489013671876,0.7832247900390625
-0.2177753125,-0.1195319140625,0.8962774267578125
-0.181789921875,-0.20384298828125,0.913235322265625
-0.290718671875,-0.2278618408203125,0.911269189453125
-0.26056875,-0.13717841796875,1.0530765185546875
-0.25594900390624997,-0.2043331689453125,1.0437373876953124
-0.28707150390625,-0.1195319140625,0.9547698779296875
-0.2075632421875,-0.048945898437499996,0.920116787109375
-0.2255559375,-0.16242272216796874,0.8844806298828125
-0.3369161328125,-0.1386489599609375,0.86064126953125
-0.33983386718749997,-0.06487677001953125,0.8294289111328125
-0.2425760546875,-0.093062158203125,0.8235305126953125
-0.39065107421875,-0.10409122314453124,0.809030283203125
-0.32548833984375003,-0.123453359375,0.8220559130859375
-0.31308796875,-0.144040947265625,0.9048792578125
-0.3573402734375,-0.03938737548828125,0.88030259765625
-0.22361078125,-0.1906081103515625,0.8441749072265625
-0.2566784375,-0.212666240234375,0.852285205078125
-0.34348103515625,-0.10605194580078126,0.7672499609375
-0.13243158203125,-0.13301188232421876,0.7960046533203124
-0.3369161328125,0.0250713818359375,0.9267524853515625
-0.22944625,0.09100068115234375,1.0702801806640625
-0.0752926171875,-0.0038492773437499997,1.171781787109375
-0.38141158203125003,0.071638544921875,1.0353813232421876
-0.30263275390625,0.026541923828125,1.031203291015625
-0.26154132812499997,-0.21095060791015624,0.99630443359375
-0.47915568359375,0.02752228515625,1.05135615234375
-0.37411724609375,-0.08497417724609375,1.0786362451171876
-0.40256515625,-0.2004117236328125,1.02088109375
-0.37898013671874997,-0.08227818359375,0.8289373779296875
-0.244034921875,-0.120512275390625,0.72891037109375
-0.31187224609374997,-0.06928839599609375,0.8589209033203125
-0.19953947265625,-0.037916833496093746,0.8146829150390625
-0.18300564453125,-0.226391298828125,0.8820229638671875
-0.3038484765625,-0.16928525146484374,0.9429730810546875
-0.20391607421875,-0.20702916259765625,0.9994993994140625
-0.3835998828125,-0.285212978515625,0.99433830078125
-0.493014921875,-0.0876701708984375,1.0368559228515626
-0.30919765625,-0.19207865234375,1.053813818359375
-0.44146828125,-0.11193411376953125,1.036118623046875
-0.249870390625,-0.061690595703125004,1.133442197265625
-0.185680234375,-0.13987441162109376,1.1852989501953124
-0.25108611328125,-0.09036616455078125,1.1735021533203125
-0.19905318359375002,-0.04870080810546875,1.0058893310546875
-0.008184726562500001,-0.13742350830078126,1.04349162109375
-0.22628537109375,-0.04772044677734375,1.137374462890625
-0.23552486328125,-0.03350520751953125,1.181612451171875
-0.14264365234375,-0.09012107421875,1.353649072265625
-0.339347578125,-0.0592396923828125,1.40722619140625
-0.2814791796875,-0.0533575244140625,1.272054560546875
-0.32111173828125,-0.11144393310546875,1.1390948291015626
-0.42663646484375,-0.03742665283203125,1.27352916015625
-0.33910443359375,-0.1425704052734375,1.2113502099609375
-0.30919765625,-0.19232374267578126,0.9783634716796875
-0.3291355078125,0.02335574951171875,0.9360916162109375
-0.21704587890625,-0.19967645263671874,0.852285205078125
-0.1321884375,-0.1572758251953125,0.7434106005859376
-0.216802734375,-0.1700205224609375,0.72694423828125
-0.23844259765625,-0.20776443359375,0.799199619140625
-0.21412814453125,-0.3004085791015625,0.8869382958984375
-0.31770771484375,-0.3209961669921875,0.937811982421875
-0.16404037109375,-0.22124440185546876,0.959439443359375
-0.35174794921875,-0.218548408203125,0.9518206787109375
-0.4108320703125,-0.19526482666015624,1.0661021484375
-0.331566953125,-0.07615092529296875,1.0543053515625
-0.3884627734375,-0.05752406005859375,0.9717277734375
-0.3719289453125,-0.07713128662109375,0.85867513671875
-0.13243158203125,-0.089140712890625,0.8112421826171875
-0.143859375,-0.1357078759765625,0.7222746728515625
-0.20197091796875,-0.151883837890625,0.84491220703125
-0.0821006640625,-0.25482177734375,0.9439561474609375
-0.234309140625,-0.2553119580078125,1.0289913916015625
-0.21655958984375,-0.22712656982421875,1.0653648486328124
-0.2386857421875,-0.19134338134765624,1.1179589013671876
-0.24962724609375,0.0250713818359375,1.0122792626953125
-0.29776986328125,-0.0661022216796875,0.913235322265625
-0.29485212890625,-0.069533486328125,0.9041419580078125
-0.3135742578125,-0.03129939453125,0.890624794921875
-0.08866556640625001,0.0064445166015625,0.9832788037109375
-0.2411171875,-0.03742665283203125,1.0786362451171876
-0.17668388671875,-0.061690595703125004,1.1518746923828125
-0.14410251953125,-0.13546278564453124,0.9159387548828125
-0.28585578125,-0.33153505126953126,0.8205813134765625
-0.15528716796875,-0.1445311279296875,0.881777197265625
-0.23455228515625,-0.26143921630859374,0.6470700927734375
-0.14361623046875,-0.30114385009765626,0.6682060205078125
-0.060947089843749996,-0.267566474609375,0.8766160986328125
-0.25643529296875,-0.21560732421875,0.8687515673828125
-0.2736985546875,-0.123453359375,0.9272440185546875
-0.251815546875,-0.07909200927734375,0.8771076318359375
-0.20342978515625,-0.13252170166015625,0.6844266162109375
-0.1866528125,-0.14379585693359376,0.8891501953125
-0.413263515625,-0.15801109619140624,1.134425263671875
-0.368524921875,-0.16879507080078124,1.0491442529296875
-0.24233291015625,-0.30653583740234375,1.0464408203125
-0.23163455078125,-0.157766005859375,0.9282270849609375
-0.32548833984375003,-0.16046199951171874,0.6669771875
-0.31527626953125,-0.16462853515625,0.7645465283203124
-0.1706052734375,-0.0612004150390625,0.7360376025390625
-0.228473671875,-0.0425735498046875,0.65616345703125
-0.1404553515625,0.0037485229492187503,0.788385888671875
-0.15480087890625,-0.068553125,0.8235305126953125
-0.308225078125,-0.060710234375,0.8692431005859375
-0.28609892578125,-0.0881603515625,1.213562109375
-0.450221484375,-0.106787216796875,1.1422897949218749
-0.35320681640625,-0.07320984130859375,0.9604225097656249
-0.2878009375,-0.1430605859375,1.0643817822265624
-0.263486484375,-0.11928682373046876,0.98254150390625
-0.3077387890625,-0.06242586669921875,1.0555341845703126
-0.12124693359375,-0.04919098876953125,1.16539185546875
-0.10422681640625,-0.14918784423828124,0.9852449365234375
-0.1715778515625,-0.18840229736328126,0.9660751416015625
-0.14799283203125,-0.2692821069335937,1.148188193359375
-0.29582470703125,-0.2317832861328125,1.086255009765625
-0.24038775390625,-0.20065681396484375,0.9660751416015625
-0.21655958984375,-0.289134423828125,0.9439561474609375
-0.37800755859375,-0.23693018310546876,0.8783364648437499
-0.3913805078125,-0.19918627197265626,0.9572275439453125
-0.19346085937500002,-0.18350049072265626,0.9754142724609375
-0.35709712890625,-0.08791526123046875,0.9149556884765625
-0.32111173828125,-0.122472998046875,0.952557978515625
-0.33278267578125,-0.0827683642578125,0.91569298828125
-0.31576255859375,-0.067572763671875,0.7751144921875
-0.29533841796875,0.01600303955078125,0.697943779296875
-0.20051205078125,-0.1102184814453125,0.5502380517578125
0.03825587890625,-0.14085477294921875,0.6097135693359375
-0.058272500000000005,-0.2288422021484375,1.07494974609375
-0.35417939453125,-0.24673379638671875,1.3273520458984376
-0.49812095703125,-0.22810693115234376,1.3774884326171875
-0.27248283203125,-0.20457825927734374,1.2850801904296876
-0.43052677734375,-0.22075422119140625,1.03366095703125
-0.25205869140625,-0.21291133056640624,0.9166760546875
-0.2931501171875,-0.21560732421875,0.9867195361328125
-0.2707808203125,-0.1729616064453125,1.0481611865234375
-0.3184371484375,-0.0906112548828125,0.984999169921875
-0.1851939453125,-0.16732452880859375,1.0614325830078124
-0.2722396875,-0.19918627197265626,1.02088109375
-0.07261802734375,-0.08154291259765625,1.099034873046875
-0.15966376953125,-0.23889090576171876,1.110831669921875
-0.2902323828125,-0.12075736572265625,1.242562568359375
-0.26056875,-0.012672529296875,1.1710444873046875
-0.30141703125,-0.0749254736328125,1.161951123046875
-0.438550546875,-0.19600009765625,1.143272861328125
-0.29047552734375,-0.10164031982421876,0.9815584374999999
-0.1608794921875,-0.23349891845703125,0.8812856640625
-0.2834243359375,-0.2484494287109375,0.8267254785156251
-0.1715778515625,-0.27246828125,0.8761245654296875
-0.28512634765625,-0.39672907958984377,0.9626344091796875
-0.38481560546875,-0.26389011962890624,1.20864677734375
-0.190543125,-0.20065681396484375,1.2108586767578124
-0.321841171875,-0.14673694091796874,1.1975872802734375
-0.2036729296875,0.008405239257812499,1.1376202294921876
-0.209022109375,-0.06242586669921875,1.060695283203125
-0.2649453515625,-0.046249904785156254,1.0879753759765625
-0.30117388671875,-0.006790361328125,1.1408151953125
-0.42274615234375,-0.1337471533203125,1.1233657666015624
-0.177899609375,-0.2062938916015625,1.1213996337890624
-0.3135742578125,-0.30310457275390623,0.9444476806640625
-0.08988128906250001,-0.23349891845703125,0.9363373828125
-0.1851939453125,-0.27124282958984375,1.0476696533203125
-0.14556138671875,-0.07222947998046875,1.1845616503906249
-0.3446967578125,-0.2758995458984375,1.2469863671875
-0.21510072265625,-0.1827652197265625,1.468667841796875
-0.3213548828125,-0.171491064453125,1.1872650830078124
-0.2143712890625,-0.159726728515625,1.001219765625
-0.2630001953125,-0.24722397705078125,0.8485987060546875
-0.2435486328125,-0.2945264111328125,0.721537373046875
-0.1171134765625,-0.2844777075195313,0.7429190673828125
-0.1210037890625,-0.30016348876953125,0.81640328125
-0.11589775390625,-0.336191767578125,0.859658203125
-0.1944334375,-0.280311171875,1.1258234326171874
-0.2255559375,-0.1219828173828125,1.240596435546875
-0.1385101953125,-0.10016977783203125,1.1907058154296875
-0.257651015625,-0.15801109619140624,1.2098756103515624
-0.3573402734375,-0.12320826904296875,1.1526119921875
-0.24087404296875,-0.0651218603515625,0.9695158740234375
-0.41812640624999997,-0.089140712890625,0.8687515673828125
-0.2027003515625,-0.16854998046875,0.770690693359375
-0.12076064453125,-0.07517056396484376,0.6780366845703125
-0.19759431640625,-0.2327636474609375,0.7298934375
-0.24038775390625,-0.2582530419921875,0.9193794873046874
-0.22385392578125,-0.3486913745117188,0.9351085498046875
-0.317950859375,-0.32173143798828124,0.7672499609375
-0.3135742578125,-0.27246828125,0.5944760400390625
-0.15480087890625,-0.29526168212890624,0.5310682568359375
-0.07748091796875001,-0.21291133056640624,0.54016162109375
-0.14750654296875,-0.0955130615234375,0.80952181640625
-0.26178447265625,-0.16144236083984376,1.048406953125
-0.29144810546875,-0.15261910888671876,1.2029941455078126
-0.24573693359375,-0.07713128662109375,1.1272980322265624
-0.25692158203125,-0.12958061767578125,1.046932353515625
-0.288773515625,-0.144040947265625,0.8795652978515625
-0.2027003515625,-0.1915884716796875,0.7822417236328125
-0.21996361328125,-0.3455052001953125,0.572111279296875
-0.0957167578125,-0.277370087890625,0.38262522949218747
-0.058272500000000005,-0.27026246826171874,0.2975899853515625
-0.028122578125000002,-0.236194912109375,0.2953780859375
-0.04100923828125,-0.23889090576171876,0.4706096728515625
-0.14799283203125,-0.3599655297851562,0.7837163232421875
-0.49860724609375,-0.19967645263671874,1.06315294921875
-0.442440859375,0.101049384765625,1.2246216064453126
-0.23309341796875,0.08021670654296875,1.3519287060546874
-0.38311359375,0.16158669677734375,1.111814736328125
-0.30652306640625,0.1682041357421875,1.3106399169921874
-0.26810623046875,-0.21389169189453125,1.140323662109375
-0.25157240234375,-0.10752248779296875,1.144255927734375
-0.15577345703125,-0.10188541015625,0.9913891015625
-0.084532109375,-0.00850599365234375,0.990897568359375
-0.33618669921875,-0.1808044970703125,1.250427099609375
-0.56328369140625,-0.24624361572265624,1.5219991943359374
-0.54918130859375,-0.1239435400390625,1.4114042236328124
-0.6072928515625,-0.07762146728515625,1.2855717236328126
-0.35272052734375,-0.09722869384765626,1.12312
-0.32402947265625,-0.2337440087890625,0.7539785644531249
-0.24865466796875,-0.161687451171875,0.730384970703125
-0.065080546875,-0.21879349853515626,0.6780366845703125
-0.14021220703125,-0.31290818603515624,0.6318325634765625
-0.16306779296875,-0.3758964013671875,0.6878673486328125
-0.20975154296875,-0.3864352856445312,0.8537598046875
-0.28950294921874997,-0.44378642333984375,0.9442019140625
-0.339347578125,-0.4964808447265625,1.0530765185546875
-0.3933256640625,-0.4959906640625,1.0039231982421875
-0.424934453125,-0.5391265625,1.091170341796875
-0.16890326171875,-0.11364974609375,1.1926719482421875
-0.48499115234375,-0.03742665283203125,1.155069658203125
-0.378250703125,-0.0729647509765625,1.2197062744140625
-0.33642984375,-0.12712971435546874,1.1666206884765624
-0.1317021484375,0.042227705078125,0.8613785693359375
-0.3271903515625,0.02237538818359375,0.623230732421875
-0.11832919921875,-0.3082514697265625,0.6264256982421875
-0.07407689453124999,-0.3486913745117188,0.7409529345703125
0.03096154296875,-0.2700173779296875,1.0520934521484375
-0.038577792968749997,-0.16781470947265625,1.5062701318359375
-0.6121557421875,-0.1004148681640625,1.6404586962890626
-0.5576913671875,-0.20948006591796875,1.3386573095703125
-0.0052669921875,-0.05458297607421875,1.402310859375
-0.432715078125,-0.13056097900390626,1.3386573095703125
-0.51805880859375,-0.1111988427734375,1.295648154296875
-0.15674603515625,-0.23889090576171876,1.0565172509765626
-0.34153587890625,-0.34280920654296876,0.748080166015625
-0.22944625,-0.3023693017578125,0.4720842724609375
-0.0159653515625,-0.3021242114257813,0.6750874853515625
0.00421564453125,-0.4254046484375,1.3170298486328125
-0.12221951171875,-0.6535837475585937,1.6824847851562499
-0.48401857421875,-0.3886410986328125,1.750807900390625
-0.30700935546875,-0.19379428466796875,1.3059703515625
-0.28585578125,-0.298938037109375,0.8176321142578125
-0.3067662109375,-0.1038461328125,0.9127437890625
-0.3233000390625,-0.19207865234375,0.9999909326171875
-0.25351755859375,-0.08889562255859375,1.050864619140625
-0.16355408203125,-0.2004117236328125,1.08084814453125
-0.10957599609375,-0.31364345703125,0.8736668994140625
-0.12635296875,-0.4241791967773437,0.968287041015625
-0.14118478515625,-0.4886379541015625,1.0815854443359374
-0.2221519140625,-0.5300582202148437,1.24403716796875
-0.0091573046875,-0.32614306396484377,1.2904870556640624
-0.17717017578125,-0.23545964111328124,1.400836259765625
-0.0996070703125,-0.11095375244140625,1.6733914208984375
-0.45240978515625,-0.028358310546875,1.548296220703125
-0.52972974609375,-0.0680629443359375,1.41115845703125
-0.39648654296875,0.05374695068359375,1.1813666845703126
-0.16136578125,-0.1592365478515625,0.92650671875
-0.10471310546875,-0.31756490234375,0.9582106103515625
-0.15820490234375,-0.2425672607421875,0.9009469921875
-0.286828359375,-0.38226875,0.876861865234375
-0.3291355078125,-0.34526010986328126,0.8608870361328125
-0.2746711328125,-0.186196484375,0.84097994140625
-0.321841171875,-0.1602169091796875,0.9149556884765625
-0.24816837890625,-0.14624676025390626,0.899472392578125
-0.30409162109375,-0.08938580322265625,0.8697346337890625
-0.205131796875,-0.16536380615234375,0.67385865234375
-0.2367405859375,-0.18399067138671876,0.63453599609375
-0.12173322265625,-0.10654212646484375,0.6362563623046875
-0.23795630859375,-0.24085162841796875,0.6893419482421875
-0.25862359375,-0.25114542236328125,0.9744312060546875
-0.45192349609375,-0.24036144775390625,0.959439443359375
-0.24938410156250002,-0.3945232666015625,0.7556989306640625
-0.3388612890625,-0.23006765380859376,0.7443936669921875
-0.25862359375,-0.257762861328125,0.6283918310546874
-0.15334201171875,-0.3111925537109375,0.5667044140624999
-0.1540714453125,-0.139139140625,0.5900522412109375
-0.10422681640625,-0.17418705810546875,0.61094240234375
-0.13291787109375,-0.265605751953125,0.6146289013671875
-0.06386482421875,-0.16536380615234375,0.7409529345703125
-0.2211793359375,-0.19036302001953126,0.80067421875
-0.3135742578125,-0.35457354248046874,0.7908435546875
-0.32281375,-0.16487362548828124,0.862115869140625
-0.1813036328125,-0.083258544921875,0.6878673486328125
-0.24306234375,-0.2798209912109375,0.7318595703125
-0.21169669921875,-0.200901904296875,0.787402822265625
-0.22190876953125,-0.0768861962890625,0.7846993896484376
-0.12562353515625,-0.027868129882812502,0.947642646484375
-0.15066742187499998,0.07286399658203124,1.069542880859375
-0.30214646484375,0.13315621826171875,1.1656376220703124
-0.103983671875,0.143204921875,1.15359505859375
-0.18592337890625,-0.16977543212890625,1.063644482421875
-0.2630001953125,-0.15065838623046876,1.026287958984375
-0.27418484375,-0.11928682373046876,1.0806023779296874
-0.29387955078125,-0.2739388232421875,0.9827872705078124
-0.29776986328125,-0.3550637231445313,0.9166760546875
-0.41885583984375,-0.3621713427734375,0.897506259765625
-0.4730770703125,-0.327368515625,0.8574463037109374
-0.44049570312499997,-0.230312744140625,0.8144371484375
-0.26056875,-0.157766005859375,0.7522581982421875
-0.10544253906250001,-0.13717841796875,0.6224934326171875
-0.0723748828125,-0.15654055419921875,0.7242408056640625
-0.092312734375,-0.17565760009765624,0.8407341748046875
-0.06021765625,-0.2562923193359375,0.989914501953125
-0.1706052734375,-0.30408493408203124,1.0545511181640626
-0.2425760546875,-0.2435476220703125,1.2128248095703125
-0.3656071875,-0.3158492700195312,1.1322133642578125
-0.26907880859375,-0.2756544555664063,1.1764513525390625
-0.446331171875,-0.1425704052734375,1.20962984375
-0.3057936328125,-0.22026404052734375,1.157035791015625
-0.20804953125,-0.0925719775390625,1.1213996337890624
-0.39089421875,-0.07517056396484376,1.0535680517578125
-0.33083751953125,-0.15605037353515624,1.0545511181640626
-0.35101851562499997,-0.03497574951171875,1.024813359375
-0.25643529296875,-0.05850442138671875,0.847369873046875
0.0029999218749999987,-0.13546278564453124,0.762826162109375
-0.00891416015625,-0.10164031982421876,0.9206083203125
-0.15382830078125,-0.1180613720703125,1.20668064453125
-0.27151025390625,-0.2837424365234375,1.3558609716796874
-0.268349375,-0.3670731494140625,1.4399131494140625
-0.16938955078125,-0.13693332763671875,1.3003177197265625
-0.3592854296875,-0.11364974609375,0.96877857421875
-0.36098744140625,-0.12149263671875,0.9223286865234375
-0.4847480078125,-0.19477464599609376,0.9872110693359375
-0.4837754296875,-0.06487677001953125,1.0029401318359374
-0.30919765625,-0.0033590966796874996,1.07101748046875
-0.2688356640625,-0.12516899169921875,0.910286123046875
-0.13680818359375,-0.036201201171875,0.861132802734375
-0.0821006640625,-0.24281235107421875,0.861132802734375
-0.13802390625,-0.14967802490234375,1.0530765185546875
-0.057543066406249996,-0.2474690673828125,1.040542421875
-0.1949197265625,-0.2827620751953125,1.1872650830078124
-0.27880458984375,-0.17663796142578125,1.2155282421875
-0.403537734375,-0.11634573974609375,1.0014655322265624
-0.3330258203125,-0.10016977783203125,0.89996392578125
-0.27613,-0.04183827880859375,0.8962774267578125
-0.19078626953125,-0.05115171142578125,0.9144641552734375
-0.2513292578125,-0.02468195556640625,1.178663251953125
-0.15431458984375,0.02286556884765625,1.328089345703125
-0.18470765625,-0.2719781005859375,1.2732833935546874
-0.27613,-0.14575657958984375,1.418531455078125
-0.32475890625,-0.24036144775390625,1.243545634765625
-0.3378887109375,-0.36094589111328124,0.952557978515625
-0.17522501953125,-0.26487048095703125,0.77019916015625
-0.08526154296874999,-0.1513936572265625,0.589806474609375
0.00956482421875,-0.0710040283203125,0.54802615234375
-0.1540714453125,-0.07443529296875,0.830657744140625
-0.18300564453125,-0.045024453125,1.0201437939453124
-0.35272052734375,0.040266982421875,1.1838243505859376
-0.38919220703125,-0.0009081933593750001,1.348733740234375
-0.22628537109375,-0.14869766357421876,1.133442197265625
-0.14507509765624998,-0.15801109619140624,1.0184234277343749
-0.21607330078125,0.00423870361328125,1.166374921875
-0.2309051171875,-0.1739419677734375,1.13589986328125
-0.38287044921875,-0.2111956982421875,1.0982975732421876
-0.210967265625,-0.071494208984375,1.0427543212890624
-0.21461443359375,-0.20972515625,0.737266435546875
-0.1890842578125,-0.0925719775390625,0.7397241015625
-0.2474389453125,-0.17614778076171875,0.7606142626953125
-0.21655958984375,-0.20727425292968749,0.722520439453125
-0.25351755859375,-0.2504101513671875,0.726452705078125
-0.06021765625,-0.10752248779296875,0.9363373828125
-0.228473671875,-0.0700236669921875,1.115747001953125
-0.41545181640625,-0.02125069091796875,1.1710444873046875
-0.28901666015625,-0.06634731201171876,1.2206893408203126
-0.4040240234375,-0.023456503906250002,1.1801378515625
-0.24525064453125,-0.07909200927734375,0.9837703369140625
-0.17036212890625,-0.22737166015625,0.9097945898437501
-0.25862359375,-0.14330567626953125,0.810996416015625
-0.22142248046875002,-0.24330253173828126,0.64338359375
-0.17960162109375,-0.23791054443359375,0.6092220361328125
-0.11200744140625,-0.23545964111328124,0.578992744140625
-0.088422421875,-0.17663796142578125,0.6996641455078125
-0.16987583984375,-0.03522083984375,1.012525029296875
-0.3135742578125,-0.10997339111328125,1.1990618798828125
-0.29922873046875,-0.2131564208984375,1.248460966796875
-0.37606240234375,-0.16242272216796874,1.1447474609375
-0.299471875,-0.0994345068359375,0.9198710205078124
-0.300444453125,-0.1376685986328125,0.78199595703125
-0.1657423828125,-0.17516741943359376,0.701876044921875
-0.21461443359375,-0.11781628173828125,0.861132802734375
-0.216802734375,-0.036201201171875,1.09854333984375
-0.2980130078125,-0.047965537109375,1.1617053564453126
-0.1686601171875,0.0064445166015625,1.0147369287109376
-0.148722265625,0.05815857666015625,0.9906518017578125
-0.26616107421875,-0.1778634130859375,1.023338759765625
-0.34688505859375,-0.208744794921875,0.94223578125
-0.34007701171875,0.010611052246093749,0.902913125
-0.38821962890625,-0.13840386962890625,0.8146829150390625
-0.263486484375,-0.16291290283203125,0.5753062451171875
-0.15966376953125,-0.21144078857421875,0.47036390625
-0.08817927734375,-0.2709977392578125,0.539670087890625
-0.2800203125,-0.249919970703125,0.75250396484375
-0.27296912109375,-0.25261596435546874,0.895540126953125
-0.14993798828125,-0.13105115966796876,0.94223578125
-0.29679728515625,-0.3839843823242188,0.6500192919921874
0.04457763671875,-0.2528610546875,0.663044921875
