ax,ay,az
-0.28464005859375,-0.0033590966796874996,0.83213234375
-0.39210994140625,-0.02909358154296875,0.9503460791015625
-0.3573402734375,0.06992291259765625,0.9503460791015625
-0.46602587890625,-0.00262382568359375,0.8891501953125
-0.31819400390625,-0.00801581298828125,1.003677431640625
-0.3344846875,0.08903995849609375,1.0014655322265624
-0.40572603515625,-0.042083369140625,0.967303974609375
-0.28074974609375003,0.0701680029296875,0.961897109375
-0.33861814453125,0.021640117187500002,0.85867513671875
-0.3359435546875,-0.0011532836914062497,1.0201437939453124
-0.38141158203125003,0.06551128662109375,0.975168505859375
-0.43782111328125,-0.02223105224609375,0.8933282275390625
-0.27807515625,-0.0259074072265625,0.8633447021484375
-0.3563676953125,0.016738310546875,0.7625803955078125
-0.32159802734375,-0.04870080810546875,0.9007012255859375
-0.33521412109375,0.0270321044921875,0.858183603515625
-0.38700390625000003,-0.0567887890625,0.9444476806640625
-0.2955815625,0.02360083984375,0.8992266259765624
-0.4623787109375,0.00570924560546875,0.839996875
-0.29509527343749997,-0.013652890625,1.0184234277343749
-0.33667298828125003,0.01600303955078125,0.9206083203125
-0.356853984375,0.00570924560546875,1.0071181640625
-0.29387955078125,0.042227705078125,0.895540126953125
-0.3952708203125,-0.0016434643554687498,0.9179048876953125
-0.33667298828125003,-0.02909358154296875,0.9704989404296875
-0.36196001953125,0.05864875732421875,0.92650671875
-0.4225030078125,0.01208159423828125,0.8102591162109375
-0.27515742187500003,-0.030319033203124998,0.8972604931640625
-0.3145468359375,-0.00997653564453125,0.9660751416015625
-0.35126166015625,-0.0411030078125,0.9763973388671875
-0.40062,0.024581201171875,1.0343982568359376
-0.3106565234375,-0.0016434643554687498,0.9537868115234375
-0.3339983984375,-0.0170841552734375,0.9085657568359375
-0.3670660546875,-0.0317895751953125,0.984016103515625
-0.35369310546875,0.04737460205078125,0.981066904296875
-0.3544225390625,0.059874208984374996,0.93928658203125
-0.31381740234375,-0.022476142578125,0.946659580078125
-0.27977716796875,0.05497240234375,0.928964384765625
-0.34688505859375,0.03757098876953125,1.0267794921875
-0.3748466796875,-0.0337502978515625,0.993355234375
-0.37946642578125,0.0054641552734375,0.9638632421875
-0.33667298828125003,0.02482629150390625,0.98647376953125
-0.36974064453125,0.0020328906249999995,0.97271083984375
-0.41618125,0.0466393310546875,0.9660751416015625
-0.2989855859375,0.015022678222656249,0.9677955078125
-0.38432931640625,-0.0151234326171875,0.86457353515625
-0.360744296875,-0.05360261474609375,0.91077765625
-0.3252451953125,0.00325834228515625,0.9196252539062499
-0.33570041015625,-0.0347306591796875,0.8889044287109376
-0.36876806640625,-0.07443529296875,0.9127437890625
-0.30166017578125,-0.042328459472656246,0.9616513427734374
-0.42371873046874997,-0.00850599365234375,0.8633447021484375
-0.2814791796875,-0.02027032958984375,0.8554801708984375
-0.361716875,-0.0259074072265625,0.851302138671875
-0.3952708203125,0.024581201171875,0.9965502001953125
-0.3427516015625,0.0280124658203125,1.0230929931640624
-0.36730919921875,0.05031568603515625,1.0589749169921876
-0.361716875,0.06011929931640625,1.02972869140625
-0.35806970703125,0.0289928271484375,0.9675497412109375
-0.29582470703125,0.02531647216796875,0.8520394384765625
-0.34056330078125,-0.01095689697265625,0.749063232421875
-0.32159802734375,-0.03129939453125,0.67385865234375
-0.366579765625,-0.050661530761718754,0.59914560546875
-0.34445361328125,-0.151883837890625,0.7328426367187499
-0.36755234375,0.063795654296875,1.07888201171875
-0.41204779296875,0.040266982421875,1.174239453125
-0.36730919921875,0.14516564453125,1.1346710302734375
-0.32475890625,0.126538779296875,1.0604495166015624
-0.2099946875,0.0162481298828125,0.900455458984375
-0.22482650390625,-0.0553182470703125,0.654688857421875
-0.3592854296875,-0.060710234375,0.8097675830078125
-0.3578265625,-0.0778665576171875,0.946659580078125
-0.40134943359374997,0.0221302978515625,1.11427240234375
-0.3203823046875,0.1093824560546875,1.195375380859375
-0.28123603515625,0.08168724853515624,1.2221639404296876
-0.31138595703125,0.136342392578125,0.9002096923828125
-0.41545181640625,0.0530116796875,0.7812586572265625
-0.37922328125,-0.0960032421875,0.6755790185546875
-0.3213548828125,-0.05997496337890625,0.8530225048828125
-0.4098594921875,-0.0553182470703125,0.980083837890625
-0.3077387890625,0.016738310546875,1.1054248046875
-0.31333111328125,0.089285048828125,1.0663479150390625
-0.31235853515625,0.146146005859375,0.9341254833984375
-0.2450075,0.0760501708984375,0.8997181591796874
-0.3456693359375,-0.026397587890625,0.7829790234375
-0.3826273046875,-0.089140712890625,0.9341254833984375
-0.3485870703125,-0.00948635498046875,1.0707717138671875
-0.35369310546875,-0.03129939453125,1.055779951171875
-0.35977171875,0.0780108935546875,1.0250591259765625
-0.43247193359375,0.01992448486328125,0.9717277734375
-0.40280830078125,-0.0004180126953125,0.83508154296875
-0.26129818359375,0.05031568603515625,0.701876044921875
-0.37752126953125,-0.1190417333984375,0.7117067089843749
-0.32257060546875,-0.05090662109375,0.9297016845703125
-0.4332013671875,-0.015368522949218751,1.10444173828125
-0.28755779296875,-0.04281864013671875,1.0643817822265624
-0.26616107421875,0.1510478125,0.9498545458984375
-0.33181009765625,0.14908708984375,0.9080742236328125
-0.3680386328125,-0.02713285888671875,0.7630719287109375
-0.39989056640625,-0.06095532470703125,0.9127437890625
-0.33618669921875,-0.0121823486328125,1.114763935546875
-0.39162365234375,-0.03693647216796875,1.0071181640625
-0.17522501953125,0.00570924560546875,1.0157199951171876
-0.4001337109375,-0.0170841552734375,0.942727314453125
-0.4745359375,0.0682072802734375,0.8191067138671875
-0.39940427734375,-0.055808427734375,0.8380307421875
-0.463837578125,-0.112669384765625,0.760860029296875
-0.39648654296875,-0.048455717773437504,0.756927763671875
-0.30749564453125,-0.08889562255859375,0.8608870361328125
-0.325731484375,0.05129604736328125,0.884726396484375
-0.356853984375,0.0270321044921875,0.8200897802734375
-0.28804408203125,0.0995788427734375,0.65223119140625
-0.36050115234375,0.01208159423828125,0.7134270751953125
-0.3369161328125,-0.05409279541015625,0.9031588916015625
-0.42931105468749997,-0.01291761962890625,1.1341794970703125
-0.411318359375,0.0544822216796875,1.2437914013671876
-0.29631099609375,0.03708080810546875,1.3312843115234374
-0.3446967578125,-0.012427438964843749,1.32858087890625
-0.4419545703125,-0.073454931640625,1.049881552734375
-0.41399294921875,-0.1626678125,0.9591936767578125
-0.45240978515625,-0.10654212646484375,0.787402822265625
-0.39356880859375,-0.08693489990234375,0.8313950439453125
-0.31965287109375,-0.1582561865234375,0.7129355419921874
-0.34591248046875,-0.17712814208984376,0.698926845703125
-0.23114826171875,-0.17173615478515625,0.7271900048828125
-0.32743349609375,-0.2729584619140625,0.7807671240234375
-0.471618203125,-0.14722712158203125,0.8431918408203125
-0.45775896484375,-0.09796396484375,0.8608870361328125
-0.41618125,-0.10948321044921874,0.8154202148437499
-0.26956509765625,-0.042083369140625,0.8889044287109376
-0.415208671875,-0.09404251953125001,1.033169423828125
-0.4020788671875,-0.09796396484375,1.1489254931640625
-0.32111173828125,-0.051886982421875,1.2310115380859374
-0.42615017578125003,0.10031411376953125,1.3303012451171874
-0.45168035156249997,-0.015368522949218751,1.195375380859375
-0.3651208984375,0.04590406005859375,1.0452119873046875
-0.2523018359375,-0.00360418701171875,0.8191067138671875
-0.43344451171875,-0.18448085205078124,0.6623076220703125
-0.29290697265625,-0.15801109619140624,0.6942572802734375
-0.42323244140625,-0.196980458984375,0.80165728515625
-0.442440859375,-0.14771730224609375,0.8812856640625
-0.39016478515624997,-0.0955130615234375,0.930438984375
-0.36390517578125,-0.01879978759765625,0.879811064453125
-0.30141703125,-0.15261910888671876,0.7987080859375
-0.2736985546875,-0.05556333740234375,0.7714279931640625
-0.40062,-0.16487362548828124,1.054796884765625
-0.3680386328125,-0.20065681396484375,1.2845886572265626
-0.40086314453125,-0.10703230712890625,1.2639442626953126
-0.5557462109375,-0.17835359375,1.0997721728515626
-0.34785763671875003,-0.13105115966796876,0.9127437890625
-0.40475345703125,-0.03522083984375,0.856217470703125
-0.3242726171875,0.0495804150390625,0.9677955078125
-0.28269490234375,-0.11928682373046876,0.89013326171875
-0.4127772265625,-0.09771887451171875,1.01203349609375
-0.2649453515625,-0.104826494140625,1.0103131298828125
-0.40329458984375,-0.25090033203125,0.820335546875
-0.38481560546875,-0.1043363134765625,0.984016103515625
-0.41423609375,-0.16070708984375,0.954032578125
-0.37363095703125,-0.1102184814453125,1.0314490576171875
-0.2814791796875,-0.1195319140625,1.0899415087890625
-0.502740703125,-0.224430576171875,0.9626344091796875
-0.22628537109375,-0.20604880126953126,0.8476156396484374
-0.218747890625,-0.161687451171875,0.7252238720703125
-0.17230728515625,-0.12541408203125,0.7945300537109374
-0.2338228515625,-0.0739451123046875,0.9070911572265625
-0.3456693359375,-0.0332601171875,1.045949287109375
-0.4200715625,0.0069346972656249995,1.22437583984375
-0.6119125976562501,0.0059543359375,1.1715360205078125
-0.36536404296875,0.05497240234375,1.0776531787109376
-0.36633662109375,0.0530116796875,0.8073099169921875
-0.3072525,0.13536203125,0.8569547705078124
-0.29971501953125,0.0750698095703125,0.81148794921875
-0.37800755859375,-0.036201201171875,0.7994453857421875
-0.27151025390625,0.06624655761718751,0.984016103515625
-0.290718671875,-0.12075736572265625,1.002694365234375
-0.33326896484375,-0.19918627197265626,1.05725455078125
-0.29752671875000003,-0.1474722119140625,0.9768888720703125
-0.42031470703125,-0.1729616064453125,0.79182662109375
-0.4127772265625,-0.15507001220703126,0.7552073974609375
-0.4001337109375,-0.0582593310546875,0.6352732958984375
-0.25497642578125,0.01649322021484375,0.67385865234375
-0.214857578125,-0.0719843896484375,0.7645465283203124
-0.33764556640625,0.00791505859375,1.0108046630859375
-0.37411724609375,-0.08619962890625,1.2069264111328124
-0.5080898828125,-0.03742665283203125,1.2037314453125
-0.42225986328125,-0.02419177490234375,1.2162655419921875
-0.4059691796875,-0.114630107421875,0.9097945898437501
-0.30627992187499997,-0.0376717431640625,0.67779091796875
-0.16404037109375,0.02433611083984375,0.5153391943359376
-0.257651015625,-0.108747939453125,0.59717947265625
-0.42055785156250003,-0.138158779296875,0.686146982421875
-0.25546271484375,-0.0200252392578125,0.7119524755859374
-0.28123603515625,-0.050661530761718754,0.8078014501953125
-0.3889490625,0.19148771728515626,1.0801108447265624
-0.44803318359375,0.10570610107421875,1.23617263671875
-0.27929087890625,0.10570610107421875,1.4200060546875
-0.53653779296875,0.01894412353515625,1.046932353515625
-0.31235853515625,-0.11144393310546875,0.8485987060546875
-0.30992708984375,-0.12958061767578125,0.5998829052734375
-0.33910443359375,0.004973974609375,0.4998558984375
-0.2211793359375,0.1574201611328125,0.72694423828125
-0.4011062890625,0.1584005224609375,0.796250419921875
-0.47404964843749997,-0.17271651611328126,0.7729025927734375
-0.22725794921875,-0.11683592041015625,0.755944697265625
-0.1414279296875,0.053992041015625,0.716622041015625
-0.08744984375,0.0623251123046875,0.9820499707031249
-0.3233000390625,0.06992291259765625,1.4949648681640624
-0.62212466796875,0.21967310546875,1.65004359375
-0.47866939453125,0.10399046875,1.4413877490234375
-0.52292169921875,-0.013407800292968751,1.2555881982421875
-0.24962724609375,0.01698340087890625,1.070525947265625
-0.24622322265625,-0.0494360791015625,1.01989802734375
-0.4059691796875,-0.1268846240234375,1.0191607275390624
-0.36244630859375,-0.18448085205078124,0.9397781152343749
-0.4200715625,-0.2160975048828125,0.7783094580078125
-0.3135742578125,-0.08742508056640624,0.747097099609375
-0.284883203125,-0.03693647216796875,0.655180390625
-0.2124261328125,-0.04870080810546875,0.71514744140625
-0.3077387890625,-0.0072805419921875,0.88423486328125
-0.36779548828124997,0.0255615625,1.08084814453125
-0.4390368359375,0.16109651611328124,1.1361456298828125
-0.49617580078125,0.13805802490234376,0.9129895556640625
-0.33326896484375,-0.1043363134765625,1.0555341845703126
-0.32986494140625,-0.17859868408203125,1.18112091796875
-0.038577792968749997,-0.1484525732421875,1.013508095703125
-0.29193439453125003,-0.19281392333984376,0.8360646093749999
-0.3967296875,-0.079337099609375,0.7827332568359375
-0.23747001953125,-0.1396293212890625,0.5998829052734375
-0.4215304296875,0.07384435791015626,0.928964384765625
-0.54188697265625,0.220653466796875,1.359547470703125
-0.349073359375,0.2495741259765625,1.194392314453125
-0.37071322265625,0.2726126171875,0.921099853515625
-0.2542469921875,0.20619313720703125,0.86850580078125
-0.0869635546875,0.12090170166015625,0.6357648291015625
-0.10519939453125,-0.0371815625,0.6136458349609375
-0.25351755859375,0.04051207275390625,0.938795048828125
-0.3291355078125,0.01208159423828125,1.130492998046875
-0.46213556640625,0.1035002880859375,1.063644482421875
-0.24136033203125,-0.21242114990234376,0.9252778857421875
-0.17668388671875,-0.293055869140625,0.799199619140625
-0.207076953125,-0.40457197021484376,0.9717277734375
-0.51076447265625,-0.33006450927734376,1.3307927783203124
-0.7181667578125,-0.2396261767578125,1.1376202294921876
-0.4944737890625,-0.18202994873046874,0.7424275341796875
-0.129270703125,0.0172284912109375,0.531805556640625
-0.0006472460937500014,-0.047965537109375,0.2779286572265625
0.01783173828125,-0.07026875732421875,0.2970984521484375
0.0326635546875,-0.0141430712890625,0.645841259765625
-0.2659179296875,0.07678544189453125,0.779538291015625
-0.4370916796875,0.062080021972656246,0.86850580078125
-0.5041995703125,0.06502110595703126,1.3715900341796874
-0.6831539453125,-0.09624833251953124,1.4173026220703124
-0.4283384765625,-0.0239466845703125,1.2142994091796875
-0.236254296875,0.22383964111328125,1.1887396826171874
-0.4448723046875,0.1456558251953125,0.9493630126953125
-0.3271903515625,0.1858506396484375,1.29122435546875
-0.44511544921875,0.09247122314453125,1.0747039794921875
-0.27588685546875,0.04835496337890625,0.6760705517578125
-0.2279873828125,0.06845237060546874,0.5767808447265625
-0.39478453125,-0.0016434643554687498,0.51656802734375
-0.36439146484375,-0.07443529296875,0.2442586328125
-0.3096839453125,-0.120512275390625,0.4273547509765625
-0.37995271484375,0.00816014892578125,0.8746499658203125
-0.55404419921875,0.03855135009765625,1.117713134765625
-0.7473441015625,0.1789881103515625,1.6262042333984374
-0.88034416015625,0.10080429443359375,1.6866628173828124
-0.36876806640625,-0.17761832275390624,1.3696239013671876
-0.2075632421875,-0.13399224365234375,0.9206083203125
-0.13972591796875,-0.1484525732421875,0.5802215771484375
-0.07650833984375,-0.0847290869140625,0.42415978515624997
-0.01426333984375,-0.09036616455078125,0.417769853515625
-0.26154132812499997,0.0201695751953125,0.44971951171875
-0.32305689453124997,0.138303115234375,0.6534600244140625
-0.2970404296875,0.2137909375,0.8353273095703125
-0.1492085546875,0.12580350830078124,1.1621968896484376
-0.02933830078125,0.05570767333984375,1.6802728857421876
-0.4798851171875,-0.24477307373046875,1.842724609375
-0.50103869140625,-0.173451787109375,1.451955712890625
-0.4332013671875,-0.20555862060546876,0.8918536279296875
-0.26032560546875,-0.2732035522460938,0.6844266162109375
-0.36196001953125,-0.3749160400390625,0.8537598046875
-0.37898013671874997,-0.07370002197265625,1.154086591796875
-0.46748474609375,0.052031318359375,0.9808211376953125
-0.485234296875,0.09296140380859375,0.623722265625
-0.3889490625,0.05864875732421875,0.4425922802734375
-0.341292734375,0.00816014892578125,0.2560554296875
-0.03274232421875,-0.108747939453125,0.3472348388671875
0.01588658203125,-0.13595296630859374,0.56965361328125
-0.257651015625,-0.0759058349609375,0.89209939453125
-0.55258533203125,-0.044044091796875,1.0031858984375
-0.6442508203125,0.118695888671875,1.2786902587890625
-0.68485595703125,0.208889130859375,1.39542939453125
-0.55307162109375,0.11550971435546875,1.2958939208984375
-0.279047734375,0.03315936279296875,1.2939277880859374
-0.2566784375,0.13021513427734374,0.9380577490234375
-0.3126016796875,-0.15948163818359376,0.8299204443359375
-0.16720125,-0.2450181640625,0.9832788037109375
0.0076196679687500005,-0.2092349755859375,1.0943653076171875
-0.273212265625,-0.3278586962890625,1.381174931640625
-0.42979734375,-0.1004148681640625,1.2683680615234374
-0.467727890625,-0.13987441162109376,0.8567090039062499
-0.37557611328125,-0.12467881103515625,0.690079248046875
-0.387976484375,-0.17614778076171875,0.5320513232421875
-0.401592578125,-0.20359789794921876,0.569162080078125
-0.5187882421875,-0.15286419921875,0.7065456103515625
-0.456056953125,-0.0710040283203125,0.7488174658203125
-0.41010263671875,-0.13644314697265625,0.859166669921875
-0.2532744140625,-0.09036616455078125,0.974185439453125
-0.2338228515625,0.02678701416015625,1.0604495166015624
-0.2805066015625,0.10325519775390625,1.155069658203125
-0.2377131640625,0.16624341308593749,1.2300284716796874
-0.3904079296875,0.0956573974609375,0.8967689599609375
-0.4156949609375,0.017718671875,0.67975705078125
-0.40280830078125,-0.17369687744140624,0.6399428613281251
-0.29776986328125,-0.15801109619140624,0.6342902294921875
-0.4001337109375,-0.2523708740234375,0.7266984716796875
-0.50201126953125,-0.14698203125,0.7964961865234375
-0.49666208984375,-0.07173929931640625,0.9994993994140625
-0.607779140625,-0.01169216796875,1.202256845703125
-0.46481015625,0.0231106591796875,1.2432998681640626
-0.35855599609375,-0.00777072265625,1.2167570751953125
-0.3242726171875,-0.12026718505859375,1.101984072265625
-0.19808060546875,-0.06242586669921875,0.9449392138671875
-0.18154677734375,-0.08963089355468751,0.740215634765625
-0.21583015625000002,-0.1572758251953125,0.600128671875
-0.38092529296875,-0.15752091552734376,0.7323511035156249
-0.50103869140625,-0.18448085205078124,0.80165728515625
-0.4040240234375,-0.21095060791015624,0.89996392578125
-0.43782111328125,-0.289134423828125,1.0108046630859375
-0.5129527734375,-0.19526482666015624,0.9626344091796875
-0.47818310546875,-0.330309599609375,0.8078014501953125
-0.4215304296875,-0.296977314453125,0.725469638671875
-0.32889236328125,-0.2749191845703125,0.78789435546875
-0.27831830078124997,-0.2058037109375,0.822793212890625
-0.17303671874999998,-0.09477779052734375,0.8633447021484375
-0.24573693359375,-0.08840544189453126,0.8200897802734375
-0.26154132812499997,-0.13105115966796876,0.883251796875
-0.32305689453124997,-0.02615249755859375,0.8930824609375
-0.45532751953125,0.026051743164062502,0.8220559130859375
-0.366579765625,-0.025662316894531252,0.7507835986328125
-0.43587595703125,-0.14036459228515624,0.7279273046875
-0.35126166015625,-0.204823349609375,0.8530225048828125
-0.42201671875,-0.12811007568359375,1.0447204541015624
-0.471618203125,-0.1273748046875,1.16539185546875
-0.46164927734375,-0.00654527099609375,1.0201437939453124
-0.3811684375,-0.13693332763671875,0.7979707861328125
-0.2853694921875,-0.03914228515625,0.761843095703125
-0.1871391015625,-0.05556333740234375,0.7515208984375
-0.1774133203125,-0.06193568603515625,0.8107506494140625
-0.29047552734375,-0.07811164794921875,0.876861865234375
-0.14556138671875,-0.2180582275390625,0.9677955078125
-0.43004048828125,-0.09281706787109376,1.11623853515625
-0.54067125,-0.1665892578125,1.2413337353515626
-0.37946642578125,-0.25653740966796873,1.2580458642578125
-0.31965287109375,-0.1626678125,1.243545634765625
-0.57884494140625,-0.05115171142578125,1.244528701171875
-0.41034578125,-0.275409365234375,1.0221099267578124
-0.2873146484375,-0.2288422021484375,0.7768348583984375
-0.0996070703125,-0.30580056640625,0.6431378271484375
-0.10082279296875,-0.2151171435546875,0.498381298828125
-0.09304216796875,-0.22810693115234376,0.3668961669921875
-0.18859796875,-0.27467409423828126,0.4391515478515625
-0.111764296875,-0.28619333984375,0.6790197509765625
0.0453070703125,-0.18202994873046874,1.2978600537109375
-0.20197091796875,0.34123791015625,2.129718558349609
-1.0741303515625,0.21256548583984375,2.129718558349609
-0.73543001953125,0.3848639892578125,1.6552046923828125
-0.5990259375,0.29148457275390627,1.0270252587890625
-0.23503857421875,-0.293055869140625,0.7178508740234375
-0.0986344921875,-0.26192939697265627,0.417769853515625
-0.19321771484375,-0.20604880126953126,0.2567927294921875
-0.21412814453125,-0.14232531494140624,0.1943680126953125
-0.1764407421875,-0.1729616064453125,0.402040791015625
-0.2581373046875,-0.28398752685546874,0.8250051123046875
-0.650572578125,-0.26389011962890624,1.1292641650390625
-0.87329296875,-0.04306373046875,1.5917969091796875
-0.766309375,0.0701680029296875,1.3106399169921874
-0.46942990234375,-0.14722712158203125,1.0280083251953125
-0.37849384765625,-0.359720439453125,0.8441749072265625
-0.4400094140625,-0.32761360595703126,0.5662128808593749
-0.31089966796875,-0.33300559326171875,0.3464975390625
-0.22093619140625,-0.327368515625,0.3976169921875
-0.25546271484375,-0.3462404711914063,0.5254156249999999
-0.245980078125,-0.3455052001953125,0.5517126513671875
-0.38141158203125003,-0.334231044921875,0.6610787890625
-0.43636224609375,-0.33006450927734376,0.8183694140625
-0.33667298828125003,-0.09722869384765626,0.866048134765625
-0.31381740234375,-0.12149263671875,1.166866455078125
-0.24719580078125,-0.17957904541015626,1.1604765234375
-0.4322287890625,-0.0425735498046875,1.0506188525390625
-0.34299474609375,-0.14967802490234375,0.7989538525390625
-0.26956509765625,-0.11340465576171875,0.56375521484375
-0.20926525390625,-0.0180645166015625,0.40326962402343747
-0.218747890625,0.0182088525390625,0.405973056640625
-0.137051328125,0.01796376220703125,0.5109153955078125
-0.3446967578125,0.05889384765625,0.6323240966796875
-0.3203823046875,-0.1190417333984375,0.804114951171875
0.04482078125,-0.169530341796875,1.190460048828125
0.20019013671875,-0.09526797119140624,1.6173566357421876
-0.35028908203125,0.21207530517578124,2.129718558349609
-0.93189080078125,-0.08399381591796876,1.90465779296875
-0.625285546875,-0.0063001806640625,1.1754682861328125
-0.53264748046875,0.0191892138671875,0.9481341796875
-0.2970404296875,0.12629368896484375,0.9636174755859375
-0.15820490234375,-0.055073156738281254,0.735300302734375
-0.21583015625000002,-0.14526639892578125,0.6696806201171875
-0.53021603515625,-0.15286419921875,0.5964421728515625
-0.48061455078125,-0.20800952392578126,0.480686103515625
-0.36536404296875,-0.32565288330078124,0.5148476611328126
-0.1754681640625,-0.393052724609375,0.810996416015625
-0.213885,-0.31535908935546875,1.39542939453125
-0.65616490234375,-0.067572763671875,1.3622509033203125
-0.58030380859375,-0.269527197265625,0.9009469921875
-0.3349709765625,-0.374425859375,0.714655908203125
-0.37314466796875,-0.27246828125,0.6116797021484375
-0.3884627734375,-0.2121760595703125,0.83901380859375
-0.30895451171875,-0.3092318310546875,1.048898486328125
-0.44462916015625,-0.112669384765625,1.149171259765625
-0.417153828125,-0.15678564453125,0.8215643798828125
-0.27345541015625,-0.248939609375,0.73874103515625
-0.3456693359375,-0.11585555908203125,1.0540595849609375
-0.1560166015625,0.046149150390625,1.1617053564453126
-0.21753216796875,0.11403917236328125,1.09952640625
-0.333512109375,-0.05115171142578125,1.0162115283203126
-0.4195852734375,-0.0925719775390625,0.8962774267578125
-0.446331171875,-0.20065681396484375,0.718096640625
-0.42323244140625,-0.18840229736328126,0.584891142578125
-0.31527626953125,-0.2602137646484375,0.5217291259765625
-0.3111428125,-0.26241957763671875,0.61094240234375
-0.2800203125,-0.0043394580078125,0.80853875
-0.36755234375,-0.104826494140625,0.8820229638671875
-0.22361078125,-0.13399224365234375,1.1744852197265625
-0.2542469921875,-0.17859868408203125,1.3497168066406249
-0.31576255859375,-0.16683434814453124,1.1199250341796876
-0.21193984375,-0.3690338720703125,0.9284728515625
-0.2581373046875,-0.48202051513671873,1.012525029296875
-0.393811953125,-0.21242114990234376,0.9709904736328125
-0.485234296875,-0.03301502685546875,0.805098017578125
-0.27880458984375,-0.02860340087890625,0.710232109375
-0.39502767578125,-0.096983603515625,0.8063268505859374
-0.39697283203125,0.026541923828125,1.065610615234375
-0.4643238671875,-0.11561046875,1.1528577587890625
-0.50347013671875,-0.0366913818359375,1.1258234326171874
-0.1988100390625,-0.13301188232421876,1.074458212890625
-0.18592337890625,-0.31535908935546875,1.226833505859375
-0.63768591796875,-0.167569619140625,1.0919076416015625
-0.2775888671875,-0.23840072509765625,0.9026673583984375
-0.1161408984375,-0.04306373046875,0.775606025390625
-0.304334765625,-0.046740085449218746,0.628146064453125
-0.2523018359375,-0.13301188232421876,0.704825244140625
-0.282938046875,-0.181294677734375,0.8382765087890625
-0.4847480078125,-0.0749254736328125,1.095102607421875
-0.40718490234375,-0.1729616064453125,1.05725455078125
-0.3787369921875,-0.24305744140625,1.04545775390625
-0.38238416015625,-0.00581,1.20864677734375
-0.40669861328125,0.06624655761718751,1.32071634765625
-0.48450486328125,-0.167569619140625,1.1250861328125
-0.308225078125,-0.13007079833984375,1.102967138671875
-0.33424154296874997,-0.13325697265625,0.9429730810546875
-0.29387955078125,-0.22075422119140625,0.61684080078125
-0.298499296875,-0.3533480908203125,0.5568737500000001
-0.26032560546875,-0.33717212890625,0.6313410302734375
-0.28366748046875,-0.30065366943359373,0.4607790087890625
-0.13437673828125,-0.30187912109375,0.6755790185546875
-0.504685859375,-0.2190385888671875,0.9572275439453125
-0.508576171875,-0.042083369140625,1.1032129052734374
-0.24427806640625,-0.255802138671875,1.245511767578125
-0.2756437109375,-0.17663796142578125,1.4671932421875
-0.4633512890625,0.033404453125,1.368395068359375
-0.6393879296875,-0.12222790771484375,1.088221142578125
-0.44073884765625,-0.11634573974609375,0.8301662109375
-0.30871136718750003,-0.1964902783203125,0.6785282177734375
-0.164283515625,-0.244037802734375,0.60701013671875
-0.315033125,-0.2668312036132813,0.70335064453125
-0.2766162890625,-0.1249239013671875,0.5546618505859375
-0.22239505859375,-0.10801266845703125,0.5431108203125
-0.22920310546875,-0.20457825927734374,0.56178908203125
-0.18932740234375,-0.04723026611328125,0.6704179199218749
-0.2143712890625,-0.13007079833984375,1.0545511181640626
-0.31989601562500003,-0.1543347412109375,1.3858444970703125
-0.48839517578125,-0.027868129882812502,1.49766830078125
-0.6286895703125,0.0054641552734375,1.3966582275390624
-0.4983641015625,0.0182088525390625,1.0663479150390625
-0.362689453125,-0.060710234375,0.8554801708984375
-0.3116291015625,-0.0788469189453125,0.8490902392578125
-0.16258150390625,-0.0808076416015625,0.7778179248046875
-0.06532369140625,-0.17565760009765624,0.7161305078125
-0.049276152343750004,-0.26585084228515626,0.971236240234375
-0.2620276171875,-0.22663638916015624,1.3138348828125
-0.54674986328125,-0.2293323828125,1.506024365234375
-0.687530546875,-0.16462853515625,1.29712275390625
-0.4400094140625,0.008405239257812499,0.8913620947265625
-0.28196546875,-0.09428760986328125,0.6279002978515625
-0.29096181640625,-0.11683592041015625,0.55392455078125
-0.23795630859375,-0.07222947998046875,0.6446124267578125
-0.36585033203125,-0.2111956982421875,0.623722265625
-0.36293259765625,-0.18031431640625,0.5863657421875
-0.26081189453125,-0.149923115234375,0.5541703173828125
-0.008671015625,-0.17663796142578125,0.632078330078125
-0.052680175781250005,-0.24134180908203126,0.76430076171875
-0.24087404296875,-0.15065838623046876,1.031203291015625
-0.25157240234375,-0.05801424072265625,1.259274697265625
-0.53410634765625,0.02752228515625,1.262223896484375
-0.6119125976562501,0.06355056396484375,1.215036708984375
-0.3267040625,0.0211499365234375,1.19488384765625
-0.40572603515625,0.1956542529296875,1.043000087890625
-0.4200715625,0.1162449853515625,0.800182685546875
-0.29485212890625,-0.06095532470703125,0.6460870263671875
-0.35101851562499997,0.02752228515625,0.6323240966796875
-0.34056330078125,0.04051207275390625,0.64436666015625
-0.218747890625,-0.17614778076171875,0.712689775390625
-0.11346630859375,0.03413972412109375,0.8712092333984375
-0.12465095703125,-0.03914228515625,0.7593854296875
-0.2785614453125,-0.08423890625,0.9196252539062499
-0.26470220703125,-0.07370002197265625,1.1037044384765624
-0.52486685546875,-0.057769150390625,1.265173095703125
-0.53799666015625,-0.03350520751953125,1.32858087890625
-0.49568951171875,-0.06144550537109375,1.1966042138671875
-0.51416849609375,-0.0455146337890625,1.0284998583984375
-0.245980078125,-0.0661022216796875,0.80952181640625
-0.2318776953125,-0.21168587890625,0.5679332470703125
-0.06751199218750001,-0.1974706396484375,0.5635094482421875
-0.14556138671875,-0.247959248046875,0.621264599609375
-0.28998923828125,-0.114630107421875,0.8505648388671875
-0.30798193359375,-0.0925719775390625,1.029237158203125
-0.343237890625,-0.06683749267578125,1.1508916259765625
-0.38821962890625,-0.00997653564453125,1.0181776611328126
-0.42663646484375,-0.06585713134765625,0.828200078125
-0.31965287109375,-0.12075736572265625,0.7082659765625
-0.2620276171875,-0.00409436767578125,0.6082389697265624
-0.280992890625,-0.0857094482421875,0.57751814453125
-0.28853037109375,-0.08056255126953125,0.5821877099609375
-0.2435486328125,-0.0464949951171875,0.6957318798828125
-0.27637314453125,0.0093856005859375,0.82131861328125
-0.27613,0.0574233056640625,0.8918536279296875
-0.29242068359375,-0.06046514404296875,0.8594124365234375
-0.21193984375,0.05913893798828125,0.930930517578125
-0.30506419921875,0.00472888427734375,0.829674677734375
-0.1988100390625,-0.1092381201171875,0.9749227392578125
-0.0859909765625,-0.05164189208984375,1.1762055859375
-0.5353220703125,0.163792509765625,1.337920009765625
-0.4195852734375,0.1211467919921875,1.127543798828125
-0.30846822265625,-0.06830803466796875,1.012525029296875
-0.312115390625,0.205948046875,1.0486527197265625
-0.547479296875,0.07678544189453125,0.9080742236328125
-0.43879369140625,-0.05801424072265625,0.899472392578125
-0.16793068359375,-0.04968116943359375,0.7286646044921875
-0.23941517578125,0.02482629150390625,0.81738634765625
-0.1385101953125,-0.0259074072265625,0.926015185546875
-0.12246265625,0.0020328906249999995,1.333004677734375
-0.366579765625,0.08854977783203125,1.4089465576171876
-0.53118861328125,0.14295983154296876,1.37380193359375
-0.4468174609375,-0.089140712890625,1.165883388671875
-0.213885,-0.1430605859375,0.8053437841796875
-0.2488978125,-0.23521455078125,0.62470533203125
-0.37654869140625,-0.29967330810546877,0.577026611328125
-0.4176401171875,-0.25702759033203126,0.8510563720703125
-0.28318119140625,-0.1161006494140625,0.9011927587890625
-0.12440781249999999,-0.11144393310546875,1.1076367041015625
-0.24719580078125,-0.1494329345703125,1.2698426611328124
-0.37557611328125,-0.057278969726562504,1.0594664501953126
-0.30603677734375,-0.2844777075195313,0.8576920703124999
-0.26518849609375,-0.224430576171875,0.78396208984375
-0.41812640624999997,-0.1425704052734375,0.9591936767578125
-0.39016478515624997,-0.1484525732421875,1.037101689453125
-0.48061455078125,-0.116590830078125,1.0343982568359376
-0.405482890625,-0.089140712890625,0.958456376953125
-0.30530734375,-0.0371815625,0.7733941259765625
-0.23649744140625,0.0270321044921875,0.6957318798828125
-0.27029453125,-0.05360261474609375,0.6020948046875
-0.37508982421875,-0.03056412353515625,0.8235305126953125
-0.29485212890625,0.0407571630859375,0.975168505859375
-0.38700390625000003,-0.08301345458984374,1.121645400390625
-0.35977171875,-0.100905048828125,1.07691587890625
-0.35223423828125,-0.046740085449218746,1.0196522607421874
-0.296554140625,-0.03350520751953125,1.028745625
-0.35977171875,0.03953171142578125,0.96681244140625
-0.36220316406249997,0.02139502685546875,0.924049052734375
-0.53848294921875,0.114774443359375,0.92355751953125
-0.42420501953125,0.07237381591796875,0.9459222802734375
-0.4020788671875,0.0182088525390625,0.7527497314453125
-0.3456693359375,0.00619942626953125,0.5988998388671875
-0.121490078125,-0.18595139404296876,0.730384970703125
-0.21583015625000002,-0.23398909912109375,0.82328474609375
-0.28318119140625,-0.1298257080078125,0.8495817724609375
-0.263486484375,-0.21193096923828125,0.6318325634765625
-0.25254498046875,-0.25996867431640625,0.3958966259765625
-0.0772377734375,-0.2406065380859375,0.39245589355468746
-0.00842787109375,-0.2555570483398438,0.786419755859375
-0.21364185546875,-0.22467566650390625,1.3199790478515625
-0.551369609375,0.03266918212890625,1.483413837890625
-0.55015388671875,0.07580508056640625,1.3661831689453126
-0.38092529296875,-0.0729647509765625,1.126560732421875
-0.39162365234375,-0.11561046875,0.9518206787109375
-0.3476144921875,-0.0592396923828125,0.8299204443359375
-0.1881116796875,0.0843832421875,0.8569547705078124
-0.1511537109375,0.06796218994140625,0.725469638671875
-0.15236943359375,0.1466361865234375,0.6925369140625
-0.27977716796875,-0.08595453857421875,0.91569298828125
-0.302389609375,-0.057278969726562504,0.7389868017578125
-0.19564916015625,-0.1670794384765625,0.9075826904296875
-0.4536255078125,-0.024436865234375,1.00416896484375
-0.4555706640625,0.0003172583007812497,0.9016842919921875
-0.22920310546875,-0.010221625976562499,0.9385492822265625
-0.36463460937500003,0.10202974609375,0.7950215869140624
-0.292663828125,0.171635400390625,0.7802755908203125
-0.32281375,0.0868341455078125,0.6785282177734375
-0.210967265625,0.0201695751953125,0.7552073974609375
-0.154557734375,0.0338946337890625,1.0604495166015624
-0.51514107421875,0.02727719482421875,1.1592476904296876
-0.43490337890624997,-0.06585713134765625,0.98254150390625
-0.222638203125,0.02433611083984375,0.70728291015625
-0.10957599609375,-0.0043394580078125,0.7851909228515626
-0.15334201171875,0.01257177490234375,0.9606682763671874
-0.35758341796875,0.1613416064453125,1.1150097021484375
-0.374360390625,0.11207844970703125,1.258291630859375
-0.2022140625,0.07335417724609375,0.87243806640625
-0.31235853515625,0.16256705810546876,1.0068723974609375
-0.423961875,0.11060790771484375,1.0240760595703124
-0.44949205078125,-0.0332601171875,0.9473968798828125
-0.1900568359375,0.10619628173828125,0.8353273095703125
-0.15091056640625,-0.01291761962890625,0.687130048828125
-0.27613,-0.08595453857421875,0.914218388671875
-0.2766162890625,-0.0009081933593750001,0.9717277734375
-0.36876806640625,-0.0504164404296875,1.067576748046875
-0.302389609375,0.0030132519531249997,1.067576748046875
-0.424934453125,0.0544822216796875,0.8658023681640625
-0.0626491015625,-0.0288484912109375,0.6937657470703125
-0.12221951171875,0.1584005224609375,0.8697346337890625
-0.36147373046875,0.20080114990234374,0.958456376953125
-0.35904228515625003,0.06992291259765625,0.9975332666015625
-0.352963671875,0.12972495361328126,1.1990618798828125
-0.26081189453125,0.10570610107421875,1.24993556640625
-0.382141015625,0.05521749267578125,1.2162655419921875
-0.439523125,0.11943115966796874,1.222901240234375
-0.2756437109375,0.10619628173828125,0.968287041015625
-0.3874901953125,0.0338946337890625,0.8702261669921875
-0.15528716796875,0.00325834228515625,0.8844806298828125
-0.28512634765625,-0.01953505859375,0.8871840625
-0.19467658203125,0.10325519775390625,0.9756600390625
-0.2484115234375,-0.0038492773437499997,0.9061080908203125
-0.31989601562500003,0.0221302978515625,0.95894791015625
-0.3019033203125,0.03806116943359375,1.044966220703125
-0.30700935546875,0.016738310546875,1.0486527197265625
-0.42931105468749997,0.077520712890625,0.8962774267578125
-0.27248283203125,-0.01830960693359375,0.986965302734375
-0.2668905078125,0.03168882080078125,0.9916348681640625
-0.37338781249999997,0.0093856005859375,0.977626171875
-0.32159802734375,0.00472888427734375,0.8795652978515625
-0.2659179296875,0.10080429443359375,0.8525309716796875
-0.259596171875,-0.06340622802734375,0.878827998046875
-0.269321953125,-0.0018885546875000003,0.9454307470703125
-0.2104809765625,0.0289928271484375,0.8869382958984375
-0.25205869140625,0.0010525292968750002,0.76430076171875
-0.228473671875,0.104970830078125,0.7741314257812499
-0.20294349609375,0.083402880859375,0.8913620947265625
-0.37411724609375,0.09590248779296875,0.9704989404296875
-0.3835998828125,-0.00605509033203125,0.93732044921875
-0.24670951171875,-0.03546593017578125,0.9803296044921875
-0.41788326171875,0.020659755859375,0.9945840673828125
-0.3096839453125,-0.05874951171875,1.00613509765625
-0.24379177734375002,0.0976181201171875,0.7758517919921875
-0.30457791015625,0.023845930175781252,0.6917996142578124
-0.22968939453125,0.095167216796875,0.6809858837890626
-0.26324333984375,0.0172284912109375,0.86359046875
-0.2785614453125,0.14295983154296876,1.028745625
-0.1696326953125,0.07433453857421875,1.0820769775390624
-0.263486484375,0.1035002880859375,1.132459130859375
-0.27783201171875,0.13217585693359374,0.9916348681640625
-0.2133987109375,-0.0670825830078125,0.8766160986328125
-0.448276328125,0.04639424072265625,0.901438525390625
-0.4672416015625,0.05105095703125,0.9252778857421875
-0.3962433984375,-0.1386489599609375,1.019406494140625
-0.5090624609375,0.05962911865234375,1.19488384765625
-0.24719580078125,0.01110123291015625,1.1762055859375
-0.1492085546875,0.059874208984374996,1.1646545556640624
-0.2450075,-0.01683906494140625,0.8849721630859375
-0.18689595703125,-0.0097314453125,0.69745224609375
-0.11054857421875,-0.01879978759765625,0.6244595654296875
-0.31697828125,-0.02909358154296875,0.735300302734375
-0.29874244140625,-0.1180613720703125,0.994829833984375
-0.4351465234375,-0.0435539111328125,1.12312
-0.4497351953125,-0.0092412646484375,1.0157199951171876
-0.45289607421875,0.026541923828125,0.88226873046875
-0.3889490625,0.10472573974609375,0.8301662109375
-0.30457791015625,0.14099910888671874,0.7711822265625
-0.3427516015625,0.04100225341796875,0.67582478515625
-0.14507509765624998,-0.01978014892578125,0.5649840478515625
-0.0538958984375,-0.04919098876953125,0.5831707763671875
-0.3651208984375,-0.0180645166015625,0.7301392041015625
-0.257651015625,-0.04526954345703125,0.93437125
-0.26324333984375,0.0074248779296875,1.1985703466796875
-0.4234755859375,0.12874459228515625,1.410666923828125
-0.31089966796875,0.1397736572265625,1.497176767578125
-0.35612455078125,0.2329079833984375,1.4055058251953125
-0.3656071875,0.13070531494140625,1.18603625
-0.37363095703125,-0.04134809814453125,0.956490244140625
-0.41204779296875,-0.05605351806640625,0.88226873046875
-0.27053767578125,0.0907555908203125,0.8259881787109375
-0.30360533203125,-0.016593974609375,0.8525309716796875
-0.37265837890625,0.012816865234374999,0.9638632421875
-0.174009296875,0.0427178857421875,1.082322744140625
-0.27296912109375,-0.0097314453125,0.955507177734375
-0.36536404296875,-0.21193096923828125,1.06118681640625
-0.19856689453125,-0.11364974609375,1.0801108447265624
-0.40086314453125,0.03561026611328125,1.077407412109375
-0.35952857421875,-0.08350363525390625,1.087729609375
-0.21193984375,0.07776580322265625,1.0865007763671874
-0.3242726171875,0.114774443359375,1.0270252587890625
-0.31381740234375,-0.04968116943359375,0.7532412646484374
-0.1579617578125,-0.1141399267578125,0.58341654296875
-0.20342978515625,-0.1700205224609375,0.591772607421875
-0.29728357421875,-0.1651187158203125,0.9402696484374999
-0.2736985546875,-0.050661530761718754,1.4064888916015625
-0.2503566796875,0.13315621826171875,1.6925612158203125
-0.55550306640625,0.16673359375,1.5458385546875
-0.52438056640625,-0.0371815625,1.040542421875
-0.09839134765625,0.087324326171875,0.7539785644531249
-0.23260712890625002,0.09345158447265625,0.5915268408203125
-0.30652306640625,-0.15212892822265625,0.6647652880859375
-0.131215859375,-0.04968116943359375,0.891607861328125
-0.37144265625,0.1044806494140625,1.1228742333984374
-0.53751037109375,-0.09281706787109376,1.2211808740234376
-0.26956509765625,-0.0082609033203125,1.15752732421875
-0.19613544921875,0.0633054736328125,1.1081282373046875
-0.361716875,-0.0249270458984375,1.08478041015625
-0.35223423828125,-0.0268877685546875,1.04152548828125
-0.36463460937500003,0.0358553564453125,0.9365831494140625
-0.34931650390625,0.016738310546875,0.8667854345703125
-0.24184662109375,-0.036201201171875,0.7493089990234375
-0.13680818359375,0.0037485229492187503,0.8820229638671875
-0.28585578125,-0.15948163818359376,0.9410069482421874
-0.33983386718749997,-0.14134495361328125,1.0791277783203126
-0.28853037109375,-0.10703230712890625,1.0014655322265624
-0.3476144921875,-0.049926259765625,0.9016842919921875
-0.3544225390625,-0.10556176513671875,0.887675595703125
-0.4905834765625,-0.0974737841796875,0.8594124365234375
-0.32597462890625,0.13560712158203125,0.750046298828125
-0.17960162109375,0.053992041015625,0.769707626953125
-0.3972159765625,0.0221302978515625,0.7901062548828125
-0.1997826171875,-0.0161037939453125,0.865065068359375
-0.19273142578125,-0.0464949951171875,0.9459222802734375
-0.18227621093750002,-0.05458297607421875,1.0889584423828125
-0.3388612890625,-0.02860340087890625,1.195375380859375
-0.52778458984375,0.00423870361328125,1.1872650830078124
-0.45702953125,-0.12075736572265625,1.0511103857421875
-0.32305689453124997,0.04149243408203125,0.959439443359375
-0.2007551953125,0.067717099609375,0.7060540771484375
-0.2328502734375,-0.10164031982421876,0.69941837890625
-0.210967265625,0.01012087158203125,0.8628531689453125
-0.55404419921875,-0.06095532470703125,0.9714820068359376
-0.1988100390625,-0.03252484619140625,1.1290183984375
-0.24962724609375,-0.1670794384765625,0.9950756005859375
-0.42420501953125,-0.068553125,1.034152490234375
-0.2450075,-0.07222947998046875,1.091661875
-0.4487626171875,-0.167569619140625,0.9626344091796875
-0.20975154296875,-0.014633251953124999,0.964354775390625
-0.2989855859375,-0.16879507080078124,0.701876044921875
-0.2182616015625,-0.1308060693359375,0.7212916064453125
-0.34883021484375,-0.15997181884765624,0.6084847363281249
-0.27831830078124997,-0.170510703125,0.5667044140624999
-0.17133470703125,-0.23349891845703125,0.5993913720703125
-0.33472783203125,-0.09526797119140624,0.6846723828125
-0.140941640625,-0.17614778076171875,0.7896147216796875
-0.2255559375,-0.059484782714843754,1.0476696533203125
-0.2532744140625,0.03315936279296875,1.3696239013671876
-0.31697828125,0.19099753662109376,1.5215076611328124
-0.46894361328125,0.16085142578125,1.513888896484375
-0.4944737890625,0.08560869384765625,1.4050142919921875
-0.504685859375,0.193203349609375,1.1268064990234374
-0.34542619140624997,-0.1317864306640625,1.0228472265625
-0.15480087890625,-0.08987598388671875,0.7593854296875
-0.09790505859375,-0.17124597412109374,0.5433565869140625
-0.06799828125,-0.20997024658203126,0.5433565869140625
-0.066053125,-0.2763897265625,0.6082389697265624
-0.27102396484375,-0.2607039453125,1.176697119140625
-0.59732392578125,-0.03938737548828125,1.4359808837890624
-0.62893271484375,-0.04085791748046875,1.4708797412109376
-0.4745359375,-0.013407800292968751,1.0810939111328124
-0.14118478515625,-0.142080224609375,0.6768078515625
-0.17960162109375,-0.154824921875,0.5984083056640626
-0.389921640625,-0.1587463671875,0.733334169921875
-0.23819945312500002,-0.0494360791015625,0.83901380859375
-0.3690112109375,0.04296297607421875,1.0063808642578125
-0.29825615234375,-0.08840544189453126,1.1312302978515625
-0.19808060546875,-0.042083369140625,1.126560732421875
-0.403537734375,-0.01438816162109375,0.956490244140625
-0.259596171875,0.022620478515625,0.9803296044921875
-0.392839375,-0.04575972412109375,0.876861865234375
-0.34153587890625,-0.1425704052734375,0.846386806640625
-0.29169125,-0.201882265625,0.769707626953125
-0.2766162890625,-0.147962392578125,0.668451787109375
-0.26275705078125,-0.0994345068359375,0.5959506396484375
-0.23892888671875,-0.1710008837890625,0.579975810546875
-0.2177753125,-0.12909043701171874,0.775606025390625
-0.15188314453125001,-0.04379900146484375,0.9911433349609375
-0.13729447265625,0.00276816162109375,1.364462802734375
-0.131215859375,0.06355056396484375,1.6441451953125
-0.432715078125,0.24491740966796874,1.683959384765625
-0.4147223828125,0.00717978759765625,1.278936025390625
-0.39210994140625,-0.065612041015625,1.06708521484375
-0.41545181640625,-0.155805283203125,0.9945840673828125
-0.2649453515625,0.0878145068359375,0.98254150390625
-0.38287044921875,0.0054641552734375,0.7999369189453125
-0.35393625,-0.093062158203125,0.6519854248046875
-0.415208671875,-0.13399224365234375,0.5900522412109375
-0.40475345703125,-0.2229600341796875,0.654688857421875
-0.13340416015625,-0.24869451904296874,0.6677144873046875
-0.1589343359375,0.0358553564453125,0.9208540869140625
-0.3680386328125,0.07433453857421875,0.899472392578125
-0.1725504296875,-0.05017135009765625,0.954524111328125
-0.31138595703125,-0.09673851318359375,1.189476982421875
-0.57592720703125,-0.20408807861328124,1.2206893408203126
-0.3028758984375,-0.334231044921875,1.153103525390625
-0.28998923828125,-0.25849813232421875,0.907336923828125
-0.197351171875,-0.261684306640625,0.67189251953125
-0.19637859375,-0.34673065185546875,0.69941837890625
-0.24038775390625,-0.2808013525390625,0.8136998486328125
-0.37168580078125,-0.19771572998046874,1.049881552734375
-0.51319591796875,-0.1210024560546875,1.25976623046875
-0.37022693359375003,-0.14036459228515624,0.9992536328125
-0.2766162890625,-0.1543347412109375,0.7552073974609375
-0.29144810546875,-0.29477150146484377,0.7168678076171875
-0.38189787109375,-0.1680597998046875,0.8736668994140625
-0.2454937890625,-0.18031431640625,0.8618701025390625
-0.22190876953125,-0.07370002197265625,1.067576748046875
-0.29363640625,-0.00581,0.97369390625
-0.31989601562500003,-0.042083369140625,0.9090572900390625
-0.24038775390625,-0.11364974609375,0.80952181640625
-0.374360390625,-0.08742508056640624,0.819844013671875
-0.4020788671875,-0.02713285888671875,0.9754142724609375
-0.42080099609375,-0.14379585693359376,1.0653648486328124
-0.35806970703125,-0.177373232421875,1.33054701171875
-0.479398828125,-0.013162709960937501,1.4875918701171875
-0.35077537109375,-0.1347275146484375,1.4182856884765624
-0.32111173828125,-0.092081796875,1.135408330078125
-0.33181009765625,-0.0778665576171875,0.8756330322265625
-0.3437241796875,-0.25604722900390625,0.875387265625
-0.48766574218750003,-0.2567825,1.0184234277343749
-0.3835998828125,-0.36462224609375,1.0491442529296875
-0.2513292578125,-0.3013889404296875,1.3534033056640624
-0.30020130859375,-0.14330567626953125,1.3121145166015624
-0.33642984375,-0.14281549560546875,1.0648733154296874
-0.4098594921875,-0.1455114892578125,0.8014115185546875
-0.3680386328125,-0.26658611328125,0.7554531640625
-0.46262185546875,-0.34329938720703124,0.8510563720703125
-0.399647421875,-0.2842326171875,0.943710380859375
-0.33618669921875,-0.283252255859375,1.0609410498046874
-0.38627447265625,-0.15801109619140624,1.11427240234375
-0.14264365234375,-0.1190417333984375,1.1754682861328125
-0.2318776953125,-0.1964902783203125,0.9759058056640625
-0.4137498046875,-0.13987441162109376,1.0162115283203126
-0.2717533984375,-0.2092349755859375,0.887675595703125
-0.282938046875,-0.14232531494140624,0.726452705078125
-0.3077387890625,-0.23840072509765625,0.9169218212890625
-0.32062544921875,-0.234234189453125,1.048898486328125
-0.32086859375,-0.13301188232421876,1.171781787109375
-0.28415376953125,-0.1896277490234375,1.013508095703125
-0.216802734375,-0.0533575244140625,0.974185439453125
-0.2960678515625,-0.1347275146484375,0.8830060302734375
-0.38238416015625,-0.23545964111328124,1.10247560546875
-0.3972159765625,-0.0327699365234375,1.079865078125
-0.29144810546875,-0.1366882373046875,0.9862280029296875
-0.33035123046875,-0.076396015625,0.9700074072265625
-0.4040240234375,-0.13889405029296875,0.9754142724609375
-0.20975154296875,-0.10164031982421876,0.888658662109375
-0.24573693359375,-0.22320512451171876,0.8380307421875
-0.23357970703125,-0.18938265869140625,0.9166760546875
-0.323786328125,-0.1509034765625,0.9614055761718749
-0.32111173828125,-0.138158779296875,1.13786599609375
-0.3889490625,-0.0621807763671875,1.0162115283203126
-0.1560166015625,-0.12124754638671875,1.0174403613281249
-0.237226875,-0.11732610107421874,0.9120064892578125
-0.24379177734375002,-0.23889090576171876,1.003677431640625
-0.2231244921875,-0.1249239013671875,1.0083469970703125
-0.25497642578125,-0.08227818359375,1.007609697265625
-0.21972046875,-0.06291604736328126,0.9990078662109375
-0.27734572265625,-0.0646316796875,0.8820229638671875
-0.27880458984375,-0.09820905517578125,0.8161575146484374
-0.24525064453125,-0.05899460205078125,0.7109694091796875
-0.2503566796875,-0.04085791748046875,0.7222746728515625
-0.27613,0.024091020507812498,0.7711822265625
-0.27394169921875,0.07923634521484375,0.8132083154296875
-0.294608984375,0.1103628173828125,0.9872110693359375
-0.3344846875,0.09737302978515625,0.93928658203125
-0.1978374609375,0.02923791748046875,0.824759345703125
-0.1910294140625,0.011346323242187501,0.721537373046875
-0.12076064453125,0.09786321044921875,0.855234404296875
-0.214857578125,0.0985984814453125,1.092153408203125
-0.3797095703125,0.11649007568359375,1.19095158203125
-0.34639876953125,0.1231075146484375,1.20962984375
-0.33181009765625,0.15570452880859376,1.12312
-0.3126016796875,0.11550971435546875,1.0319405908203125
-0.1530988671875,0.1976149755859375,0.926015185546875
-0.2941226953125,-0.07173929931640625,0.9134810888671875
-0.277102578125,-0.05899460205078125,0.95698177734375
-0.2445212109375,0.022620478515625,0.810013349609375
-0.321841171875,-0.09796396484375,0.6755790185546875
-0.21412814453125,-0.03546593017578125,0.770690693359375
-0.33035123046875,0.0652661962890625,0.8736668994140625
-0.28366748046875,-0.03497574951171875,0.7984623193359375
-0.15577345703125,-0.057769150390625,0.8372934423828124
-0.11079171875,0.03021827880859375,0.796250419921875
-0.1492085546875,-0.0141430712890625,0.6318325634765625
-0.2698082421875,0.0407571630859375,0.7298934375
-0.26324333984375,0.07188363525390624,0.9228202197265625
-0.3267040625,0.1544790771484375,0.972219306640625
-0.28585578125,0.20570295654296875,0.7542243310546874
-0.10714455078125,0.17090012939453125,0.75447009765625
-0.09887763671875,0.216732021484375,1.1164843017578125
-0.37217208984375,0.24050578369140624,1.3809291650390625
-0.38311359375,0.25521120361328126,1.333004677734375
-0.36001486328125,0.044188427734375,1.101984072265625
-0.259596171875,0.02139502685546875,1.0786362451171876
-0.30068759765624997,0.0535018603515625,0.848352939453125
-0.07407689453124999,0.018699033203125,0.5954591064453125
-0.15528716796875,-0.05213207275390625,0.50673736328125
-0.08477525390625,0.12237224365234375,0.8279543115234375
-0.1555303125,0.21403602783203124,1.0457035205078125
-0.47404964843749997,0.15717507080078125,1.2275708056640624
-0.3194097265625,0.157910341796875,1.449006513671875
-0.41691068359375,-0.020515419921875,1.2705799609375
-0.19419029296875,0.061834931640625,0.911269189453125
-0.234309140625,-0.07124911865234375,0.5684247802734375
-0.1161408984375,0.033404453125,0.593738740234375
-0.300444453125,0.14688127685546876,0.852285205078125
-0.44146828125,0.1917328076171875,1.079865078125
-0.405482890625,0.242221416015625,1.2671392285156249
-0.2980130078125,0.0672269189453125,1.4384385498046874
-0.25692158203125,0.23903524169921875,1.1754682861328125
-0.20488865234375,0.138303115234375,0.8549886376953125
-0.30555048828125,0.20276187255859374,0.800182685546875
-0.338375,0.2417312353515625,0.972219306640625
-0.378250703125,0.253005390625,1.0520934521484375
-0.354908828125,0.226535634765625,1.1012467724609376
-0.2299325390625,0.09884357177734375,1.1779259521484375
-0.32889236328125,0.16697868408203126,1.048898486328125
-0.2698082421875,0.1976149755859375,1.01006736328125
-0.22482650390625,0.161831787109375,1.0422627880859374
-0.263486484375,0.09786321044921875,1.0157199951171876
-0.36536404296875,0.0495804150390625,0.9842618701171875
-0.2163164453125,0.07335417724609375,1.1046875048828124
-0.1307295703125,0.0064445166015625,1.2646815625
-0.37314466796875,0.08953013916015624,1.271071494140625
-0.2411171875,0.0809519775390625,1.1132893359375
-0.3135742578125,0.16673359375,1.0739666796875
-0.38676076171875,0.0530116796875,1.0385762890625
-0.299471875,0.11992134033203125,1.2064348779296874
-0.25862359375,0.2137909375,1.1990618798828125
-0.2931501171875,0.19491898193359375,0.9975332666015625
-0.07164544921875,0.09688284912109375,0.8525309716796875
-0.11492517578125,0.1289896826171875,0.82721701171875
-0.21753216796875,0.01894412353515625,1.0759328125
-0.54650671875,0.0593840283203125,1.2713172607421874
-0.24695265625,0.0883046875,1.4246756201171875
-0.49593265625,0.11747043701171875,1.3492252734375
-0.30263275390625,0.185360458984375,1.1946380810546875
-0.18640966796875,0.0883046875,1.049881552734375
-0.38505875,0.1721255810546875,1.05233921875
-0.23892888671875,0.22947671875,0.9709904736328125
-0.060460800781250004,0.143204921875,0.9085657568359375
-0.1326747265625,0.2137909375,0.9449392138671875
-0.14969484375,0.18609572998046875,1.1513831591796875
-0.16452666015625,0.03266918212890625,1.189968515625
-0.2853694921875,0.026051743164062502,0.9916348681640625
-0.21583015625000002,-0.03546593017578125,0.8672769677734375
-0.34032015625,-0.118551552734375,0.781012890625
-0.2357680078125,0.13511694091796875,0.8353273095703125
-0.27151025390625,0.13560712158203125,0.8603955029296875
-0.27880458984375,0.05031568603515625,0.9203625537109374
-0.2231244921875,0.11771552734375,1.0825685107421874
-0.25351755859375,-0.0700236669921875,0.9955671337890625
-0.21753216796875,0.10202974609375,0.965829375
-0.21121041015625,0.1682041357421875,0.867522734375
-0.1827625,-0.10115013916015625,0.7788009912109375
-0.14215736328125,0.1084020947265625,0.74660556640625
-0.19637859375,-0.0043394580078125,0.655180390625
-0.3096839453125,0.1211467919921875,0.8166490478515624
-0.23309341796875,0.04835496337890625,0.947642646484375
-0.38967849609375,0.214771298828125,0.889641728515625
-0.36779548828124997,0.1392834765625,0.9088115234375
-0.2445212109375,0.22138873779296875,0.980083837890625
-0.27540056640625,0.1025199267578125,0.965337841796875
-0.1560166015625,0.0770305322265625,1.1250861328125
-0.3194097265625,0.09884357177734375,0.9881941357421875
-0.2746711328125,0.0936966748046875,0.9233117529296875
-0.20804953125,0.0035034326171875,0.7493089990234375
-0.271267109375,-0.10188541015625,0.7375122021484375
-0.1511537109375,0.05276658935546875,0.7547158642578125
-0.3967296875,0.0691876416015625,0.6367478955078125
-0.13778076171875,0.06673673828125,0.5920183740234375
-0.053409609375,0.12237224365234375,0.704825244140625
-0.41788326171875,0.07335417724609375,0.9007012255859375
-0.3767918359375,0.071638544921875,0.9169218212890625
-0.26470220703125,0.1079119140625,0.8082929833984375
-0.302389609375,0.128499501953125,0.6917996142578124
-0.19321771484375,0.0682072802734375,0.8048522509765625
-0.33326896484375,0.1471263671875,0.9414984814453125
-0.34542619140624997,0.057668395996093746,1.1051790380859374
-0.2445212109375,0.2466330419921875,1.2015195458984376
-0.31697828125,0.23119235107421876,0.9857364697265625
-0.15771861328125,0.04884514404296875,0.9660751416015625
-0.25473328125,0.17653720703125,0.9945840673828125
-0.368524921875,-0.00262382568359375,1.04152548828125
-0.14264365234375,-0.037916833496093746,1.1671122216796874
-0.34785763671875003,0.13413657958984376,1.076424345703125
-0.39065107421875,0.1525183544921875,1.207172177734375
-0.48790888671875,0.00521906494140625,1.167849521484375
-0.40280830078125,0.08364797119140625,1.14573052734375
-0.4497351953125,0.18756627197265624,1.089204208984375
-0.31576255859375,-0.04428918212890625,0.9169218212890625
-0.044899550781250006,0.15472416748046874,0.83114927734375
-0.19175884765625,0.171635400390625,0.918150654296875
-0.097175625,-0.13987441162109376,1.1159927685546875
-0.335457265625,0.0417375244140625,1.0953483740234375
-0.35393625,-0.03742665283203125,1.0466865869140625
-0.13923962890625,-0.023456503906250002,0.7886316552734375
-0.27613,0.05962911865234375,0.71514744140625
-0.25740787109375,-0.059729873046875,0.8053437841796875
-0.33472783203125,-0.05360261474609375,0.9174133544921875
-0.29436583984375,0.0142874072265625,0.934862783203125
-0.2644590625,0.12531332763671876,1.0270252587890625
-0.3009307421875,0.050070595703125,1.0692971142578125
-0.3072525,0.21967310546875,1.1656376220703124
-0.2532744140625,0.205948046875,1.026287958984375
0.05673486328125,0.03315936279296875,0.99827056640625
-0.2182616015625,0.1819291943359375,1.091661875
-0.26567478515625,0.0765403515625,1.1250861328125
-0.3067662109375,0.1848702783203125,1.1435186279296874
-0.40062,0.21967310546875,1.11820466796875
-0.34542619140624997,0.04002189208984375,0.9906518017578125
-0.19224513671875,0.169674677734375,0.8913620947265625
-0.23260712890625002,0.16109651611328124,0.824759345703125
-0.098148203125,-0.0033590966796874996,1.032677890625
-0.25740787109375,0.02237538818359375,1.396903994140625
-0.40645546875,0.11060790771484375,1.439175849609375
-0.40426716796875,-0.079337099609375,1.177680185546875
-0.154557734375,0.07335417724609375,0.9321593505859375
-0.08988128906250001,0.1054610107421875,0.8756330322265625
-0.22044990234375,0.0495804150390625,0.9818042041015624
-0.31430369140625003,0.167713955078125,1.048898486328125
-0.24962724609375,0.030463369140625002,0.8505648388671875
-0.19856689453125,0.055952763671875,0.765775361328125
-0.21607330078125,0.0191892138671875,0.792318154296875
-0.18446451171875,0.0182088525390625,0.854251337890625
-0.28220861328125,0.1652630517578125,0.9385492822265625
-0.3184371484375,0.1485969091796875,0.9061080908203125
-0.237226875,0.085363603515625,0.99827056640625
-0.267376796875,0.1584005224609375,1.079373544921875
-0.27151025390625,0.04296297607421875,1.0486527197265625
-0.20683380859375,0.01747358154296875,0.98647376953125
-0.22190876953125,0.19442880126953124,0.997779033203125
-0.25059982421875,0.2113400341796875,1.04349162109375
-0.31333111328125,0.14737145751953126,0.9370746826171875
-0.2707808203125,0.12947986328125,1.1041959716796874
-0.288773515625,0.2255552734375,1.1597392236328126
-0.2513292578125,0.19295825927734375,1.0343982568359376
-0.15577345703125,0.12874459228515625,0.9365831494140625
-0.35417939453125,0.04100225341796875,0.8839890966796875
-0.372415234375,0.08168724853515624,0.8485987060546875
-0.36730919921875,0.0456589697265625,0.9046334912109375
-0.2902323828125,0.12531332763671876,0.9567360107421875
-0.30555048828125,-0.036201201171875,0.742181767578125
-0.20877896484375,-0.0455146337890625,0.623722265625
-0.1141957421875,0.01600303955078125,0.6578838232421875
-0.2386857421875,0.06894255126953125,0.6696806201171875
-0.1851939453125,0.04835496337890625,0.6485446923828125
-0.103983671875,0.0074248779296875,0.9636174755859375
-0.3806821484375,0.16624341308593749,1.1307387646484375
-0.44049570312499997,0.1740863037109375,1.00023669921875
-0.19516287109375,-0.00605509033203125,0.8576920703124999
-0.2999581640625,-0.06438658935546875,0.8117337158203125
-0.1958923046875,0.0172284912109375,0.80952181640625
-0.12173322265625,-0.026397587890625,0.6972064794921875
-0.1530988671875,-0.02125069091796875,0.8380307421875
-0.2255559375,0.0255615625,1.0589749169921876
-0.29752671875000003,0.08462833251953125,1.0614325830078124
-0.1399690625,0.026051743164062502,0.8567090039062499
-0.1968648828125,0.13340130859375,0.8557259375
-0.10519939453125,0.11109808837890625,0.962388642578125
-0.19224513671875,0.10962754638671875,1.02186416015625
-0.25935302734375,0.1706550390625,1.15162892578125
-0.31381740234375,0.05178622802734375,1.27156302734375
-0.4049966015625,0.130460224609375,1.1919346484375
-0.1851939453125,0.14295983154296876,0.8736668994140625
-0.21169669921875,0.1162449853515625,0.8225474462890625
-0.19175884765625,0.0407571630859375,0.8655566015625
-0.12367837890625,0.020659755859375,0.820827080078125
-0.13778076171875,-0.09281706787109376,0.7630719287109375
-0.12270580078125,0.10423555908203125,0.9795923046875
-0.2075632421875,-0.044044091796875,1.1014925390624999
-0.30749564453125,0.02237538818359375,1.2088925439453124
-0.197351171875,0.03512008544921875,1.1174673681640626
-0.26372962890625,0.08119706787109375,1.2546051318359375
-0.50687416015625,0.099088662109375,1.292207421875
-0.43295822265625,0.14982236083984374,1.159001923828125
-0.1399690625,0.0623251123046875,1.1010010058593749
-0.2566784375,0.01012087158203125,1.110831669921875
-0.18227621093750002,0.15668489013671874,1.1602307568359376
-0.21801845703125,0.08119706787109375,1.0820769775390624
-0.1239215234375,0.02286556884765625,1.08281427734375
-0.21193984375,-0.05409279541015625,1.1730106201171875
-0.33326896484375,0.00668960693359375,1.0845346435546874
-0.21072412109375,0.20913422119140626,0.927981318359375
-0.29533841796875,0.08658905517578125,0.6377309619140625
-0.20683380859375,-0.044044091796875,0.688113115234375
-0.12319208984375,7.216796875000007e-05,0.7311222705078125
-0.1477496875,0.106931552734375,0.7271900048828125
-0.15723232421875,0.0495804150390625,0.593738740234375
-0.14167107421875,0.12188206298828125,0.77806369140625
-0.09985021484375001,0.14443037353515625,1.1172216015625
-0.39575710937499997,0.1584005224609375,1.1897227490234374
-0.28318119140625,-0.00752563232421875,1.2489525
-0.22677166015625,-0.0612004150390625,1.1430270947265626
-0.17327986328125,0.00178780029296875,0.9582106103515625
-0.27029453125,0.16648850341796875,0.84491220703125
-0.24233291015625,-0.03497574951171875,0.776589091796875
-0.269321953125,-0.0028689160156250004,0.885709462890625
-0.174009296875,0.08315779052734375,0.9257694189453125
-0.26810623046875,0.10325519775390625,1.0732293798828125
-0.20342978515625,0.08119706787109375,1.18701931640625
-0.1404553515625,0.06600146728515625,1.14966279296875
-0.2250696484375,0.0936966748046875,1.1985703466796875
-0.459947265625,0.15913579345703124,1.1489254931640625
-0.3631757421875,0.11698025634765626,1.079865078125
-0.16720125,0.1966346142578125,1.095594140625
-0.35077537109375,-0.036201201171875,1.0597122167968749
0.0076196679687500005,-0.089140712890625,1.1263149658203124
-0.2921775390625,-0.04477936279296875,1.1223827001953124
-0.27394169921875,-0.04723026611328125,1.08281427734375
-0.28853037109375,0.19589934326171876,1.0707717138671875
-0.4001337109375,0.15692998046875,0.974185439453125
-0.244034921875,0.12972495361328126,1.0668394482421875
-0.21655958984375,0.07580508056640625,1.1843158837890626
0.02220833984375,0.1211467919921875,1.1705529541015625
-0.2027003515625,0.20129133056640625,1.2044687451171874
-0.35028908203125,0.20031096923828126,1.3084280175781249
-0.57933123046875,0.0280124658203125,1.1676037548828124
-0.41302037109375,0.073599267578125,0.9631259423828125
-0.17133470703125,-0.18595139404296876,0.7611057958984375
-0.06872771484375,-0.16438344482421874,0.60897626953125
-0.041495527343750005,-0.061690595703125004,0.541636220703125
-0.0072121484375,-0.16070708984375,0.7208000732421875
-0.1083602734375,-0.060710234375,1.29515662109375
-0.45630009765625,-0.0259074072265625,1.5962207080078126
-0.36585033203125,0.14835181884765625,1.4708797412109376
-0.3797095703125,0.010856142578125,1.1931634814453125
-0.16452666015625,0.02090484619140625,0.627162998046875
-0.0013766796875,0.05031568603515625,0.5590856494140625
-0.1929745703125,0.18168410400390625,0.8146829150390625
-0.2630001953125,0.0721287255859375,1.043000087890625
-0.32305689453124997,-0.03448556884765625,1.344801474609375
-0.42906791015625,-0.01144707763671875,1.175714052734375
-0.06386482421875,0.05423713134765625,0.9326508837890625
-0.2435486328125,-0.0170841552734375,0.7399698681640625
-0.3427516015625,0.07139345458984375,0.75053783203125
-0.0295814453125,0.0387964404296875,0.7158847412109375
-0.26810623046875,0.06845237060546874,0.879811064453125
-0.18470765625,0.214771298828125,1.0343982568359376
-0.1881116796875,-0.04379900146484375,1.079865078125
-0.08988128906250001,-0.15114856689453124,1.127543798828125
-0.18640966796875,0.04884514404296875,1.087729609375
-0.1365650390625,0.12188206298828125,1.1061621044921874
-0.15869119140625,-0.00409436767578125,1.1577730908203125
-0.50298384765625,0.16844922607421875,1.353649072265625
-0.61094001953125,-0.1170810107421875,1.0894499755859375
-0.1229489453125,-0.13546278564453124,0.9188879541015624
0.09588113281249999,-0.01169216796875,0.89603166015625
-0.0218008203125,-0.1455114892578125,1.0184234277343749
-0.216802734375,-0.00507472900390625,1.1523662255859375
-0.5367809375,-0.03497574951171875,0.9562444775390625
-0.2007551953125,0.0682072802734375,0.9134810888671875
0.06694693359375001,0.04541387939453125,0.9601767431640625
-0.1375376171875,0.11158826904296874,1.127543798828125
-0.3252451953125,0.10962754638671875,1.154086591796875
-0.41739697265625,0.03217900146484375,0.823776279296875
-0.2980130078125,0.044188427734375,0.5551533837890625
-0.07407689453124999,-0.1665892578125,0.562280615234375
-0.10422681640625,-0.04919098876953125,0.6485446923828125
-0.1287844140625,0.018699033203125,0.5566279833984376
-0.068970859375,-0.03497574951171875,0.578009677734375
-0.15431458984375,-0.25898831298828123,0.7004014453125
-0.09741876953125,-0.22222476318359374,0.7861739892578125
-0.23917203125,0.09051050048828126,1.03169482421875
-0.531918046875,0.04639424072265625,1.400836259765625
-0.51173705078125,0.16477287109375,1.197341513671875
-0.29752671875000003,0.3260423095703125,0.9874568359375
-0.172064140625,0.204967685546875,0.6726298193359375
-0.17862904296875,-0.0327699365234375,0.6775451513671875
-0.1205175,0.11599989501953126,0.6834435498046875
-0.117599765625,0.17653720703125,0.617332333984375
-0.16841697265625,-0.00777072265625,0.80853875
-0.2240970703125,0.0946770361328125,1.2890124560546874
-0.3544225390625,-0.024436865234375,1.5025836328125
-0.27345541015625,0.016738310546875,1.394446328125
-0.34493990234375,0.093206494140625,1.1671122216796874
-0.38238416015625,0.12041152099609376,0.8810398974609375
-0.39794541015625,-0.0670825830078125,0.713672841796875
-0.19613544921875,0.0162481298828125,0.7045794775390625
-0.06726884765625,0.128499501953125,0.7085117431640625
-0.1166271875,-0.0072805419921875,0.6603414892578126
0.030232109375,-0.0553182470703125,0.9095488232421876
-0.1861665234375,0.13315621826171875,1.0117877294921875
-0.22871681640625,-0.022476142578125,1.0621698828125
-0.18689595703125,0.18315464599609374,1.1155012353515625
-0.29485212890625,0.12923477294921876,1.13589986328125
-0.3126016796875,0.0466393310546875,1.1484339599609374
-0.257651015625,0.2162418408203125,0.9768888720703125
-0.1929745703125,-0.1062970361328125,0.7529954980468749
-0.2172890234375,0.10913736572265625,0.947642646484375
-0.33253953125,0.19393862060546874,1.2727918603515624
-0.35344996093750003,-0.09036616455078125,1.1715360205078125
-0.07869664062500001,-0.159726728515625,0.9960586669921875
-0.04003666015625,0.0858537841796875,0.8510563720703125
-0.05462533203125,-0.12811007568359375,0.9813126708984374
-0.25059982421875,-0.12516899169921875,1.097068740234375
-0.36730919921875,-0.00507472900390625,1.032677890625
-0.16209521484375,-0.0700236669921875,0.80558955078125
-0.137051328125,0.20668331787109376,0.8171405810546875
-0.3612305859375,0.08266760986328126,0.8377849755859375
-0.2172890234375,0.0883046875,1.0130165625
-0.1676875390625,0.19148771728515626,1.14179826171875
-0.25205869140625,0.0564429443359375,1.2806563916015625
-0.16015005859375,0.06011929931640625,1.46031177734375
-0.33715927734375,0.22825126708984375,1.37970033203125
-0.48815203125,0.1887917236328125,1.1843158837890626
-0.11687033203125,-0.0646316796875,0.8839890966796875
0.0076196679687500005,-0.149923115234375,0.8223016796875
-0.138996484375,0.1270289599609375,1.0982975732421876
-0.25108611328125,-0.15457983154296875,1.1076367041015625
-0.34591248046875,-0.07566074462890625,1.09264494140625
-0.11079171875,0.12972495361328126,0.8923451611328125
-0.2488978125,-0.1744321484375,0.70531677734375
-0.31138595703125,0.10325519775390625,0.9528037451171875
-0.10228166015625,0.1613416064453125,0.9970417333984375
-0.42323244140625,-0.04968116943359375,0.9442019140625
-0.1667149609375,0.20766367919921874,1.0614325830078124
0.074970703125,-0.1611972705078125,1.1189419677734376
-0.31284482421875,-0.0386521044921875,1.2811479248046875
-0.30798193359375,0.2378097900390625,1.237155703125
-0.42469130859375,0.024091020507812498,0.9562444775390625
-0.15480087890625,0.132420947265625,0.9110234228515625
-0.13948277343749999,-0.05801424072265625,0.7591396630859375
-0.008184726562500001,-0.10164031982421876,1.048406953125
-0.36779548828124997,-0.02272123291015625,1.1346710302734375
-0.40037685546875,0.03953171142578125,1.1390948291015626
-0.37314466796875,-0.0494360791015625,0.7741314257812499
-0.13923962890625,-0.1592365478515625,0.5463057861328124
-0.15747546875,0.05472731201171875,0.7947758203124999
-0.22920310546875,-0.046740085449218746,0.8215643798828125
-0.12027435546875,-0.0680629443359375,0.9483799462890625
-0.1166271875,0.00766996826171875,0.8943112939453125
-0.206104375,-0.014633251953124999,1.0786362451171876
-0.37508982421875,-0.03129939453125,1.47210857421875
-0.33424154296874997,0.32653249023437503,1.421480654296875
-0.31430369140625003,0.20521277587890624,1.2491982666015624
-0.16720125,0.0750698095703125,1.004660498046875
-0.21972046875,-0.03350520751953125,0.74660556640625
-0.2177753125,-0.17614778076171875,0.5981625390625
-0.23552486328125,-0.09232688720703125,0.6328156298828125
-0.0966893359375,-0.06242586669921875,0.737266435546875
-0.2454937890625,-0.1376685986328125,1.0540595849609375
-0.2425760546875,-0.0406128271484375,1.208155244140625
-0.14507509765624998,0.15692998046875,1.1290183984375
-0.21996361328125,-0.0494360791015625,1.112797802734375
-0.31989601562500003,0.17580193603515626,1.17129025390625
-0.34883021484375,0.15300853515625001,1.0638902490234374
-0.242089765625,-0.01781942626953125,1.0260421923828125
-0.12076064453125,0.056933125,1.044966220703125
-0.097175625,-0.0190448779296875,0.90389619140625
0.02123576171875,0.018699033203125,1.1612138232421876
-0.21972046875,0.032424091796875,1.1803836181640626
-0.32475890625,-0.04330882080078125,1.1115689697265625
-0.27394169921875,-0.04698517578125,0.94223578125
-0.30409162109375,-0.11364974609375,0.7812586572265625
-0.11832919921875,-0.19281392333984376,0.5762893115234375
-0.037848359375,-0.21046042724609376,0.57161974609375
-0.051950742187499996,-0.24134180908203126,0.6121712353515625
-0.1482359765625,-0.261684306640625,0.698926845703125
-0.35369310546875,-0.0016434643554687498,0.8365561425781249
-0.2610550390625,0.1564397998046875,0.906845390625
-0.267376796875,0.17531175537109375,1.1159927685546875
-0.20342978515625,0.244182138671875,1.3059703515625
0.0462796484375,0.1628121484375,1.450972646484375
-0.32013916015625,0.2240847314453125,1.3116229833984374
-0.3048210546875,0.2113400341796875,0.85277673828125
-0.076751484375,0.05472731201171875,0.613400068359375
-0.006482714843750001,0.07972652587890625,0.6131543017578125
-0.08526154296874999,0.048109873046875,0.8417172412109375
-0.23163455078125,-0.0175743359375,0.9336339501953125
-0.17279357421875,-0.07124911865234375,1.0343982568359376
-0.33132380859375,-0.13742350830078126,1.1435186279296874
-0.352963671875,-0.00654527099609375,1.2428083349609376
-0.2007551953125,0.09884357177734375,1.3224367138671875
-0.37581925781250003,0.206928408203125,1.198324580078125
-0.242089765625,0.20717349853515626,0.792318154296875
-0.17084841796875,-0.038161923828125,0.74070716796875
0.009078535156249998,-0.0621807763671875,0.8466325732421875
-0.25886673828125,-0.0063001806640625,1.06708521484375
-0.16258150390625,0.02237538818359375,1.150645859375
-0.15091056640625,0.01600303955078125,1.205697578125
-0.28585578125,0.091245771484375,1.0712632470703125
-0.25351755859375,-0.03399538818359375,0.84097994140625
-0.25205869140625,-0.14183513427734376,0.72104583984375
-0.335457265625,0.02972809814453125,0.824759345703125
-0.411318359375,-0.0798272802734375,0.8658023681640625
-0.14021220703125,0.0201695751953125,0.7529954980468749
-0.18154677734375,0.09492212646484376,0.8576920703124999
-0.11468203125,-0.02321141357421875,0.747097099609375
-0.27296912109375,-0.00458454833984375,0.89209939453125
-0.2454937890625,-0.00948635498046875,0.9704989404296875
-0.21655958984375,-0.02223105224609375,0.9913891015625
-0.2912049609375,0.09639266845703125,1.1248403662109374
-0.25059982421875,0.071638544921875,1.2025026123046876
-0.30068759765624997,0.0436982470703125,1.203239912109375
-0.2192341796875,-0.01438816162109375,0.905370791015625
-0.13291787109375,0.0495804150390625,0.76921609375
-0.28123603515625,-0.03350520751953125,0.6942572802734375
-0.24038775390625,-0.12026718505859375,0.97074470703125
-0.22920310546875,0.09418685546875,1.2391218359375
-0.2561921484375,-0.0023787353515625003,1.3956751611328124
-0.27102396484375,0.00423870361328125,1.4118957568359374
-0.187625390625,-0.0533575244140625,1.176697119140625
-0.24719580078125,-0.068553125,0.9481341796875
-0.17036212890625,-0.1494329345703125,0.862115869140625
-0.337402421875,-0.06438658935546875,1.043000087890625
-0.25862359375,-0.12811007568359375,1.126560732421875
-0.216802734375,-0.02860340087890625,1.207172177734375
-0.23503857421875,-0.095022880859375,1.163917255859375
-0.16185207031249998,0.01894412353515625,1.146222060546875
-0.17279357421875,-0.116590830078125,0.9397781152343749
-0.177899609375,-0.1347275146484375,0.87243806640625
-0.17862904296875,-0.142080224609375,0.9341254833984375
-0.1355924609375,0.00472888427734375,1.091661875
-0.37071322265625,-0.018554697265625,1.0324321240234375
-0.35344996093750003,-0.1700205224609375,0.981066904296875
-0.2707808203125,-0.04919098876953125,0.89013326171875
-0.19613544921875,-0.08423890625,0.9208540869140625
-0.23114826171875,0.01575794921875,1.19291771484375
-0.15042427734375,0.0255615625,1.2201978076171875
-0.175954453125,0.08168724853515624,1.1346710302734375
-0.17668388671875,0.0201695751953125,0.8599039697265625
-0.27296912109375,-0.09183670654296874,0.8771076318359375
-0.19905318359375002,-0.0504164404296875,0.99630443359375
-0.29193439453125003,-0.03154448486328125,1.1774344189453125
-0.2163164453125,-0.05090662109375,1.2978600537109375
-0.17862904296875,0.0064445166015625,1.2963854541015625
-0.2231244921875,0.0721287255859375,1.180629384765625
-0.12829812499999999,-0.028113220214843748,0.8117337158203125
-0.19029998046875,-0.09845414550781251,0.814928681640625
-0.18689595703125,-0.12320826904296875,0.8967689599609375
-0.3057936328125,-0.14575657958984375,0.9931094677734374
-0.11857234375,-0.02713285888671875,1.057746083984375
-0.15188314453125001,-0.07370002197265625,0.97664310546875
-0.060947089843749996,0.04590406005859375,0.9523122119140625
-0.1560166015625,-0.0808076416015625,1.0093300634765625
-0.16793068359375,-0.04772044677734375,1.218968974609375
-0.33108066406250003,-0.0063001806640625,1.2875378564453124
-0.25059982421875,0.0280124658203125,1.1808751513671876
-0.2318776953125,0.03855135009765625,1.0226014599609374
-0.23114826171875,-0.00752563232421875,0.9179048876953125
-0.13607875,-0.0567887890625,0.8422087744140625
-0.19832375,-0.0332601171875,0.9031588916015625
-0.23114826171875,0.05423713134765625,1.03366095703125
-0.24476435546875,0.0417375244140625,1.019406494140625
-0.16160892578125,-0.0001729223632812504,0.843929140625
-0.1190586328125,-0.004829638671875,0.6775451513671875
-0.084532109375,-0.015368522949218751,0.655180390625
-0.1676875390625,-0.008996174316406251,0.8141913818359375
-0.2133987109375,0.106931552734375,1.1051790380859374
-0.28804408203125,0.0515411376953125,1.119187734375
-0.25886673828125,0.04835496337890625,1.1857904833984374
-0.2513292578125,0.08609887451171874,1.0235845263671874
-0.21972046875,0.00963069091796875,0.879811064453125
-0.13413359375,0.1652630517578125,1.0678225146484375
-0.17668388671875,0.19491898193359375,1.1277895654296874
-0.181789921875,0.09100068115234375,1.1054248046875
-0.174981875,0.0530116796875,1.1961126806640625
-0.190543125,0.0838930615234375,1.172764853515625
-0.24476435546875,0.040266982421875,1.1086197705078125
-0.2513292578125,-0.0337502978515625,0.9483799462890625
-0.1706052734375,-0.07835673828125,0.767741494140625
-0.15528716796875,-0.0347306591796875,0.666485654296875
-0.174981875,0.032424091796875,0.6967149462890625
-0.05657048828125,0.0012976196289062499,0.6996641455078125
-0.076751484375,0.11599989501953126,0.875878798828125
-0.2338228515625,0.019679394531249998,0.908319990234375
-0.16647181640625,0.04884514404296875,1.0668394482421875
-0.16793068359375,0.11452935302734375,1.0395593554687501
-0.252788125,0.08953013916015624,1.1518746923828125
-0.1414279296875,0.11403917236328125,1.2312573046875
-0.2095083984375,0.12433296630859375,1.1081282373046875
-0.09255587890625,0.0966377587890625,1.02383029296875
-0.2406308984375,0.11158826904296874,0.8908705615234375
-0.27394169921875,0.06453092529296875,0.9768888720703125
-0.18203306640625,0.1211467919921875,0.867522734375
-0.07699462890625,0.06158984130859375,0.7952673535156249
-0.0655668359375,0.02776737548828125,0.7925639208984375
-0.20683380859375,0.021885207519531248,0.891116328125
-0.19321771484375,0.0020328906249999995,0.9572275439453125
-0.16015005859375,0.1505576318359375,0.936828916015625
-0.16160892578125,0.13340130859375,1.090187275390625
-0.1696326953125,0.169674677734375,1.1794005517578126
-0.1861665234375,0.126538779296875,1.1169758349609376
-0.1735230078125,0.17384121337890626,1.1661291552734374
-0.18543708984375,0.2446723193359375,1.07888201171875
-0.18008791015625,0.23119235107421876,1.16539185546875
-0.20683380859375,0.2672206298828125,1.1518746923828125
-0.23819945312500002,0.10987263671875,1.17915478515625
-0.16452666015625,0.08217742919921875,1.231748837890625
-0.24087404296875,-0.04330882080078125,1.0444746875
-0.2211793359375,-0.024436865234375,0.8658023681640625
-0.16598552734375,-0.0229663232421875,0.796250419921875
-0.19710802734375,0.05374695068359375,1.014491162109375
-0.29193439453125003,0.00178780029296875,1.113780869140625
-0.33472783203125,0.16354741943359374,1.04152548828125
-0.18932740234375,0.08707923583984375,0.8984893261718749
-0.21801845703125,0.08953013916015624,0.7178508740234375
-0.086477265625,0.09418685546875,0.820335546875
-0.12465095703125,0.0373258984375,0.9380577490234375
-0.26640421875,-0.00703545166015625,0.97860923828125
-0.21899103515625,0.06355056396484375,0.92748978515625
-0.13291787109375,0.0623251123046875,0.863098935546875
-0.26324333984375,-0.00311400634765625,0.8923451611328125
-0.2104809765625,0.0191892138671875,0.969761640625
-0.2561921484375,0.065756376953125,1.0845346435546874
-0.23406599609375,0.0280124658203125,1.082322744140625
-0.29679728515625,0.07139345458984375,0.89209939453125
-0.16160892578125,0.101049384765625,0.883743330078125
-0.20197091796875,0.063795654296875,0.78494515625
-0.1647698046875,0.0299731884765625,0.94518498046875
-0.13923962890625,0.19344843994140626,1.08871267578125
-0.25594900390624997,0.1515379931640625,1.182595517578125
-0.22701480468750002,0.12678386962890625,1.2233927734375
-0.221665625,0.19491898193359375,1.18701931640625
-0.242089765625,0.10864718505859375,1.1818582177734376
-0.23163455078125,0.0765403515625,1.14573052734375
-0.23892888671875,0.0740894482421875,1.1007552392578126
-0.2416034765625,0.00227798095703125,1.0643817822265624
-0.19175884765625,0.00816014892578125,1.0073639306640625
-0.2007551953125,-0.1121792041015625,0.8702261669921875
-0.1949197265625,-0.08252327392578125,0.8284458447265625
-0.15164,-0.20163717529296876,0.7790467578125
-0.17692703125,-0.1866866650390625,0.8864467626953125
-0.23139140625,-0.14575657958984375,0.9105318896484375
-0.19905318359375002,-0.05752406005859375,0.9670582080078125
-0.1443456640625,-0.05850442138671875,0.9795923046875
-0.18495080078125,-0.05703387939453125,0.925032119140625
-0.156502890625,0.03315936279296875,0.9953213671875
-0.21972046875,0.0505607763671875,0.998762099609375
-0.20197091796875,0.11894097900390625,1.090187275390625
-0.15747546875,0.11894097900390625,1.146222060546875
-0.1842213671875,0.20521277587890624,0.9999909326171875
-0.244034921875,0.050070595703125,0.8987350927734374
-0.1589343359375,-0.042328459472656246,1.0157199951171876
