ax,ay,az
-0.3033621875,0.0564429443359375,0.9424815478515625
-0.30555048828125,0.08242251953125,0.9677955078125
-0.308225078125,0.07237381591796875,1.0019570654296874
-0.3281629296875,0.07678544189453125,0.946168046875
-0.3028758984375,0.03953171142578125,0.9326508837890625
-0.286828359375,0.05717821533203125,0.9690243408203125
-0.26713365234374997,0.0686974609375,0.9641090087890625
-0.31333111328125,0.07384435791015626,0.9803296044921875
-0.27807515625,0.0691876416015625,1.00416896484375
-0.27783201171875,0.07188363525390624,0.9852449365234375
-0.277102578125,0.09492212646484376,0.9837703369140625
-0.29728357421875,0.06845237060546874,0.985490703125
-0.2678630859375,0.03462990478515625,0.9906518017578125
-0.2542469921875,0.091245771484375,0.9852449365234375
-0.24136033203125,0.04124734375,0.9837703369140625
-0.27394169921875,0.06011929931640625,1.00023669921875
-0.2240970703125,0.080461796875,1.0388220556640624
-0.27783201171875,0.04296297607421875,1.0132623291015626
-0.26518849609375,0.07041309326171875,1.00613509765625
-0.1988100390625,0.05325677001953125,0.9763973388671875
-0.28585578125,0.09492212646484376,1.00810123046875
-0.19856689453125,0.03119864013671875,1.0058893310546875
-0.26372962890625,0.09149086181640625,0.996795966796875
-0.2678630859375,0.07237381591796875,0.9783634716796875
-0.25157240234375,0.049090234375,0.96484630859375
-0.2717533984375,0.0760501708984375,0.9749227392578125
-0.255705859375,0.0682072802734375,1.0179318945312499
-0.23747001953125,0.08707923583984375,1.0137538623046876
-0.24427806640625,0.09394176513671874,0.98057537109375
-0.2542469921875,0.05276658935546875,0.9768888720703125
-0.25862359375,0.083402880859375,0.9936010009765625
-0.23260712890625002,0.0878145068359375,0.9778719384765625
-0.253760703125,0.0809519775390625,0.9783634716796875
-0.21704587890625,0.10129447509765625,0.976151572265625
-0.22044990234375,0.087324326171875,0.9626344091796875
-0.22750109375,0.0750698095703125,0.977134638671875
-0.20391607421875,0.1123235400390625,1.0122792626953125
-0.21558701171875,0.095167216796875,0.9972875
-0.22774423828125,0.116735166015625,0.9739396728515625
-0.21607330078125,0.1054610107421875,0.9660751416015625
-0.2124261328125,0.11599989501953126,0.9749227392578125
-0.21364185546875,0.11796061767578125,0.976151572265625
-0.22677166015625,0.09394176513671874,0.9803296044921875
-0.26251390625,0.12947986328125,0.9818042041015624
-0.22920310546875,0.11649007568359375,0.9783634716796875
-0.23819945312500002,0.1417343798828125,0.9778719384765625
-0.23917203125,0.11943115966796874,0.981066904296875
-0.2114535546875,0.12923477294921876,0.9717277734375
-0.21510072265625,0.112813720703125,0.981066904296875
-0.23990146484375,0.108892275390625,0.974185439453125
-0.24281919921875,0.13413657958984376,0.968287041015625
-0.267376796875,0.12335260498046875,0.9503460791015625
-0.2172890234375,0.11747043701171875,0.9454307470703125
-0.18981369140625,0.12384278564453124,0.9975332666015625
-0.22944625,0.1172253466796875,1.0152284619140626
-0.20488865234375,0.10864718505859375,0.9857364697265625
-0.21801845703125,0.12335260498046875,0.9960586669921875
-0.183735078125,0.1348718505859375,0.97664310546875
-0.18251935546875,0.13021513427734374,0.9960586669921875
-0.18106048828125,0.1182057080078125,1.02776255859375
-0.1783858984375,0.1235976953125,1.0184234277343749
-0.20780638671875,0.126538779296875,0.992863701171875
-0.218747890625,0.09100068115234375,0.957473310546875
-0.214857578125,0.1309504052734375,0.9292101513671875
-0.20829267578125,0.11452935302734375,0.95796484375
-0.18495080078125,0.11403917236328125,0.97860923828125
-0.20732009765625,0.13462676025390624,0.972219306640625
-0.1900568359375,0.10080429443359375,0.977134638671875
-0.21193984375,0.1329111279296875,0.9552614111328125
-0.1633109375,0.14516564453125,0.9532952783203125
-0.17911533203125,0.13462676025390624,0.9419900146484375
-0.175954453125,0.14418528320312501,1.01203349609375
-0.16890326171875,0.15374380615234376,1.0171945947265626
-0.18008791015625,0.143204921875,1.0029401318359374
-0.20026890625,0.17237067138671874,0.9827872705078124
-0.18470765625,0.15815543212890626,0.980083837890625
-0.1851939453125,0.15227326416015624,0.98450763671875
-0.16987583984375,0.16746886474609374,1.009084296875
-0.1443456640625,0.17139031005859376,1.0211268603515624
-0.15917748046875,0.13732275390625,1.0307117578125
-0.17619759765625,0.12923477294921876,1.023338759765625
-0.16160892578125,0.16452778076171876,1.032677890625
-0.1579617578125,0.14835181884765625,1.0412797216796874
-0.18689595703125,0.1103628173828125,1.021372626953125
-0.17376615234375,0.143204921875,1.0378389892578126
-0.16890326171875,0.118695888671875,0.9677955078125
-0.19370400390625,0.14933218017578126,0.977134638671875
-0.195406015625,0.14590091552734374,0.9906518017578125
-0.12610982421875,0.118695888671875,0.9444476806640625
-0.17668388671875,0.16501796142578126,0.993355234375
-0.1633109375,0.13560712158203125,1.0575003173828126
-0.160393203125,0.14933218017578126,1.01399962890625
-0.16112263671875,0.1554594384765625,0.9626344091796875
-0.14969484375,0.12972495361328126,0.985982236328125
-0.1414279296875,0.15472416748046874,1.0393135888671874
-0.1477496875,0.1936935302734375,1.0471781201171875
-0.20464550781250002,0.12531332763671876,1.0196522607421874
-0.15917748046875,0.1510478125,1.0579918505859376
-0.16185207031249998,0.17629211669921874,0.979100771484375
-0.13972591796875,0.15325362548828125,0.9685328076171875
-0.16647181640625,0.16256705810546876,1.00416896484375
-0.17619759765625,0.14295983154296876,1.0260421923828125
-0.1346198828125,0.16158669677734375,1.0245675927734375
-0.144831953125,0.18119392333984374,1.0078554638671875
-0.14993798828125,0.1289896826171875,0.990897568359375
-0.17036212890625,0.15472416748046874,1.005643564453125
-0.1492085546875,0.17040994873046875,1.0206353271484374
-0.17182099609375,0.1711452197265625,0.9837703369140625
-0.11541146484375,0.1584005224609375,1.0228472265625
-0.13729447265625,0.17261576171875,1.03661015625
-0.15674603515625,0.18021356201171876,1.0582376171875
-0.11200744140625,0.1603612451171875,1.0149826953125
-0.15188314453125001,0.173596123046875,1.02186416015625
-0.1317021484375,0.1368325732421875,0.990897568359375
-0.12440781249999999,0.1789881103515625,1.00515203125
-0.1229489453125,0.17188049072265624,0.9950756005859375
-0.12562353515625,0.16305723876953124,0.9808211376953125
-0.12367837890625,0.155949619140625,0.9675497412109375
-0.1375376171875,0.13070531494140625,0.9709904736328125
-0.12829812499999999,0.15227326416015624,0.9886856689453125
-0.12343523437500001,0.16305723876953124,1.0368559228515626
-0.14021220703125,0.13903838623046874,1.025304892578125
-0.119544921875,0.14246965087890626,1.028745625
-0.12829812499999999,0.10717664306640624,0.991880634765625
-0.14604767578125,0.15031254150390624,1.0029401318359374
-0.13680818359375,0.15472416748046874,1.0142453955078126
-0.174981875,0.12384278564453124,0.9837703369140625
-0.14629082031250001,0.18707609130859376,1.0250591259765625
-0.10860341796875,0.1427147412109375,1.0137538623046876
-0.133161015625,0.179478291015625,1.00515203125
-0.11054857421875,0.17776265869140626,1.0314490576171875
-0.12124693359375,0.1956542529296875,1.0407881884765624
-0.13607875,0.199085517578125,1.0461950537109375
-0.1783858984375,0.21648693115234374,1.05332228515625
-0.13802390625,0.21158512451171874,1.0267794921875
-0.1657423828125,0.21746729248046875,1.039067822265625
-0.16501294921875,0.238299970703125,1.0633987158203124
-0.17303671874999998,0.252025029296875,1.0889584423828125
-0.19637859375,0.24540759033203124,1.096085673828125
-0.1477496875,0.2240847314453125,1.0422627880859374
-0.0855046875,0.1848702783203125,1.0810939111328124
-0.11079171875,0.073599267578125,1.1211538671875
-0.14750654296875,0.00766996826171875,1.0658563818359374
-0.15966376953125,0.0976181201171875,0.947642646484375
-0.18981369140625,0.05864875732421875,0.8613785693359375
-0.16793068359375,-0.01438816162109375,0.7871570556640625
-0.14969484375,0.032424091796875,0.7311222705078125
-0.0412523828125,0.06158984130859375,0.730384970703125
-0.03420119140625,0.06894255126953125,0.700892978515625
-0.008671015625,0.06257020263671875,0.7316138037109375
-0.01572220703125,0.06109966064453125,0.78396208984375
-0.01766736328125,0.13021513427734374,0.91569298828125
-0.113709453125,0.2417312353515625,1.0550426513671876
-0.174009296875,0.284376953125,1.145238994140625
-0.21364185546875,0.30079800537109375,1.1641630224609374
-0.1851939453125,0.2900140307617187,1.0776531787109376
-0.179844765625,0.27824969482421874,1.006626630859375
-0.1725504296875,0.271632255859375,0.9557529443359375
-0.18057419921875,0.2731027978515625,0.922082919921875
-0.16720125,0.27285770751953126,0.923065986328125
-0.18227621093750002,0.28511222412109377,0.9773804052734375
-0.1686601171875,0.29810201171875,0.99433830078125
-0.12902755859375,0.2574170166015625,0.97271083984375
-0.10519939453125,0.25619156494140627,1.0068723974609375
-0.10519939453125,0.2547210229492187,1.0491442529296875
-0.16452666015625,0.20472259521484376,1.0678225146484375
-0.2114535546875,0.22531018310546874,1.094119541015625
-0.26713365234374997,0.20006587890625,1.0540595849609375
-0.21412814453125,0.18315464599609374,0.981066904296875
-0.19273142578125,0.17776265869140626,0.9498545458984375
-0.166228671875,0.10913736572265625,0.94125271484375
-0.13486302734375,0.1299700439453125,0.9206083203125
-0.12173322265625,0.12947986328125,0.934862783203125
-0.16015005859375,0.07531489990234375,0.9478884130859375
-0.12440781249999999,0.09884357177734375,0.9223286865234375
-0.143859375,0.1314405859375,0.911269189453125
-0.137051328125,0.0966377587890625,0.9449392138671875
-0.18081734375,0.134381669921875,0.993846767578125
-0.183735078125,0.12972495361328126,1.031203291015625
-0.2182616015625,0.12629368896484375,1.09067880859375
-0.2698082421875,0.15864561279296874,1.049881552734375
-0.26421591796875,0.191242626953125,0.9877026025390625
-0.21607330078125,0.208889130859375,0.9756600390625
-0.24330548828125,0.1941837109375,1.0083469970703125
-0.24379177734375002,0.19614443359375,1.0643817822265624
-0.19370400390625,0.2270258154296875,1.04545775390625
-0.1725504296875,0.21256548583984375,0.9950756005859375
-0.16549923828125,0.21403602783203124,0.986965302734375
-0.20464550781250002,0.23560397705078126,1.0058893310546875
-0.19175884765625,0.21183021484375,1.0422627880859374
-0.21899103515625,0.189281904296875,1.0575003173828126
-0.20804953125,0.20521277587890624,1.044966220703125
-0.2056180859375,0.19295825927734375,1.040050888671875
-0.25789416015625,0.17237067138671874,1.0329236572265625
-0.251815546875,0.2123203955078125,1.003677431640625
-0.2255559375,0.1642826904296875,0.9464138134765625
-0.23698373046875,0.174576484375,0.9442019140625
-0.19419029296875,0.16795904541015624,0.9559987109375
-0.18835482421875,0.14418528320312501,0.9641090087890625
-0.1530988671875,0.1799684716796875,0.977134638671875
-0.17862904296875,0.16452778076171876,0.9795923046875
-0.158448046875,0.12580350830078124,0.9704989404296875
-0.1521262890625,0.1299700439453125,0.95796484375
-0.20804953125,0.1466361865234375,0.9306847509765624
-0.1997826171875,0.16624341308593749,0.930930517578125
-0.20537494140625,0.10913736572265625,0.928964384765625
-0.20683380859375,0.16085142578125,0.993846767578125
-0.22093619140625,0.13658748291015624,0.9881941357421875
-0.183735078125,0.15692998046875,0.98843990234375
-0.19710802734375,0.1838899169921875,0.9709904736328125
-0.16598552734375,0.1809488330078125,0.9852449365234375
-0.1744955859375,0.17237067138671874,1.0157199951171876
-0.191515703125,0.2025167822265625,1.0398051220703124
-0.1851939453125,0.2333981640625,1.0383305224609374
-0.17522501953125,0.18119392333984374,0.99040603515625
-0.17133470703125,0.21183021484375,0.9835245703125
-0.19078626953125,0.1907524462890625,0.984016103515625
-0.15431458984375,0.17531175537109375,0.9975332666015625
-0.19905318359375002,0.20178151123046875,0.98057537109375
-0.195406015625,0.18217428466796876,0.9970417333984375
-0.2450075,0.17090012939453125,1.0157199951171876
-0.19856689453125,0.19933060791015625,1.037101689453125
-0.18981369140625,0.15129290283203126,1.0034316650390624
-0.15285572265625,0.17040994873046875,1.0029401318359374
-0.1735230078125,0.16599832275390625,1.01203349609375
-0.13145900390625,0.15031254150390624,0.99630443359375
-0.1851939453125,0.17776265869140626,0.999745166015625
-0.185680234375,0.157910341796875,0.97074470703125
-0.1744955859375,0.1701648583984375,0.9621428759765625
-0.17692703125,0.148106728515625,0.9498545458984375
-0.177899609375,0.1829095556640625,0.9754142724609375
-0.17376615234375,0.1784979296875,0.9655836083984375
-0.2099946875,0.16942958740234376,0.9439561474609375
-0.18397822265625,0.17188049072265624,0.95894791015625
-0.21364185546875,0.15692998046875,0.99630443359375
-0.17619759765625,0.21648693115234374,1.0063808642578125
-0.1569891796875,0.1829095556640625,0.9847534033203125
-0.179844765625,0.1397736572265625,0.9857364697265625
-0.1317021484375,0.17874302001953124,1.0053977978515625
-0.14118478515625,0.1407540185546875,0.9783634716796875
-0.185680234375,0.1515379931640625,1.0073639306640625
-0.19346085937500002,0.2142811181640625,1.0110504296875
-0.2114535546875,0.16477287109375,0.9599309765625
-0.22482650390625,0.1946738916015625,0.9913891015625
-0.20464550781250002,0.21452620849609375,1.0189149609375
-0.22361078125,0.22089855712890624,1.0417712548828124
-0.21655958984375,0.2015364208984375,1.0643817822265624
-0.17425244140625,0.17335103271484376,1.0071181640625
-0.12343523437500001,0.19222298828125,0.998762099609375
-0.18689595703125,0.18854663330078125,1.00023669921875
-0.1443456640625,0.1436951025390625,0.9835245703125
-0.12829812499999999,0.12923477294921876,0.9498545458984375
-0.117599765625,0.108892275390625,0.9154472216796875
-0.089395,0.14982236083984374,0.9582106103515625
-0.1355924609375,0.1142842626953125,0.9599309765625
-0.18470765625,0.1260485986328125,0.957473310546875
-0.1511537109375,0.09418685546875,0.8869382958984375
-0.15723232421875,0.21648693115234374,0.8756330322265625
-0.16647181640625,0.16795904541015624,0.9223286865234375
-0.19346085937500002,0.12972495361328126,1.00416896484375
-0.14021220703125,0.19614443359375,1.009084296875
-0.15577345703125,0.1917328076171875,1.001219765625
-0.1239215234375,0.1868310009765625,0.9886856689453125
-0.1511537109375,0.20276187255859374,0.9896687353515625
-0.19613544921875,0.14835181884765625,1.009575830078125
-0.19175884765625,0.16624341308593749,0.9808211376953125
-0.168173828125,0.17727247802734375,0.9245405859375
-0.195406015625,0.16011615478515626,0.9228202197265625
-0.18470765625,0.138303115234375,0.97074470703125
-0.1744955859375,0.15864561279296874,0.9601767431640625
-0.1910294140625,0.17090012939453125,0.912252255859375
-0.1657423828125,0.1260485986328125,0.8576920703124999
-0.13243158203125,0.13266603759765624,0.8658023681640625
-0.131215859375,0.1270289599609375,0.913235322265625
-0.16112263671875,0.07335417724609375,0.9397781152343749
-0.15285572265625,0.12188206298828125,0.9233117529296875
-0.1005796484375,0.07433453857421875,0.8348357763671875
-0.10203851562499999,0.11011772705078125,0.8717007666015625
-0.11881548828124999,0.138303115234375,0.92355751953125
-0.1482359765625,0.07850107421875,0.9990078662109375
-0.25084296875,0.1250682373046875,1.070525947265625
-0.24087404296875,0.10423555908203125,1.0235845263671874
-0.20683380859375,0.1510478125,0.957473310546875
-0.16647181640625,0.19933060791015625,0.9179048876953125
-0.15577345703125,0.195164072265625,0.920116787109375
-0.18106048828125,0.17923320068359375,0.9842618701171875
-0.13510617187500001,0.21967310546875,1.0206353271484374
-0.1472633984375,0.20472259521484376,0.9670582080078125
-0.13826705078125,0.15766525146484375,0.95894791015625
-0.12343523437500001,0.19099753662109376,0.964354775390625
-0.181789921875,0.16403760009765625,0.9813126708984374
-0.2231244921875,0.17139031005859376,1.024813359375
-0.220693046875,0.2098694921875,0.980083837890625
-0.21510072265625,0.15374380615234376,0.9284728515625
-0.23163455078125,0.18609572998046875,0.998762099609375
-0.237226875,0.1584005224609375,1.009575830078125
-0.18495080078125,0.1564397998046875,0.9695158740234375
-0.19467658203125,0.138303115234375,0.987948369140625
-0.1997826171875,0.1956542529296875,0.9196252539062499
-0.2075632421875,0.16673359375,0.9169218212890625
-0.22385392578125,0.19099753662109376,0.9154472216796875
-0.210967265625,0.21795747314453126,0.9149556884765625
-0.18349193359375,0.19786006591796876,0.883251796875
-0.185680234375,0.18609572998046875,0.8549886376953125
-0.10568568359375,0.189281904296875,0.8559717041015625
-0.0500055859375,0.1809488330078125,0.86260740234375
-0.072861171875,0.16746886474609374,0.8766160986328125
-0.05219388671875,0.17286085205078125,0.86850580078125
-0.060947089843749996,0.181439013671875,0.825742412109375
-0.054868476562500004,0.175556845703125,0.763809228515625
-0.06483740234375,0.15325362548828125,0.7328426367187499
-0.0743200390625,0.16403760009765625,0.70924904296875
-0.1073876953125,0.175556845703125,0.6932742138671875
-0.146777109375,0.15619470947265626,0.71318130859375
-0.1744955859375,0.20374223388671875,0.7321053369140624
-0.226528515625,0.23560397705078126,0.7792925244140625
-0.2488978125,0.26060319091796874,0.8864467626953125
-0.22093619140625,0.2887885791015625,0.9724650732421874
-0.20099833984375,0.29050421142578126,0.99827056640625
-0.18689595703125,0.29050421142578126,0.9616513427734374
-0.1920019921875,0.25374066162109377,0.828200078125
-0.1530988671875,0.23168253173828124,0.81148794921875
-0.14264365234375,0.22138873779296875,0.7891231884765625
-0.18786853515625002,0.09835339111328124,0.822793212890625
-0.2299325390625,0.042227705078125,0.842454541015625
-0.2255559375,0.1240878759765625,0.881777197265625
-0.2678630859375,0.042227705078125,0.8525309716796875
-0.27418484375,0.03757098876953125,0.8852179296875
-0.2435486328125,0.1314405859375,0.9129895556640625
-0.24525064453125,0.077520712890625,0.949608779296875
-0.24962724609375,0.09982393310546875,0.9813126708984374
-0.2357680078125,0.06698182861328125,0.9965502001953125
-0.1949197265625,0.087324326171875,0.9729566064453125
-0.224583359375,0.10595119140625,0.9100403564453124
-0.2318776953125,0.07972652587890625,0.9051250244140625
-0.24622322265625,0.08119706787109375,0.9341254833984375
-0.24038775390625,0.0868341455078125,0.8933282275390625
-0.29363640625,0.03315936279296875,0.9021758251953125
-0.28074974609375003,0.02090484619140625,0.9183964208984375
-0.30409162109375,0.0182088525390625,0.9528037451171875
-0.33764556640625,0.0255615625,0.9940925341796875
-0.36682291015625,-0.0023787353515625003,1.0058893310546875
-0.34421046875,0.05423713134765625,0.993846767578125
-0.35393625,0.046149150390625,0.9874568359375
-0.377278125,0.059874208984374996,0.9877026025390625
-0.333512109375,0.01747358154296875,0.9768888720703125
-0.263486484375,0.06747200927734374,0.965829375
-0.2902323828125,0.12139188232421876,1.0078554638671875
-0.2921775390625,0.08364797119140625,1.0167030615234376
-0.279047734375,0.08413815185546875,1.06511908203125
-0.29096181640625,0.14516564453125,1.03366095703125
-0.29047552734375,0.0922261328125,1.0073639306640625
-0.33813185546875,0.1270289599609375,1.066593681640625
-0.35393625,0.0966377587890625,1.0629071826171874
-0.34202216796875,0.08609887451171874,1.0778989453125
-0.37338781249999997,0.0373258984375,1.100017939453125
-0.374360390625,-0.0406128271484375,1.0592206835937499
-0.31381740234375,-0.107767578125,0.9513291455078126
-0.24719580078125,-0.08693489990234375,0.867031201171875
-0.17327986328125,-0.08301345458984374,0.8250051123046875
-0.10568568359375,-0.08595453857421875,0.8795652978515625
-0.10617197265625,-0.05360261474609375,1.0152284619140626
-0.2571647265625,-0.04134809814453125,1.078390478515625
-0.20829267578125,-0.0210056005859375,1.0343982568359376
-0.2309051171875,0.0436982470703125,0.9655836083984375
-0.19419029296875,0.10276501708984374,0.9670582080078125
-0.20780638671875,-0.05090662109375,0.974185439453125
-0.0927990234375,0.0525214990234375,1.0437373876953124
-0.08185751953125,0.06992291259765625,1.0550426513671876
-0.1229489453125,0.10202974609375,1.06511908203125
-0.09498732421875,0.12825441162109374,1.0393135888671874
-0.090367578125,0.17384121337890626,1.056271484375
-0.1365650390625,0.15717507080078125,1.1282810986328125
-0.15188314453125001,0.1280093212890625,1.1833328173828126
-0.11225058593750001,0.2407508740234375,1.229782705078125
-0.201241484375,0.283396591796875,1.2550966650390625
-0.18859796875,0.29736674072265623,1.258291630859375
-0.19953947265625,0.33609101318359375,1.2511643994140624
-0.21972046875,0.3338852001953125,1.2609950634765625
-0.197351171875,0.3427084521484375,1.206189111328125
-0.174009296875,0.36452149169921877,1.20962984375
-0.1326747265625,0.377511279296875,1.25976623046875
-0.10106593750000001,0.36501167236328125,1.2531305322265625
-0.1034973828125,0.38608944091796876,1.212087509765625
-0.148722265625,0.36746257568359375,1.18701931640625
-0.11298001953125,0.3593745947265625,1.1479424267578124
-0.14118478515625,0.23928033203125,1.124594599609375
-0.2260422265625,0.0574233056640625,1.1076367041015625
-0.228473671875,-0.0033590966796874996,1.052830751953125
-0.18932740234375,-0.09796396484375,0.9700074072265625
-0.19516287109375,-0.12909043701171874,0.8923451611328125
-0.20002576171875,-0.13546278564453124,0.83311541015625
-0.19856689453125,-0.15605037353515624,0.780521357421875
-0.20877896484375,-0.17835359375,0.73775796875
-0.1813036328125,-0.1719812451171875,0.7161305078125
-0.19856689453125,-0.1396293212890625,0.70138451171875
-0.21510072265625,-0.12909043701171874,0.7124440087890624
-0.2318776953125,-0.14722712158203125,0.7075286767578125
-0.28998923828125,-0.11438501708984375,0.7237492724609375
-0.277102578125,-0.057769150390625,0.7763433251953125
-0.34445361328125,-0.06144550537109375,0.7945300537109374
-0.39843169921875,-0.04821062744140625,0.8544971044921875
-0.42931105468749997,-0.029338671875,0.8677685009765626
-0.40086314453125,0.044188427734375,0.8599039697265625
-0.39308251953125,0.0878145068359375,0.81935248046875
-0.40669861328125,0.0819323388671875,0.788877421875
-0.39818855468750003,0.069677822265625,0.782487490234375
-0.39259623046875003,0.1471263671875,0.8215643798828125
-0.3612305859375,0.13903838623046874,0.875878798828125
-0.35977171875,0.07433453857421875,0.89406552734375
-0.321841171875,0.07629526123046874,0.9090572900390625
-0.30992708984375,0.052031318359375,0.9169218212890625
-0.32451576171875,0.021640117187500002,0.9444476806640625
-0.3116291015625,0.0544822216796875,0.925032119140625
-0.3203823046875,0.05668803466796875,0.93928658203125
-0.28853037109375,0.034384814453125,0.9916348681640625
-0.27345541015625,0.01796376220703125,0.9945840673828125
-0.17036212890625,0.0123266845703125,0.999745166015625
-0.1788721875,-0.01389798095703125,1.0039231982421875
-0.13194529296875,-0.02419177490234375,1.0029401318359374
-0.125380390625,-0.0955130615234375,1.0307117578125
-0.10276794921875,-0.11364974609375,1.0747039794921875
-0.03225603515625,-0.10727739746093751,1.1199250341796876
0.05065625,-0.13252170166015625,1.198324580078125
0.06062517578125,-0.15654055419921875,1.3067076513671876
-0.011831894531250001,-0.2278618408203125,1.3696239013671876
-0.07845349609375,-0.20751934326171875,1.221426640625
0.03436556640625,-0.175412509765625,1.0923991748046875
0.0462796484375,-0.201882265625,1.1400778955078126
0.0268280859375,-0.173451787109375,1.2895039892578124
0.09150453124999999,-0.19036302001953126,1.3919886621093749
0.1245721875,-0.17247142578125,1.50553283203125
0.04506392578125,-0.10580685546875,1.6048225390625
-0.25108611328125,0.04320806640625,1.57041521484375
-0.28123603515625,0.02531647216796875,1.292207421875
-0.27053767578125,0.0054641552734375,1.243545634765625
-0.26616107421875,0.1015395654296875,1.3475049072265626
-0.3252451953125,0.13658748291015624,1.482430771484375
-0.4438997265625,0.10570610107421875,1.461786376953125
-0.42031470703125,0.17506666503906249,1.3089195507812499
-0.38384302734375,0.161831787109375,1.1872650830078124
-0.36755234375,0.096147578125,1.1051790380859374
-0.32500205078125,0.0486000537109375,1.0860092431640624
-0.37703498046875,0.05374695068359375,1.1115689697265625
-0.4045103125,0.04835496337890625,1.0707717138671875
-0.43149935546875,0.04933532470703125,1.02776255859375
-0.45775896484375,0.02433611083984375,0.979100771484375
-0.4468174609375,0.00570924560546875,0.88226873046875
-0.40378087890625003,0.01698340087890625,0.818860947265625
-0.3811684375,-0.0308092138671875,0.780521357421875
-0.39210994140625,-0.0396324658203125,0.7650380615234375
-0.40232201171875,-0.0161037939453125,0.76233462890625
-0.4001337109375,-0.02149578125,0.76036849609375
-0.36730919921875,-0.012672529296875,0.728418837890625
-0.292663828125,0.03561026611328125,0.704825244140625
-0.2328502734375,0.04002189208984375,0.6898334814453125
-0.187625390625,0.05521749267578125,0.7301392041015625
-0.220693046875,0.07335417724609375,0.7925639208984375
-0.2649453515625,0.05497240234375,0.80952181640625
-0.26056875,0.06600146728515625,0.8014115185546875
-0.20099833984375,0.1113431787109375,0.7640549951171876
-0.1890842578125,0.11698025634765626,0.7925639208984375
-0.1871391015625,0.09026541015625,0.8240220458984375
-0.1774133203125,0.099088662109375,0.8176321142578125
-0.12319208984375,0.12972495361328126,0.8254966455078125
-0.097175625,0.16746886474609374,0.8136998486328125
-0.089395,0.16158669677734375,0.793301220703125
-0.04878986328125,0.15374380615234376,0.80165728515625
-0.057299921875,0.17139031005859376,0.8166490478515624
-0.0743200390625,0.16060633544921876,0.7955131201171874
-0.0772377734375,0.14148928955078124,0.8038691845703125
-0.10179537109375,0.16746886474609374,0.8712092333984375
-0.11541146484375,0.15129290283203126,0.9164302880859375
-0.10763083984374999,0.16942958740234376,0.96484630859375
-0.12270580078125,0.15300853515625001,0.97664310546875
-0.10763083984374999,0.13340130859375,0.92945591796875
-0.11930177734375,0.1515379931640625,0.87047193359375
-0.10811712890625,0.16256705810546876,0.829674677734375
-0.09693248046875,0.13462676025390624,0.7994453857421875
-0.092312734375,0.0348749951171875,0.806081083984375
-0.06678255859375,0.09737302978515625,0.822793212890625
-0.080641796875,0.08903995849609375,0.810996416015625
-0.1171134765625,0.09247122314453125,0.894557060546875
-0.18495080078125,0.07874616455078125,0.92552365234375
-0.20488865234375,0.1162449853515625,0.9090572900390625
-0.2279873828125,0.10178465576171875,0.9149556884765625
-0.2328502734375,0.07188363525390624,0.906353857421875
-0.24914095703125,0.06600146728515625,0.8707177001953125
-0.2523018359375,0.0966377587890625,0.863098935546875
-0.2464663671875,0.114774443359375,0.847369873046875
-0.25546271484375,0.1093824560546875,0.8623616357421875
-0.2464663671875,0.10595119140625,0.8884128955078126
-0.26129818359375,0.12163697265625,0.9370746826171875
-0.26810623046875,0.11011772705078125,0.9277355517578125
-0.26056875,0.10913736572265625,0.889641728515625
-0.26859251953125,0.128499501953125,0.9267524853515625
-0.3145468359375,0.12947986328125,0.9754142724609375
-0.3077387890625,0.134381669921875,1.0240760595703124
-0.338375,0.126538779296875,1.04152548828125
-0.304334765625,0.114774443359375,1.0122792626953125
-0.17036212890625,0.05031568603515625,1.0270252587890625
-0.1866528125,0.04320806640625,1.075441279296875
-0.17084841796875,-0.01781942626953125,1.12410306640625
-0.17376615234375,-0.075415654296875,1.094119541015625
-0.1433730859375,-0.085219267578125,1.0712632470703125
-0.1783858984375,-0.10703230712890625,1.0845346435546874
-0.10422681640625,-0.107767578125,1.0865007763671874
-0.14993798828125,-0.11830646240234374,1.1523662255859375
-0.19029998046875,-0.051886982421875,1.1730106201171875
-0.2328502734375,-0.04085791748046875,1.118696201171875
-0.22385392578125,-0.0533575244140625,1.1543323583984375
-0.2318776953125,-0.00850599365234375,1.2329776708984375
-0.2357680078125,0.0368357177734375,1.2256046728515626
-0.22142248046875002,0.04198261474609375,1.20078224609375
-0.26372962890625,0.07727562255859374,1.1916888818359375
-0.19953947265625,0.09002031982421875,1.2162655419921875
-0.26324333984375,0.091245771484375,1.280410625
-0.30068759765624997,0.13340130859375,1.2801648583984375
-0.2902323828125,0.1456558251953125,1.194392314453125
-0.34032015625,0.1172253466796875,1.098051806640625
-0.28512634765625,0.0917359521484375,1.064627548828125
-0.26081189453125,0.050070595703125,1.0896957421875
-0.2488978125,0.05178622802734375,1.135408330078125
-0.2435486328125,0.0211499365234375,1.1680952880859374
-0.2017277734375,0.0280124658203125,1.168832587890625
-0.19127255859375,0.01796376220703125,1.1179589013671876
-0.1978374609375,0.0329142724609375,1.1140266357421875
-0.18008791015625,0.01845394287109375,1.0909245751953125
-0.2177753125,0.02090484619140625,1.0722463134765625
-0.1715778515625,-0.00850599365234375,1.0742124462890625
-0.22628537109375,-0.004829638671875,1.0722463134765625
-0.22190876953125,0.01796376220703125,1.0417712548828124
-0.282938046875,0.01404231689453125,1.0127707958984375
-0.25546271484375,0.0191892138671875,0.9793465380859375
-0.25862359375,0.07090327392578125,0.9454307470703125
-0.245980078125,0.0789912548828125,0.910286123046875
-0.2488978125,0.0907555908203125,0.8608870361328125
-0.230418828125,0.08462833251953125,0.839996875
-0.26470220703125,0.073599267578125,0.863098935546875
-0.27272597656249997,0.04541387939453125,0.9134810888671875
-0.28585578125,0.0495804150390625,0.9395323486328125
-0.26810623046875,0.04688442138671875,0.8889044287109376
-0.25838044921875,0.07188363525390624,0.856217470703125
-0.25157240234375,0.0544822216796875,0.846386806640625
-0.22579908203125,0.02874773681640625,0.8707177001953125
-0.212912421875,0.02360083984375,0.8830060302734375
-0.2075632421875,0.04149243408203125,0.8893959619140624
-0.1997826171875,0.04124734375,0.8658023681640625
-0.21753216796875,0.0037485229492187503,0.841471474609375
-0.2095083984375,0.0069346972656249995,0.8176321142578125
-0.19346085937500002,0.00717978759765625,0.79969115234375
-0.2333365625,-0.0327699365234375,0.823776279296875
-0.23139140625,-0.0396324658203125,0.81738634765625
-0.23649744140625,-0.0612004150390625,0.7979707861328125
-0.2177753125,-0.05605351806640625,0.8082929833984375
-0.24427806640625,-0.06536695068359374,0.7989538525390625
-0.22434021484375,-0.08227818359375,0.7556989306640625
-0.21753216796875,-0.07271966064453125,0.75053783203125
-0.2566784375,-0.0504164404296875,0.7547158642578125
-0.2882872265625,-0.03105430419921875,0.77019916015625
-0.35612455078125,0.0005623486328125002,0.81738634765625
-0.38505875,0.01551285888671875,0.825742412109375
-0.39697283203125,0.020659755859375,0.8023945849609375
-0.341292734375,0.05962911865234375,0.7945300537109374
-0.3281629296875,0.08315779052734375,0.7989538525390625
-0.30530734375,0.04712951171875,0.79379275390625
-0.331566953125,0.06158984130859375,0.7952673535156249
-0.34980279296875,0.01404231689453125,0.7719195263671875
-0.37752126953125,-0.0018885546875000003,0.7183424072265625
-0.31308796875,0.008405239257812499,0.68565544921875
-0.3048210546875,0.01796376220703125,0.6854096826171875
-0.391866796875,-0.00703545166015625,0.781504423828125
-0.44049570312499997,0.032424091796875,0.8766160986328125
-0.45921783203125,0.03928662109375,0.914709921875
-0.48037140625,0.06011929931640625,0.902913125
-0.46602587890625,0.03953171142578125,0.8431918408203125
-0.413263515625,0.01845394287109375,0.810996416015625
-0.38141158203125003,0.05521749267578125,0.8397511083984375
-0.36925435546875,0.03119864013671875,0.8810398974609375
-0.40329458984375,0.04933532470703125,0.917167587890625
-0.3923530859375,0.064776015625,0.9051250244140625
-0.3777644140625,0.0956573974609375,0.8638362353515625
-0.34421046875,0.153988896484375,0.854251337890625
-0.40645546875,0.13266603759765624,0.8363103759765624
-0.39600025390625,0.1133039013671875,0.846386806640625
-0.403537734375,0.1260485986328125,0.8407341748046875
-0.3748466796875,0.114774443359375,0.8721922998046875
-0.38238416015625,0.14246965087890626,0.92945591796875
-0.39454138671875,0.1250682373046875,0.950591845703125
-0.370470078125,0.13560712158203125,0.9985163330078125
-0.36730919921875,0.14688127685546876,1.0869923095703125
-0.39162365234375,0.15080272216796875,1.0928907080078125
-0.34202216796875,0.1534987158203125,1.056763017578125
-0.38870591796875,0.16599832275390625,0.97271083984375
-0.403537734375,0.2093793115234375,0.97467697265625
-0.475508515625,0.1603612451171875,0.9739396728515625
-0.5110076171875,0.0897752294921875,0.98647376953125
-0.53313376953125,0.08021670654296875,0.95894791015625
-0.5148979296875,0.0858537841796875,0.915201455078125
-0.4750222265625,0.11796061767578125,0.890624794921875
-0.46067669921875,0.02972809814453125,0.8879213623046875
-0.450221484375,-0.01561361328125,0.93732044921875
-0.43879369140625,0.0564429443359375,0.990897568359375
-0.426879609375,0.09247122314453125,1.0255506591796875
-0.485234296875,0.06404074462890624,1.0953483740234375
-0.46091984375,0.0417375244140625,1.1086197705078125
-0.44535859375,0.06306038330078124,1.0982975732421876
-0.455084375,0.04198261474609375,1.03759322265625
-0.469673046875,0.0799716162109375,0.9950756005859375
-0.48158712890625,0.0652661962890625,0.926015185546875
-0.4779399609375,0.11599989501953126,0.8928366943359375
-0.473563359375,0.136342392578125,0.95501564453125
-0.52316484375,0.11305881103515625,1.0530765185546875
-0.48790888671875,0.11256863037109376,1.1054248046875
-0.43198564453125,0.09002031982421875,1.157035791015625
-0.42225986328125,0.10815700439453126,1.18112091796875
-0.44851947265625003,-0.0009081933593750001,1.122628466796875
-0.47088876953125003,0.053992041015625,1.0771616455078126
-0.44268400390625,0.06257020263671875,1.013508095703125
-0.47623794921875,0.057913486328125,1.0329236572265625
-0.45581380859375,-0.008751083984375,1.041033955078125
-0.4575158203125,0.04835496337890625,0.9970417333984375
-0.50298384765625,0.0682072802734375,0.91372685546875
-0.52875716796875,0.01183650390625,0.897506259765625
-0.51951767578125,0.0436982470703125,0.8353273095703125
-0.442440859375,0.06306038330078124,0.831640810546875
-0.39259623046875003,0.0368357177734375,0.9036504248046875
-0.35077537109375,0.03144373046875,0.97074470703125
-0.37022693359375003,0.06673673828125,0.9921264013671875
-0.40767119140625,0.05962911865234375,0.9965502001953125
-0.45240978515625,0.04100225341796875,1.001711298828125
-0.50201126953125,0.07629526123046874,0.9572275439453125
-0.41934212890625,0.04345315673828125,0.8783364648437499
-0.415208671875,0.0211499365234375,0.8589209033203125
-0.3826273046875,0.00987578125,0.8127167822265625
-0.294608984375,0.02923791748046875,0.798216552734375
-0.32111173828125,0.0012976196289062499,0.7837163232421875
-0.349073359375,0.07629526123046874,0.8368019091796874
-0.27029453125,0.12678386962890625,0.8830060302734375
-0.29193439453125003,0.124578056640625,0.959439443359375
-0.3446967578125,0.14786163818359374,1.032677890625
-0.36755234375,0.0843832421875,0.9773804052734375
-0.35758341796875,0.15325362548828125,0.8599039697265625
-0.24865466796875,0.12335260498046875,0.770690693359375
-0.2022140625,0.17776265869140626,0.8387680419921875
-0.23503857421875,0.14786163818359374,0.9852449365234375
-0.29047552734375,0.01257177490234375,1.0806023779296874
-0.29825615234375,0.0211499365234375,1.1218911669921874
-0.3164919921875,0.122617333984375,0.975168505859375
-0.222638203125,0.05423713134765625,0.813945615234375
-0.23212083984375,0.0819323388671875,0.7832247900390625
-0.3033621875,0.1133039013671875,0.828691611328125
-0.34810078125,0.140263837890625,0.8682600341796876
-0.27515742187500003,0.10913736572265625,0.89504859375
-0.2104809765625,0.13217585693359374,0.9360916162109375
-0.13802390625,0.08707923583984375,0.955507177734375
-0.117599765625,0.02237538818359375,0.962388642578125
-0.0645942578125,0.08953013916015624,1.01399962890625
-0.148722265625,0.1392834765625,1.080356611328125
-0.1686601171875,0.07261890625,1.0909245751953125
-0.23503857421875,0.1314405859375,1.076424345703125
-0.25546271484375,0.1348718505859375,1.0191607275390624
-0.1443456640625,0.085363603515625,1.0130165625
-0.0937716015625,0.1250682373046875,1.070525947265625
-0.10908970703125,0.061834931640625,1.14966279296875
-0.16209521484375,0.06158984130859375,1.1533492919921875
-0.13413359375,0.153988896484375,1.079373544921875
-0.13000013671875,0.114774443359375,0.9847534033203125
-0.14750654296875,0.09051050048828126,1.0235845263671874
-0.11589775390625,0.07874616455078125,0.951574912109375
-0.0932853125,0.1005592041015625,0.926015185546875
-0.03322861328125,0.06158984130859375,1.0108046630859375
-0.0295814453125,0.046149150390625,1.1376202294921876
-0.21364185546875,0.010611052246093749,1.2332234375
-0.23260712890625002,-0.0009081933593750001,1.1710444873046875
-0.24768208984375,0.013552136230468751,0.984999169921875
-0.174009296875,0.03953171142578125,0.8997181591796874
-0.17960162109375,0.0682072802734375,0.9277355517578125
-0.255705859375,0.0721287255859375,0.93338818359375
-0.21193984375,0.03462990478515625,1.0024485986328124
-0.10908970703125,0.03708080810546875,1.03562708984375
-0.15358515625,0.01796376220703125,1.0535680517578125
-0.159420625,0.0152677685546875,1.0619241162109374
-0.1958923046875,0.0780108935546875,0.946659580078125
-0.17960162109375,0.10962754638671875,0.9336339501953125
-0.19078626953125,0.1064413720703125,1.06905134765625
-0.3320532421875,0.033404453125,1.1705529541015625
-0.352963671875,0.0829127001953125,1.1857904833984374
-0.28658521484375,0.09149086181640625,1.068559814453125
-0.29776986328125,0.09492212646484376,0.9901602685546875
-0.232363984375,0.15129290283203126,1.0110504296875
-0.2357680078125,0.0608545703125,1.027271025390625
-0.20440236328125,0.0255615625,1.0761785791015626
-0.23114826171875,-0.0631611376953125,1.0058893310546875
-0.12610982421875,-0.008996174316406251,0.925032119140625
-0.14458880859375,-0.03154448486328125,0.8485987060546875
-0.2114535546875,0.03757098876953125,0.8918536279296875
-0.337402421875,0.0294830078125,0.8948028271484375
-0.31138595703125,0.0633054736328125,0.89406552734375
-0.33642984375,0.0368357177734375,0.8655566015625
-0.22725794921875,-0.08203309326171875,0.829674677734375
-0.22677166015625,-0.0298288525390625,0.8451579736328125
-0.21972046875,-0.0690433056640625,0.84097994140625
-0.222638203125,-0.04330882080078125,0.8485987060546875
-0.206104375,-0.03742665283203125,0.91176072265625
-0.23892888671875,-0.016593974609375,0.984999169921875
-0.29776986328125,0.03413972412109375,1.00810123046875
-0.2454937890625,0.00717978759765625,0.911269189453125
-0.16793068359375,0.0829127001953125,0.8820229638671875
-0.22190876953125,0.069677822265625,0.9110234228515625
-0.268349375,0.0003172583007812497,0.9832788037109375
-0.288773515625,0.0436982470703125,1.000728232421875
-0.33035123046875,0.036345537109375,0.83704767578125
-0.2746711328125,0.036345537109375,0.77216529296875
-0.300444453125,-0.02860340087890625,0.6927826806640625
-0.3145468359375,0.05619785400390625,0.6514938916015625
-0.3072525,0.0829127001953125,0.6785282177734375
-0.242089765625,-0.00458454833984375,0.678773984375
-0.252788125,-0.05458297607421875,0.74267330078125
-0.16841697265625,-0.0170841552734375,0.8078014501953125
-0.1978374609375,0.01845394287109375,0.86850580078125
-0.314060546875,0.01894412353515625,0.92552365234375
-0.33375525390625,-0.04477936279296875,0.92945591796875
-0.28172232421875,-0.01953505859375,0.8864467626953125
-0.29509527343749997,-0.0082609033203125,0.86359046875
-0.20391607421875,-0.032279755859375,0.8812856640625
-0.18884111328125,-0.0092412646484375,0.890624794921875
-0.27102396484375,0.0294830078125,0.9631259423828125
-0.31770771484375,0.0858537841796875,0.985982236328125
-0.29631099609375,0.03708080810546875,1.00810123046875
-0.32208431640625,0.07678544189453125,0.94321884765625
-0.28707150390625,0.07850107421875,0.92945591796875
-0.15869119140625,0.03561026611328125,0.94125271484375
-0.2279873828125,-0.03203466552734375,0.9815584374999999
-0.1754681640625,-0.09624833251953124,1.0039231982421875
-0.24962724609375,-0.03497574951171875,1.02088109375
-0.2411171875,-0.024436865234375,0.924049052734375
-0.27613,-0.0006631030273437505,0.9282270849609375
-0.2377131640625,-0.04306373046875,0.9559987109375
-0.2795340234375,-0.0016434643554687498,1.005643564453125
-0.2474389453125,0.04737460205078125,1.0034316650390624
-0.1988100390625,0.055952763671875,0.9532952783203125
-0.109819140625,-0.00213364501953125,0.9238032861328125
-0.0431975390625,0.02482629150390625,0.966320908203125
-0.09206958984375,0.08609887451171874,1.04152548828125
-0.20051205078125,0.0338946337890625,1.055779951171875
-0.21704587890625,0.09100068115234375,1.0678225146484375
-0.23819945312500002,0.07286399658203124,1.0307117578125
-0.18008791015625,0.0829127001953125,1.01006736328125
-0.15674603515625,0.10031411376953125,1.0073639306640625
-0.089395,0.04345315673828125,1.0044147314453125
-0.09547361328125001,0.021640117187500002,1.034152490234375
-0.18738224609375,0.01012087158203125,1.079373544921875
-0.16938955078125,0.0387964404296875,1.03366095703125
-0.20099833984375,0.08854977783203125,1.010558896484375
-0.18495080078125,0.05913893798828125,0.9469053466796875
-0.107873984375,0.01698340087890625,0.9717277734375
-0.1248941015625,0.0103659619140625,1.0049062646484375
-0.09547361328125001,0.0378160791015625,1.044966220703125
-0.1229489453125,0.06894255126953125,1.0933822412109375
-0.1958923046875,0.06698182861328125,1.079373544921875
-0.2318776953125,0.1397736572265625,1.0860092431640624
-0.1774133203125,0.1157548046875,1.010558896484375
-0.16112263671875,0.09149086181640625,1.0103131298828125
-0.11881548828124999,0.13952856689453125,1.0815854443359374
-0.17717017578125,0.07090327392578125,1.1430270947265626
-0.2581373046875,0.08266760986328126,1.1486797265625
-0.251815546875,0.057913486328125,1.035135556640625
-0.2425760546875,0.053992041015625,0.9238032861328125
-0.20780638671875,0.0848734228515625,0.8972604931640625
-0.23017568359375,0.0451687890625,0.883251796875
-0.2600824609375,0.06306038330078124,0.8972604931640625
-0.20780638671875,0.12531332763671876,0.8820229638671875
-0.1764407421875,0.1417343798828125,0.890624794921875
-0.18349193359375,0.0976181201171875,0.9719735400390626
-0.1521262890625,0.079481435546875,1.075441279296875
-0.21412814453125,0.1064413720703125,1.1007552392578126
-0.28220861328125,0.13266603759765624,1.032186357421875
-0.2785614453125,0.1191860693359375,0.965829375
-0.29363640625,0.1231075146484375,0.9370746826171875
-0.3072525,0.10276501708984374,0.978117705078125
-0.30652306640625,0.09002031982421875,1.0260421923828125
-0.1988100390625,0.130460224609375,1.0149826953125
-0.212912421875,0.1436951025390625,1.0363643896484376
-0.1803310546875,0.11501953369140624,1.0992806396484376
-0.224583359375,0.03462990478515625,1.081339677734375
-0.16987583984375,0.04835496337890625,1.0742124462890625
-0.21753216796875,0.1123235400390625,1.0516019189453125
-0.29752671875000003,0.02923791748046875,1.032186357421875
-0.3884627734375,0.022620478515625,0.971236240234375
-0.42955419921875,0.040266982421875,0.86850580078125
-0.36463460937500003,0.0044837939453125,0.7566819970703125
-0.2878009375,-0.0200252392578125,0.73480876953125
-0.26664736328125,0.06109966064453125,0.796250419921875
-0.187625390625,-0.0141430712890625,0.89013326171875
-0.19613544921875,-0.0082609033203125,0.997779033203125
-0.1764407421875,0.044188427734375,1.1172216015625
-0.25351755859375,0.07335417724609375,1.112797802734375
-0.242089765625,0.07261890625,1.079865078125
-0.2970404296875,0.04002189208984375,1.074458212890625
-0.4254207421875,-0.11977700439453125,0.9778719384765625
-0.42055785156250003,-0.0494360791015625,0.9754142724609375
-0.39697283203125,-0.00850599365234375,0.846386806640625
-0.41034578125,0.0574233056640625,0.7399698681640625
-0.36001486328125,0.0309535498046875,0.6387140283203125
-0.24622322265625,0.02482629150390625,0.6539515576171875
-0.28609892578125,-0.0219859619140625,0.76036849609375
-0.28755779296875,-0.0249270458984375,0.876861865234375
-0.26907880859375,-0.04968116943359375,0.8918536279296875
-0.19467658203125,-0.04821062744140625,0.9370746826171875
-0.21412814453125,-0.081297822265625,0.9965502001953125
-0.314060546875,-0.11683592041015625,1.049881552734375
-0.3641483203125,-0.11928682373046876,1.024321826171875
-0.35855599609375,-0.0308092138671875,0.949608779296875
-0.36585033203125,0.0064445166015625,0.861132802734375
-0.36341888671875,-0.093062158203125,0.8510563720703125
-0.2644590625,0.00816014892578125,0.8702261669921875
-0.29728357421875,-0.0268877685546875,0.9127437890625
-0.3267040625,-0.055808427734375,1.0152284619140626
-0.34810078125,-0.02272123291015625,0.9783634716796875
-0.26664736328125,-0.052867343750000004,0.8608870361328125
-0.25497642578125,0.00717978759765625,0.816894814453125
-0.2902323828125,0.01747358154296875,0.7581565966796875
-0.25254498046875,0.030708459472656248,0.7790467578125
-0.30627992187499997,-0.00507472900390625,0.8159117480468749
-0.40183572265625,-0.068553125,0.7940385205078125
-0.27418484375,-0.00948635498046875,0.7797840576171875
-0.212912421875,0.065756376953125,0.7974792529296875
-0.21461443359375,0.04443351806640625,0.891607861328125
-0.28804408203125,-0.08227818359375,1.0039231982421875
-0.34299474609375,0.0505607763671875,1.0584833837890626
-0.34032015625,0.0191892138671875,0.9134810888671875
-0.37217208984375,0.0397768017578125,0.849336005859375
-0.20634751953125,0.06649164794921875,0.7625803955078125
-0.12902755859375,0.0530116796875,0.7901062548828125
-0.13607875,0.06011929931640625,0.903404658203125
-0.22531279296875,0.0142874072265625,0.92748978515625
-0.24379177734375002,0.05105095703125,0.926998251953125
-0.30214646484375,0.111833359375,0.94125271484375
-0.2736985546875,0.1221271533203125,0.9402696484374999
-0.26956509765625,0.08953013916015624,1.048898486328125
-0.24087404296875,0.063795654296875,1.1427813281249999
-0.24330548828125,0.03610044677734375,1.15556119140625
-0.20829267578125,-0.01487834228515625,1.128526865234375
-0.2722396875,-0.0425735498046875,1.0294829248046875
-0.19175884765625,-0.02149578125,0.9169218212890625
-0.23114826171875,-0.0082609033203125,0.94715111328125
-0.2785614453125,-0.07713128662109375,0.9680412744140625
-0.15723232421875,0.05815857666015625,0.9960586669921875
-0.218747890625,-0.01634888427734375,0.916184521484375
-0.25935302734375,-0.057278969726562504,0.91176072265625
-0.1988100390625,0.01012087158203125,0.9105318896484375
-0.34639876953125,-0.06781785400390625,0.850319072265625
-0.265431640625,-0.00850599365234375,0.9434646142578125
-0.30871136718750003,-0.10115013916015625,0.9916348681640625
-0.27515742187500003,-0.11291447509765624,1.01399962890625
-0.20829267578125,0.00399361328125,1.06806828125
-0.1944334375,0.00619942626953125,1.0781447119140626
-0.240144609375,-0.01732924560546875,1.1071451708984374
-0.2367405859375,-0.0317895751953125,1.1115689697265625
-0.35344996093750003,0.01012087158203125,1.1975872802734375
-0.25497642578125,0.06551128662109375,1.0503730859375
-0.18470765625,0.03610044677734375,0.97467697265625
-0.242089765625,0.05423713134765625,1.0083469970703125
-0.23649744140625,0.11060790771484375,1.0597122167968749
-0.33910443359375,0.00325834228515625,0.9980247998046875
-0.405482890625,-0.01732924560546875,1.0184234277343749
-0.3923530859375,0.0789912548828125,0.9469053466796875
-0.28658521484375,0.0255615625,0.9341254833984375
-0.1988100390625,0.00276816162109375,1.009084296875
-0.2873146484375,0.0211499365234375,0.9999909326171875
-0.29971501953125,-0.02076051025390625,0.9992536328125
-0.34032015625,-0.0249270458984375,1.00515203125
-0.34202216796875,0.048109873046875,0.9567360107421875
-0.19953947265625,0.114774443359375,0.9621428759765625
-0.17765646484375,0.04345315673828125,1.019406494140625
-0.26859251953125,0.0731090869140625,1.09067880859375
-0.22336763671875,-0.04919098876953125,0.972219306640625
-0.1827625,0.03806116943359375,1.0511103857421875
-0.26664736328125,0.033404453125,1.1204165673828126
-0.2736985546875,0.0525214990234375,1.205206044921875
-0.36730919921875,0.08511851318359374,1.163917255859375
-0.30263275390625,-0.00752563232421875,1.0653648486328124
-0.2873146484375,0.05325677001953125,0.9901602685546875
-0.25084296875,0.028257556152343752,0.91372685546875
-0.27491427734375,0.017718671875,0.93732044921875
-0.28172232421875,-0.01193725830078125,0.90782845703125
-0.251815546875,-0.0033590966796874996,0.8422087744140625
-0.2882872265625,-0.07443529296875,0.828200078125
-0.13340416015625,-0.12124754638671875,0.9051250244140625
-0.2571647265625,-0.04698517578125,0.9665666748046875
-0.15674603515625,-0.0435539111328125,0.9936010009765625
-0.1842213671875,-0.0011532836914062497,0.968287041015625
-0.107873984375,0.05570767333984375,1.0309575244140625
-0.23819945312500002,0.04737460205078125,1.1887396826171874
-0.28464005859375,-0.023456503906250002,1.2600119970703125
-0.30944080078125,0.0819323388671875,1.2742664599609375
-0.378250703125,0.1280093212890625,1.1641630224609374
-0.2800203125,0.02678701416015625,0.9827872705078124
-0.310170234375,0.04835496337890625,0.9402696484374999
-0.28269490234375,0.09198104248046875,0.8741584326171875
-0.26056875,0.02531647216796875,0.796250419921875
-0.16136578125,-0.034240478515625,0.7633176953125
-0.197351171875,0.04982550537109375,0.76921609375
-0.15139685546875,-0.0308092138671875,0.733334169921875
-0.28974609375,-0.11879664306640625,0.80067421875
-0.2882872265625,-0.11364974609375,0.8146829150390625
-0.2474389453125,-0.147962392578125,0.7633176953125
-0.1229489453125,0.00766996826171875,0.8756330322265625
-0.220693046875,0.11158826904296874,1.0009739990234374
-0.37217208984375,0.02923791748046875,1.009575830078125
-0.35369310546875,-0.02149578125,0.942727314453125
-0.1725504296875,0.0789912548828125,0.8574463037109374
-0.11103486328125,0.06551128662109375,0.801165751953125
-0.15382830078125,0.12163697265625,0.8938197607421875
-0.20197091796875,-0.00850599365234375,0.9139726220703125
-0.279047734375,0.02752228515625,0.935845849609375
-0.2785614453125,0.06894255126953125,0.8638362353515625
-0.23990146484375,-0.00752563232421875,0.83114927734375
-0.13948277343749999,0.04712951171875,0.876861865234375
-0.1686601171875,0.1035002880859375,0.95108337890625
-0.18495080078125,-0.01193725830078125,0.930438984375
-0.2824517578125,-0.0092412646484375,1.0383305224609374
-0.3660934765625,-0.0543378857421875,0.9906518017578125
-0.31235853515625,0.019679394531249998,0.8879213623046875
-0.1871391015625,0.12776423095703124,0.81345408203125
-0.1073876953125,0.09002031982421875,0.7829790234375
-0.138996484375,0.059874208984374996,0.784453623046875
-0.197351171875,0.1025199267578125,0.8235305126953125
-0.1890842578125,0.1314405859375,0.9360916162109375
-0.129270703125,0.1044806494140625,0.9405154150390624
-0.061190234375,0.011346323242187501,1.0147369287109376
-0.07359060546875,0.1701648583984375,1.1096028369140625
-0.22434021484375,0.1554594384765625,1.12213693359375
-0.29096181640625,0.10080429443359375,1.0407881884765624
-0.33132380859375,0.09296140380859375,0.977626171875
-0.27685943359375,0.12629368896484375,0.8852179296875
-0.04830357421875,0.0133070458984375,0.7999369189453125
0.030232109375,-0.00213364501953125,0.918150654296875
-0.07577890625,-0.05458297607421875,1.016948828125
-0.08720669921875,-0.03938737548828125,1.0545511181640626
-0.1521262890625,0.04835496337890625,1.0845346435546874
-0.06532369140625,0.0564429443359375,1.0874838427734375
-0.16744439453124998,0.11550971435546875,1.1843158837890626
-0.1530988671875,0.03536517578125,1.14671359375
-0.226528515625,0.04884514404296875,1.104933271484375
-0.1929745703125,0.053992041015625,1.064627548828125
-0.21072412109375,-0.02762303955078125,0.9419900146484375
-0.14847912109375,-0.07026875732421875,0.871946533203125
-0.084532109375,-0.04575972412109375,0.8903790283203125
-0.17279357421875,-0.08889562255859375,0.945676513671875
-0.1258666796875,-0.1415900439453125,0.9159387548828125
-0.125380390625,-0.10850284912109374,0.8893959619140624
-0.0543821875,-0.0347306591796875,0.879811064453125
-0.06848457031249999,0.04541387939453125,1.01399962890625
-0.1939471484375,-0.013652890625,1.1243488330078124
-0.24573693359375,0.00423870361328125,1.1366371630859375
-0.1715778515625,0.1093824560546875,1.0700344140625
-0.296554140625,0.1368325732421875,0.9891772021484375
-0.2377131640625,0.06649164794921875,0.990897568359375
-0.21023783203125002,0.004973974609375,0.9999909326171875
-0.1774133203125,0.0172284912109375,1.0117877294921875
-0.137051328125,-0.076396015625,1.030220224609375
-0.22579908203125,-0.083258544921875,0.9759058056640625
-0.2347954296875,-0.0317895751953125,0.8977520263671875
-0.3048210546875,-0.09012107421875,0.850319072265625
-0.13000013671875,-0.10164031982421876,0.8495817724609375
-0.08477525390625,-0.136198056640625,0.845403740234375
-0.07602205078125,-0.08938580322265625,0.9174133544921875
-0.22871681640625,0.038306259765625,0.9075826904296875
-0.20415921875,0.01257177490234375,0.937811982421875
-0.26032560546875,0.0299731884765625,1.11230626953125
-0.27734572265625,0.01208159423828125,1.2079094775390624
-0.33253953125,0.06060947998046875,1.2305200048828124
-0.25059982421875,0.0672269189453125,1.0643817822265624
-0.220693046875,0.08242251953125,0.9360916162109375
-0.20829267578125,-0.03448556884765625,0.9596852099609375
-0.17036212890625,-0.1170810107421875,1.04545775390625
-0.16136578125,-0.10752248779296875,1.1415524951171876
-0.1268392578125,-0.059729873046875,1.260257763671875
-0.17084841796875,-0.07468038330078125,1.29319048828125
-0.27880458984375,-0.02762303955078125,1.27942755859375
-0.27929087890625,-0.09918941650390625,1.1184504345703126
-0.30627992187499997,-0.15065838623046876,0.988931435546875
-0.15431458984375,-0.049926259765625,0.9493630126953125
-0.18227621093750002,-0.01978014892578125,0.891607861328125
-0.19127255859375,0.06551128662109375,1.0570087841796876
-0.23698373046875,-0.093062158203125,1.124594599609375
-0.2022140625,-0.0881603515625,1.2732833935546874
-0.25594900390624997,-0.0009081933593750001,1.262223896484375
-0.2377131640625,-0.0504164404296875,1.0535680517578125
-0.175954453125,-0.1504132958984375,0.8957858935546875
-0.1375376171875,-0.16389326416015626,0.8579378369140624
-0.117599765625,-0.0881603515625,0.9186421875
-0.174981875,-0.21977385986328124,0.9385492822265625
-0.18835482421875,-0.20065681396484375,0.9186421875
-0.20294349609375,-0.13154134033203124,0.7886316552734375
-0.088422421875,-0.14232531494140624,0.8026403515625
-0.004294414062500002,-0.11536537841796875,0.9857364697265625
-0.0607039453125,-0.048945898437499996,1.2192147412109375
-0.088422421875,0.0037485229492187503,1.40919232421875
-0.31333111328125,0.02752228515625,1.3376742431640625
-0.3242726171875,0.0505607763671875,1.0914161083984375
-0.18640966796875,0.04296297607421875,0.9481341796875
-0.26032560546875,0.0093856005859375,0.845403740234375
-0.21023783203125002,-0.035711020507812496,0.8697346337890625
-0.080641796875,-0.10213050048828125,0.851302138671875
-0.0665394140625,-0.09526797119140624,0.828691611328125
0.02415349609375,0.0211499365234375,0.9166760546875
-0.005996425781250002,-0.085219267578125,0.93928658203125
-0.1190586328125,0.05105095703125,1.05725455078125
-0.08574783203125,0.067717099609375,1.1356540966796875
-0.18981369140625,-0.0092412646484375,1.266156162109375
-0.2221519140625,0.04492369873046875,1.2836055908203126
-0.2075632421875,0.03659062744140625,1.1769428857421875
-0.3573402734375,-0.1004148681640625,0.968287041015625
-0.16355408203125,-0.1533543798828125,0.7104778759765625
-0.07966921874999999,-0.03056412353515625,0.621264599609375
-0.09255587890625,0.0691876416015625,0.5654755810546875
-0.018883085937500002,-0.0317895751953125,0.541636220703125
0.003729355468750001,-0.09967959716796874,0.6460870263671875
-0.039793515625,0.0686974609375,0.870963466796875
-0.0947441796875,0.13021513427734374,1.074458212890625
-0.21315556640625,-0.0376717431640625,1.1685868212890624
-0.20002576171875,0.030463369140625002,1.1243488330078124
-0.1317021484375,0.1574201611328125,0.97369390625
-0.20926525390625,0.021640117187500002,0.8122252490234375
-0.1424005078125,0.02090484619140625,0.7768348583984375
-0.15139685546875,-0.06977857666015624,0.7999369189453125
-0.18081734375,-0.0298288525390625,0.87440419921875
-0.15431458984375,-0.09575815185546875,0.9528037451171875
-0.10276794921875,-0.07443529296875,1.0358728564453126
-0.21947732421875,0.02237538818359375,1.0127707958984375
-0.17960162109375,-0.046249904785156254,0.928964384765625
-0.2221519140625,0.04149243408203125,0.8368019091796874
-0.1355924609375,-0.010221625976562499,0.7613515625
-0.045628984375,-0.04477936279296875,0.702367578125
0.043118769531250004,0.06060947998046875,0.8127167822265625
-0.1404553515625,0.036345537109375,0.970253173828125
-0.199296328125,0.15570452880859376,1.099034873046875
-0.24330548828125,0.02335574951171875,1.1027213720703124
-0.347128203125,0.1015395654296875,1.1936550146484375
-0.286828359375,0.19491898193359375,1.0928907080078125
-0.33424154296874997,0.038306259765625,0.965337841796875
-0.35588140625,0.14737145751953126,0.931913583984375
-0.362689453125,0.13021513427734374,0.7758517919921875
-0.12246265625,0.0883046875,0.7070371435546875
0.018561171875,0.00717978759765625,0.8481071728515625
0.0623271875,0.02531647216796875,0.933879716796875
0.06548806640625,-0.02860340087890625,1.0181776611328126
0.0258555078125,-0.092081796875,1.064136015625
-0.02836572265625,-0.10188541015625,0.9975332666015625
-0.2882872265625,-0.02517213623046875,0.911269189453125
-0.24938410156250002,-0.055808427734375,0.8269712451171874
-0.06410796875,-0.0170841552734375,0.92552365234375
-0.0232596875,0.0495804150390625,1.088221142578125
-0.15285572265625,0.07923634521484375,1.0629071826171874
-0.17425244140625,0.01649322021484375,1.0582376171875
-0.12902755859375,0.0750698095703125,0.9459222802734375
-0.10082279296875,0.06502110595703126,0.9773804052734375
-0.1229489453125,0.02752228515625,1.0614325830078124
-0.0466015625,-0.05311243408203125,1.0545511181640626
0.0034862109374999978,-0.0239466845703125,0.990897568359375
0.073025546875,0.009140510253906251,1.025304892578125
0.010780546874999998,0.004973974609375,1.032186357421875
-0.04344068359375,-0.00458454833984375,1.105916337890625
0.0076196679687500005,-0.13129625,1.2064348779296874
-0.0937716015625,-0.11634573974609375,1.261240830078125
-0.02715,0.011346323242187501,1.161951123046875
-0.14604767578125,-0.0210056005859375,1.1174673681640626
-0.22288134765625,-0.0641414990234375,1.0555341845703126
-0.13291787109375,-0.0857094482421875,0.9198710205078124
0.013941425781249999,-0.1435507666015625,0.9223286865234375
0.0112668359375,-0.047965537109375,0.8741584326171875
0.0472522265625,-0.04379900146484375,0.9031588916015625
0.06062517578125,0.014777587890624999,1.041033955078125
0.01953375,0.0701680029296875,1.200290712890625
0.003729355468750001,0.02874773681640625,1.237647236328125
-0.06483740234375,0.0809519775390625,1.3239113134765625
-0.2231244921875,0.026296833496093748,1.1661291552734374
-0.23747001953125,0.016738310546875,0.984016103515625
-0.36390517578125,0.0142874072265625,0.843437607421875
-0.3291355078125,-0.010221625976562499,0.6905707812499999
0.005431367187500001,-0.075415654296875,0.6426462939453125
0.07764529296875,-0.0151234326171875,0.8417172412109375
0.04944052734375,-0.0210056005859375,1.1322133642578125
-0.27418484375,-0.0411030078125,1.2929447216796874
-0.20440236328125,-0.02909358154296875,1.2801648583984375
-0.27442798828125,-0.04428918212890625,1.1425355615234376
-0.14653396484375,0.085363603515625,1.068559814453125
-0.06580998046875,-0.0837487255859375,1.040050888671875
-0.12659611328125,-0.0974737841796875,1.277952958984375
-0.3446967578125,-0.0881603515625,1.2963854541015625
-0.33861814453125,-0.0817880029296875,0.988931435546875
-0.37144265625,-0.06659240234375,0.73087650390625
-0.31284482421875,-0.06291604736328126,0.6485446923828125
-0.23017568359375,-0.051886982421875,0.6453497265625
-0.010616171875,-0.0038492773437499997,0.8697346337890625
-0.0006472460937500014,0.01698340087890625,1.12312
-0.29582470703125,-0.12909043701171874,1.245020234375
-0.20488865234375,-0.2371752734375,1.1489254931640625
-0.24379177734375002,-0.10899302978515625,1.0211268603515624
-0.2503566796875,-0.08301345458984374,0.9341254833984375
-0.14653396484375,-0.06732767333984375,1.0584833837890626
-0.25886673828125,0.09418685546875,1.204222978515625
-0.34591248046875,-0.046740085449218746,0.98843990234375
-0.290718671875,-0.0808076416015625,0.8549886376953125
-0.35126166015625,-0.04330882080078125,0.787402822265625
-0.27929087890625,0.13952856689453125,0.8943112939453125
-0.27880458984375,0.203006962890625,0.97074470703125
-0.1696326953125,0.11747043701171875,1.08871267578125
-0.2143712890625,0.00963069091796875,1.2017653125
-0.21972046875,-0.0749254736328125,1.180629384765625
-0.22385392578125,-0.044044091796875,1.0432458544921874
-0.2464663671875,-0.08203309326171875,0.921099853515625
-0.06021765625,-0.12222790771484375,0.9351085498046875
-0.18251935546875,-0.1759026904296875,1.1010010058593749
-0.23795630859375,-0.196980458984375,1.2462490673828124
-0.21023783203125002,-0.3133983666992187,1.0464408203125
-0.18081734375,-0.24330253173828126,0.846386806640625
-0.10690140625,-0.146001669921875,0.741690234375
-0.053409609375,-0.1180613720703125,0.7596311962890625
-0.213885,-0.00654527099609375,0.9965502001953125
-0.14847912109375,0.04786478271484375,1.1508916259765625
-0.066053125,0.00399361328125,1.169815654296875
-0.1744955859375,-0.03522083984375,1.054796884765625
-0.08283009765625,-0.0906112548828125,0.8997181591796874
-0.018883085937500002,-0.0327699365234375,0.7886316552734375
-0.22531279296875,-0.118551552734375,0.749063232421875
-0.10033650390625,-0.2023724462890625,0.770690693359375
-0.1385101953125,-0.1935491943359375,0.9523122119140625
-0.18470765625,-0.08889562255859375,1.045949287109375
-0.13802390625,0.019679394531249998,1.072000546875
-0.15382830078125,-0.077376376953125,1.106899404296875
-0.1637972265625,0.0270321044921875,1.06806828125
-0.1599069140625,0.11747043701171875,0.9459222802734375
-0.2099946875,0.10178465576171875,0.8564632373046875
-0.11784291015625001,0.02090484619140625,0.8485987060546875
-0.07577890625,0.03708080810546875,0.8186151806640625
-0.005996425781250002,-0.01291761962890625,0.7871570556640625
0.0628134765625,-0.08595453857421875,0.788385888671875
0.06111146484375,-0.07443529296875,0.83114927734375
-0.0743200390625,-0.0190448779296875,0.9174133544921875
-0.23698373046875,0.14908708984375,0.9041419580078125
-0.13413359375,0.08511851318359374,0.990897568359375
-0.27807515625,-0.0425735498046875,1.0385762890625
-0.16695810546875,0.03855135009765625,0.999745166015625
-0.18106048828125,0.05668803466796875,0.8891501953125
-0.0451426953125,-0.01193725830078125,0.8215643798828125
-0.17084841796875,-0.120512275390625,0.749554765625
-0.07383375,-0.096983603515625,0.80362341796875
0.0025136328124999996,-0.00948635498046875,0.8658023681640625
-0.02544798828125,-0.087179990234375,0.8245135791015625
-0.11200744140625,-0.0337502978515625,0.812962548828125
-0.21266927734375,0.04394333740234375,0.828691611328125
-0.23844259765625,0.05129604736328125,0.8584293701171875
-0.170118984375,-0.0254172265625,0.810013349609375
-0.01231818359375,0.09737302978515625,0.8127167822265625
-0.16160892578125,0.1721255810546875,0.966320908203125
-0.1530988671875,0.0564429443359375,1.0235845263671874
-0.33181009765625,0.0387964404296875,1.1250861328125
-0.08769298828125,-0.15507001220703126,0.7119524755859374
-0.1443456640625,-0.1587463671875,0.82918314453125
-0.1073876953125,-0.046004814453125,0.902421591796875
-0.2357680078125,-0.073454931640625,0.89406552734375
-0.09425789062500001,-0.1038461328125,1.0555341845703126
-0.1569891796875,-0.0710040283203125,1.2029941455078126
-0.17182099609375,-0.1102184814453125,1.348733740234375
-0.2581373046875,-0.057278969726562504,1.3774884326171875
-0.26567478515625,-0.0141430712890625,1.166866455078125
-0.33472783203125,-0.04968116943359375,0.9292101513671875
-0.1910294140625,-0.0386521044921875,0.862115869140625
0.035095,-0.1249239013671875,0.9749227392578125
-0.09839134765625,-0.07271966064453125,1.233714970703125
-0.13972591796875,0.05717821533203125,1.326123212890625
-0.294608984375,-0.0513968017578125,1.205697578125
-0.3495596484375,-0.04379900146484375,0.9665666748046875
-0.3048210546875,-0.098944326171875,0.8065726171875
0.028286953125,-0.048455717773437504,0.76921609375
0.05089939453125,-0.12418863037109375,0.8485987060546875
0.02536921875,-0.16977543212890625,0.8775991650390624
-0.13243158203125,-0.22075422119140625,0.8923451611328125
-0.20002576171875,-0.2805562622070312,0.943710380859375
-0.08623412109375,-0.22761675048828126,0.9385492822265625
-0.0067258593750000005,-0.14869766357421876,1.1388490625
-0.07699462890625,-0.051886982421875,1.245511767578125
-0.09523046875,-0.0798272802734375,1.1735021533203125
-0.037362070312499995,-0.022476142578125,1.01203349609375
-0.17376615234375,0.0059543359375,0.963371708984375
-0.18008791015625,0.08266760986328126,0.9881941357421875
-0.1657423828125,-0.11193411376953125,1.0633987158203124
-0.09450103515625,-0.0190448779296875,1.202256845703125
0.00980796875,-0.12933552734375,0.9557529443359375
0.02853009765625,-0.1200220947265625,0.8761245654296875
0.0394716015625,-0.12149263671875,0.9179048876953125
-0.02885201171875,-0.08497417724609375,1.0579918505859376
-0.0500055859375,-0.0028689160156250004,1.196358447265625
-0.21655958984375,0.07482471923828125,1.16145958984375
-0.3057936328125,0.02752228515625,0.9965502001953125
-0.2124261328125,0.06011929931640625,0.7404614013671875
-0.1404553515625,-0.02321141357421875,0.5846453759765625
0.04603650390625,0.017718671875,0.5674417138671874
0.071080390625,7.216796875000007e-05,0.645841259765625
0.08299447265625,0.02237538818359375,0.9424815478515625
0.056978007812499995,-0.09845414550781251,1.25780009765625
-0.2065906640625,-0.140119501953125,1.4593287109375
-0.07383375,0.07874616455078125,1.31186875
-0.14702025390625,0.0191892138671875,1.049881552734375
-0.13583560546875,0.0789912548828125,1.0157199951171876
-0.06143337890625,0.085363603515625,1.0555341845703126
-0.051464453125000004,-0.10115013916015625,1.149171259765625
-0.1073876953125,-0.1494329345703125,1.0874838427734375
-0.07188859375000001,-0.04575972412109375,0.8544971044921875
0.04603650390625,-0.044044091796875,0.7758517919921875
-0.07553576171875,-0.0778665576171875,0.852285205078125
-0.059245078125,-0.104826494140625,1.031203291015625
-0.25594900390624997,-0.09575815185546875,1.195375380859375
-0.1676875390625,-0.15654055419921875,1.2231470068359376
-0.1633109375,-0.0038492773437499997,1.0786362451171876
-0.25400384765625,0.11845079833984375,0.9326508837890625
-0.2036729296875,-0.04306373046875,0.8210728466796875
-0.16793068359375,-0.2308029248046875,0.7404614013671875
-0.0597313671875,-0.20604880126953126,0.6274087646484375
-0.0035649804687499995,-0.14232531494140624,0.5507295849609375
0.008835390624999998,-0.1239435400390625,0.5522041845703125
0.026341796875,-0.12541408203125,0.708757509765625
0.08591220703124999,-0.060710234375,0.957473310546875
-0.08331638671875,-0.07075893798828126,1.2747579931640625
-0.1686601171875,-0.08350363525390625,1.3927259619140624
-0.30652306640625,0.055462583007812497,1.3101483837890624
-0.37168580078125,0.067717099609375,1.13589986328125
-0.327676640625,-0.06536695068359374,0.9075826904296875
-0.18008791015625,-0.01193725830078125,0.820827080078125
-0.2007551953125,0.00399361328125,0.85277673828125
-0.2124261328125,-0.09967959716796874,0.8815314306640625
-0.23503857421875,-0.18938265869140625,0.9400238818359374
-0.01037302734375,-0.1455114892578125,1.01006736328125
0.012725703124999998,-0.0435539111328125,1.0806023779296874
-0.1015522265625,-0.0455146337890625,1.14966279296875
0.04603650390625,-0.1876670263671875,1.157035791015625
0.105120625,-0.11830646240234374,1.107882470703125
0.0156434375,-0.13301188232421876,1.064627548828125
-0.066053125,-0.09526797119140624,1.1125520361328125
-0.20342978515625,-0.2709977392578125,1.103950205078125
-0.26810623046875,-0.18497103271484375,1.051847685546875
-0.28707150390625,-0.11095375244140625,0.9346170166015625
-0.11638404296875,-0.07370002197265625,0.8795652978515625
0.0467659375,-0.025662316894531252,0.93732044921875
0.05527599609375,-0.16634416748046876,1.040050888671875
-0.175954453125,-0.11536537841796875,1.1926719482421875
-0.13729447265625,-0.1964902783203125,1.05135615234375
-0.0855046875,0.0054641552734375,0.9599309765625
-0.22288134765625,-0.0700236669921875,0.8884128955078126
-0.1793584765625,-0.03889719482421875,0.9127437890625
-0.013290761718750002,-0.11487519775390626,0.9985163330078125
0.010780546874999998,0.00619942626953125,0.964354775390625
-0.04271125,0.0574233056640625,0.9242948193359375
0.09855572265625,-0.022476142578125,0.9950756005859375
0.006890234374999998,-0.05213207275390625,1.2437914013671876
-0.1871391015625,-0.09012107421875,1.4128788232421874
-0.29387955078125,-0.12173772705078124,1.3593017041015625
-0.32159802734375,-0.07173929931640625,1.193409248046875
-0.1715778515625,-0.0719843896484375,1.0053977978515625
-0.220693046875,-0.08423890625,0.840488408203125
-0.1112780078125,-0.2121760595703125,0.70728291015625
-0.011345605468749999,-0.11340465576171875,0.669434853515625
0.0890730859375,0.016738310546875,0.7276815380859375
0.06743322265625,0.01894412353515625,0.859658203125
0.0812924609375,0.0137972265625,1.0810939111328124
-0.07942607421875,0.0701680029296875,1.189476982421875
-0.10690140625,0.0633054736328125,1.258291630859375
-0.14969484375,0.08805959716796875,1.3003177197265625
-0.17036212890625,0.053992041015625,1.2280623388671874
-0.1744955859375,0.00399361328125,1.1774344189453125
-0.17911533203125,-0.0915916162109375,1.0707717138671875
-0.13486302734375,-0.01095689697265625,0.977134638671875
-0.25838044921875,-0.09967959716796874,0.9228202197265625
-0.18835482421875,-0.261684306640625,0.824759345703125
-0.189570546875,-0.15997181884765624,0.7321053369140624
-0.011588750000000002,-0.048455717773437504,0.678773984375
0.10244603515625,-0.0690433056640625,0.6667314208984375
0.0968537109375,-0.089140712890625,0.7869112890625
0.11825042968749999,-0.10360104248046875,1.08871267578125
-0.02058509765625,-0.1641383544921875,1.34824220703125
-0.13097271484375,0.03659062744140625,1.448023447265625
-0.2688356640625,0.1035002880859375,1.2816394580078125
-0.2416034765625,0.04296297607421875,1.104933271484375
-0.24962724609375,0.09639266845703125,0.99630443359375
-0.3495596484375,0.05570767333984375,1.0004824658203124
-0.35855599609375,0.0544822216796875,0.9449392138671875
-0.14507509765624998,-0.01978014892578125,0.720554306640625
-0.032012890625,-0.00850599365234375,0.640925927734375
-0.0072121484375,-0.11536537841796875,0.61487466796875
-0.1258666796875,-0.19820591064453125,0.6092220361328125
-0.15820490234375,-0.21830331787109375,0.615366201171875
-0.0772377734375,-0.18399067138671876,0.6532142578125
-0.002835546875000001,-0.19845100097656249,0.8309035107421875
-0.01669478515625,-0.2820268041992188,1.111323203125
-0.0295814453125,-0.3719749560546875,1.3295639453125
-0.29290697265625,-0.12418863037109375,1.300071953125
-0.3811684375,0.02874773681640625,1.167849521484375
-0.36633662109375,-0.12026718505859375,1.1130435693359375
-0.33229638671875,0.01575794921875,1.1867735498046874
-0.19029998046875,-0.0494360791015625,1.083305810546875
-0.17425244140625,-0.1425704052734375,1.089204208984375
-0.18786853515625002,-0.03693647216796875,0.9557529443359375
-0.20634751953125,0.10227483642578125,0.9238032861328125
-0.41496552734375003,-0.0435539111328125,0.872929599609375
-0.3612305859375,-0.09722869384765626,0.80558955078125
-0.21023783203125002,-0.20849970458984374,0.7004014453125
-0.18592337890625,-0.2111956982421875,0.7711822265625
-0.2250696484375,-0.0974737841796875,0.849336005859375
-0.2649453515625,-0.2254109375,0.9405154150390624
-0.28658521484375,-0.17467723876953126,1.07101748046875
-0.3291355078125,-0.1837455810546875,1.125577666015625
-0.41934212890625,-0.15605037353515624,1.218968974609375
-0.30530734375,-0.29183041748046873,1.1002637060546876
-0.14750654296875,0.0015427099609375003,0.94321884765625
-0.12221951171875,0.1471263671875,0.871455
-0.1307295703125,-0.0298288525390625,0.9493630126953125
-0.26154132812499997,-0.23791054443359375,1.10247560546875
-0.29679728515625,-0.02762303955078125,1.1892312158203124
-0.07699462890625,0.0838930615234375,1.1887396826171874
-0.17765646484375,-0.0406128271484375,1.1204165673828126
-0.251815546875,-0.0016434643554687498,1.162934189453125
-0.349073359375,-0.19281392333984376,1.074458212890625
-0.2941226953125,-0.195019736328125,1.0447204541015624
-0.228473671875,-0.18546121337890625,1.085271943359375
-0.191515703125,-0.17908886474609376,1.15949345703125
-0.32062544921875,-0.2023724462890625,1.15556119140625
-0.34591248046875,-0.20604880126953126,1.098051806640625
-0.2707808203125,-0.13007079833984375,1.064136015625
-0.27491427734375,-0.18742193603515625,0.890624794921875
-0.31284482421875,0.0103659619140625,0.8240220458984375
-0.17619759765625,-0.06732767333984375,0.7711822265625
-0.07650833984375,-0.0700236669921875,0.9709904736328125
-0.1832487890625,0.0829127001953125,1.136391396484375
-0.29509527343749997,0.05497240234375,1.2772156591796875
-0.4633512890625,-0.029338671875,1.2108586767578124
-0.2970404296875,-0.07419020263671874,1.06020375
-0.41107521484375,-0.0925719775390625,0.906353857421875
-0.25692158203125,-0.16095218017578125,0.8485987060546875
-0.0466015625,-0.14183513427734376,0.9139726220703125
-0.33715927734375,-0.029338671875,1.0014655322265624
-0.240144609375,-0.1749223291015625,1.0058893310546875
-0.20245720703125,-0.21536223388671874,1.1331964306640625
-0.2250696484375,-0.2200189501953125,1.1762055859375
-0.21121041015625,-0.15850127685546875,1.0130165625
-0.15747546875,0.1044806494140625,0.9719735400390626
-0.46359443359375,-0.00311400634765625,0.9356000830078125
-0.3923530859375,-0.19232374267578126,0.8584293701171875
-0.25643529296875,-0.3053103857421875,0.775606025390625
-0.112736875,-0.15507001220703126,0.7355460693359375
0.047009082031249996,0.02286556884765625,0.7660211279296875
-0.09985021484375001,-0.21830331787109375,0.864082001953125
-0.12805498046875,-0.22075422119140625,1.1518746923828125
-0.3145468359375,-0.1357078759765625,1.3671662353515626
-0.36585033203125,-0.11928682373046876,1.3126060498046874
-0.33813185546875,-0.0376717431640625,1.0506188525390625
-0.39940427734375,-0.04772044677734375,0.948625712890625
-0.29363640625,-0.02272123291015625,0.8183694140625
-0.14969484375,-0.096983603515625,0.7851909228515626
-0.08185751953125,-0.0415931884765625,0.95108337890625
-0.25084296875,-0.22026404052734375,0.9945840673828125
-0.40134943359374997,-0.13717841796875,0.9306847509765624
-0.37898013671874997,-0.18399067138671876,0.6195442333984374
-0.26664736328125,-0.17835359375,0.50870349609375
-0.14069849609375001,-0.21585241455078125,0.458075576171875
0.009078535156249998,-0.1308060693359375,0.6637822216796875
0.041416757812499996,-0.14036459228515624,0.9822957373046874
-0.16647181640625,-0.153844560546875,1.482430771484375
-0.3952708203125,-0.2464887060546875,1.591059609375
-0.47769681640625,-0.202862626953125,1.468667841796875
-0.42274615234375,-0.03522083984375,1.0511103857421875
-0.19029998046875,-0.25849813232421875,0.8476156396484374
-0.08185751953125,-0.0092412646484375,0.929947451171875
-0.11079171875,0.06624655761718751,0.9931094677734374
-0.04052294921875,-0.238155634765625,1.0722463134765625
-0.28123603515625,-0.3133983666992187,1.14573052734375
-0.3573402734375,-0.16462853515625,1.0149826953125
-0.17425244140625,-0.12933552734375,0.7561904638671875
-0.33959072265625,-0.03105430419921875,0.731368037109375
-0.31770771484375,-0.02762303955078125,0.614383134765625
-0.25205869140625,-0.104826494140625,0.56375521484375
-0.1365650390625,-0.24575343505859376,0.5925099072265625
-0.04392697265625,-0.244037802734375,0.55785681640625
-0.09134015625,-0.1582561865234375,0.6886046484375
-0.174981875,-0.16536380615234375,0.6770536181640625
-0.299471875,-0.2651155712890625,0.7040879443359375
-0.26178447265625,-0.08399381591796876,0.86850580078125
-0.20780638671875,0.14345001220703124,1.0363643896484376
-0.14361623046875,0.1231075146484375,1.049881552734375
-0.14167107421875,0.0780108935546875,1.144255927734375
-0.080641796875,0.0770305322265625,1.3116229833984374
-0.331566953125,0.13021513427734374,1.2069264111328124
-0.28658521484375,0.124578056640625,1.012525029296875
-0.3135742578125,0.128499501953125,1.0230929931640624
-0.1560166015625,-0.055808427734375,1.004660498046875
-0.298499296875,-0.1744321484375,1.172764853515625
-0.33667298828125003,-0.0259074072265625,1.0130165625
-0.27613,-0.10458140380859375,0.6598499560546875
-0.0558410546875,-0.0513968017578125,0.58046734375
-0.0018629687499999992,-0.12565917236328125,0.626179931640625
0.06451548828125,0.024091020507812498,0.8599039697265625
-0.15917748046875,0.026296833496093748,1.178663251953125
-0.25254498046875,-0.00948635498046875,1.2619781298828125
-0.199296328125,0.155949619140625,1.30498728515625
-0.26470220703125,0.02041466552734375,1.2388760693359375
-0.31284482421875,-0.10899302978515625,1.1449932275390624
-0.34785763671875003,0.010611052246093749,1.1071451708984374
-0.286828359375,0.019679394531249998,1.090187275390625
-0.36682291015625,-0.218548408203125,1.0127707958984375
-0.16525609375,-0.2876638818359375,0.7999369189453125
0.08785736328125,-0.14722712158203125,0.7529954980468749
0.08299447265625,-0.0680629443359375,0.8412257080078125
-0.0016198242187499996,-0.1866866650390625,1.0599579833984376
-0.33181009765625,-0.0945327001953125,1.1022298388671874
-0.35563826171875,-0.2092349755859375,0.8186151806640625
0.05333083984375,-0.16928525146484374,0.6839350830078125
0.1425648828125,-0.02149578125,0.855234404296875
0.17441681640625,0.0976181201171875,1.2017653125
-0.11468203125,-0.06830803466796875,1.636772197265625
-0.4273658984375,-0.0121823486328125,1.6753575537109375
-0.3699837890625,-0.02860340087890625,1.3897767626953126
-0.34639876953125,-0.03301502685546875,1.0284998583984375
-0.046358417968749996,-0.09012107421875,0.8436833740234375
0.09758314453125,-0.1376685986328125,0.9247863525390625
-0.10471310546875,-0.1131595654296875,1.098051806640625
-0.1321884375,-0.1376685986328125,1.309411083984375
-0.24622322265625,-0.2788406298828125,1.39346326171875
-0.34931650390625,-0.21585241455078125,1.314326416015625
-0.15747546875,-0.16438344482421874,0.89603166015625
-0.06289224609374999,-0.12516899169921875,0.82328474609375
0.007133378906249998,-0.10703230712890625,0.90389619140625
-0.01815365234375,-0.22712656982421875,1.1558069580078125
-0.3223274609375,-0.27712499755859377,1.4045227587890625
-0.3835998828125,-0.123453359375,1.25976623046875
-0.35272052734375,-0.00654527099609375,0.9862280029296875
-0.26056875,-0.1562954638671875,0.7763433251953125
-0.15188314453125001,-0.00409436767578125,0.7615973291015625
