ax,ay,az
-0.17133470703125,-0.110708662109375,0.9862280029296875
-0.3952708203125,-0.2131564208984375,0.6362563623046875
-0.10908970703125,-0.0327699365234375,0.5217291259765625
-0.03955037109375,-0.00948635498046875,0.3543620703125
0.05527599609375,-0.08350363525390625,0.3526417041015625
0.12238388671875,-0.05801424072265625,0.912252255859375
0.19095064453125,0.19589934326171876,1.929234453125
-0.775062578125,0.018699033203125,2.129718558349609
-0.82660921875,-0.1435507666015625,1.58024587890625
-0.17522501953125,-0.14722712158203125,1.0759328125
-0.08915185546875,-0.3268783349609375,0.7611057958984375
-0.26275705078125,-0.0415931884765625,0.760860029296875
-0.31624884765625,-0.0435539111328125,0.5785012109375
-0.06580998046875,-0.03987755615234375,0.5148476611328126
-0.22677166015625,0.0030132519531249997,0.918150654296875
-0.1696326953125,-0.03889719482421875,1.402802392578125
-0.38238416015625,-0.0960032421875,1.627924599609375
-0.545534140625,0.193203349609375,1.453921845703125
-0.18738224609375,-0.16070708984375,0.9852449365234375
-0.01280447265625,-0.3190354443359375,0.778555224609375
-0.19175884765625,-0.19183356201171875,0.6795112841796875
0.06889208984375,-0.23742036376953124,0.7670041943359375
0.03096154296875,-0.295016591796875,1.2020110791015626
-0.46481015625,-0.2474690673828125,1.6153905029296876
-0.71306072265625,-0.334231044921875,1.50848203125
-0.5000661132812501,-0.3994250732421875,1.06118681640625
-0.175954453125,-0.1808044970703125,0.731368037109375
-0.28172232421875,-0.2984478564453125,0.5723570458984375
-0.105928828125,-0.31290818603515624,0.706791376953125
-0.0597313671875,-0.230312744140625,1.0221099267578124
-0.152612578125,-0.07909200927734375,1.2772156591796875
-0.22531279296875,-0.271487919921875,1.3548779052734374
-0.0932853125,-0.22369530517578126,1.2049602783203124
-0.24914095703125,0.016738310546875,1.0019570654296874
-0.2722396875,0.032424091796875,0.8815314306640625
-0.2795340234375,0.008405239257812499,1.001219765625
-0.290718671875,0.09100068115234375,1.15752732421875
-0.3904079296875,0.09590248779296875,1.2428083349609376
-0.24719580078125,-0.2533512353515625,1.1685868212890624
-0.2620276171875,-0.05556333740234375,1.237647236328125
-0.42420501953125,-0.25506686767578124,1.1921804150390625
-0.42712275390625,0.02090484619140625,1.0604495166015624
-0.42663646484375,0.0368357177734375,0.8014115185546875
-0.2795340234375,-0.11830646240234374,0.5733401123046875
-0.174981875,-0.157766005859375,0.40351539062499997
-0.09352845703125,-0.16830489013671876,0.3349465087890625
0.047009082031249996,-0.1665892578125,0.3182343798828125
0.03387927734375,-0.232273466796875,0.651739658203125
0.07618642578125,-0.2268814794921875,1.058729150390625
0.1386745703125,-0.21242114990234376,1.6876458837890624
-0.60413197265625,0.13805802490234376,1.9879726708984375
-0.65713748046875,0.050070595703125,1.5549319189453126
-0.2785614453125,-0.0974737841796875,1.1218911669921874
-0.2941226953125,-0.13056097900390626,1.115747001953125
-0.3223274609375,0.00472888427734375,1.37380193359375
-0.48766574218750003,0.06281529296875,1.279919091796875
-0.43393080078125,-0.02419177490234375,0.9464138134765625
-0.2717533984375,-0.23447927978515626,0.6293748974609374
-0.02155767578125,-0.3334957739257812,0.6559176904296875
0.04263248046875,-0.38104329833984374,0.9228202197265625
-0.20294349609375,-0.07615092529296875,0.8751414990234375
-0.16890326171875,-0.08619962890625,0.5706366796875
0.039957890625,-0.2293323828125,0.581941943359375
-0.0947441796875,-0.05752406005859375,0.9009469921875
-0.37557611328125,0.0012976196289062499,1.121645400390625
-0.4828028515625,0.05178622802734375,1.3288266455078124
-0.34591248046875,-0.0386521044921875,1.2258504394531249
-0.26081189453125,-0.23104801513671874,0.9282270849609375
-0.19127255859375,-0.179333955078125,0.9277355517578125
-0.251815546875,-0.05556333740234375,0.96681244140625
-0.23990146484375,-0.30653583740234375,1.03366095703125
-0.2688356640625,-0.21144078857421875,0.985982236328125
-0.02909515625,-0.116590830078125,0.8844806298828125
-0.13486302734375,-0.046740085449218746,0.798216552734375
-0.15528716796875,-0.249919970703125,0.6554261572265625
-0.08477525390625,-0.0376717431640625,0.7247323388671875
-0.08477525390625,-0.0562986083984375,0.7905977880859375
-0.15382830078125,-0.22761675048828126,1.009084296875
-0.2474389453125,-0.08154291259765625,1.303512685546875
-0.39478453125,-0.068553125,1.1916888818359375
-0.19127255859375,-0.14477621826171874,0.9837703369140625
-0.16598552734375,-0.02762303955078125,0.8957858935546875
-0.2133987109375,0.00619942626953125,1.0668394482421875
-0.304334765625,-0.087179990234375,1.20274837890625
-0.3500459375,0.1182057080078125,1.226833505859375
-0.2814791796875,0.1613416064453125,1.1194335009765626
-0.17036212890625,-0.1121792041015625,0.9002096923828125
-0.19564916015625,-0.123453359375,0.5841538427734375
-0.026420566406250002,-0.10409122314453124,0.4937117333984375
0.0132119921875,-0.1896277490234375,0.52050029296875
0.03436556640625,-0.20849970458984374,0.604552470703125
-0.17182099609375,-0.1190417333984375,0.79969115234375
-0.3072525,-0.12614935302734376,1.114763935546875
-0.35344996093750003,0.00668960693359375,1.3465218408203126
-0.21996361328125,0.00521906494140625,1.25386783203125
-0.08355953125,0.12335260498046875,1.3126060498046874
-0.30919765625,0.1299700439453125,1.398870126953125
-0.48426171875,0.01575794921875,1.4330316845703126
-0.36244630859375,-0.0038492773437499997,1.114763935546875
-0.277102578125,0.034384814453125,0.851302138671875
-0.20197091796875,-0.18399067138671876,0.7746229589843749
-0.152612578125,-0.19575500732421874,0.590789541015625
-0.16647181640625,-0.10458140380859375,0.42415978515624997
-0.10276794921875,-0.07271966064453125,0.459058642578125
-0.0782103515625,-0.04772044677734375,0.5934929736328125
-0.22336763671875,-0.01438816162109375,0.8223016796875
-0.2722396875,-0.03938737548828125,0.96877857421875
-0.3408064453125,-0.022476142578125,1.079865078125
-0.29242068359375,0.061834931640625,1.09264494140625
-0.30214646484375,-0.1116890234375,1.0395593554687501
-0.2960678515625,-0.05164189208984375,1.1155012353515625
-0.3670660546875,-0.19428446533203125,0.9097945898437501
-0.08331638671875,0.0037485229492187503,0.81345408203125
-0.1248941015625,0.0201695751953125,0.68565544921875
-0.34785763671875003,-0.1288453466796875,0.78592822265625
-0.2766162890625,0.04051207275390625,0.9793465380859375
-0.1997826171875,0.024581201171875,0.8122252490234375
-0.1521262890625,0.0843832421875,0.6886046484375
-0.1326747265625,0.08560869384765625,0.7306307373046875
-0.12124693359375,-0.01291761962890625,0.902421591796875
-0.34931650390625,0.0427178857421875,0.9677955078125
-0.33861814453125,0.1201664306640625,0.9999909326171875
-0.1248941015625,-0.05213207275390625,0.9324051171875
-0.34980279296875,-0.14477621826171874,0.829674677734375
-0.2289599609375,0.06649164794921875,0.986965302734375
-0.2630001953125,0.0030132519531249997,0.9046334912109375
-0.2386857421875,-0.0857094482421875,0.9523122119140625
-0.170118984375,-0.052867343750000004,1.031203291015625
-0.20877896484375,-0.1195319140625,0.9321593505859375
-0.04854671875,-0.05164189208984375,0.9913891015625
-0.12416466796875,-0.091101435546875,0.9749227392578125
-0.051950742187499996,0.13315621826171875,1.1548238916015625
-0.3748466796875,0.0564429443359375,1.3155552490234375
-0.52486685546875,-0.03595611083984375,1.2378930029296875
-0.3252451953125,-0.04870080810546875,1.0078554638671875
-0.23163455078125,-0.2111956982421875,1.0329236572265625
-0.18251935546875,-0.18791211669921876,1.06315294921875
-0.22531279296875,-0.09379742919921875,0.950591845703125
-0.15528716796875,-0.10188541015625,0.9191337207031249
-0.226528515625,-0.21536223388671874,0.84786140625
-0.19321771484375,0.11207844970703125,1.0393135888671874
-0.2124261328125,0.09688284912109375,1.22240970703125
-0.10422681640625,0.09149086181640625,1.2924531884765624
-0.13680818359375,0.21697711181640625,1.3121145166015624
-0.2878009375,-0.06634731201171876,1.24010490234375
-0.413263515625,0.0059543359375,1.17915478515625
-0.15334201171875,0.13168567626953126,1.2713172607421874
-0.53605150390625,-0.055808427734375,1.064627548828125
-0.52292169921875,-0.05703387939453125,0.89504859375
-0.0597313671875,-0.091101435546875,0.7790467578125
-0.08988128906250001,-0.1200220947265625,0.6947488134765625
-0.086477265625,0.021640117187500002,0.72202890625
-0.0937716015625,-0.0837487255859375,0.885709462890625
-0.26421591796875,-0.1347275146484375,1.127052265625
-0.1540714453125,0.0985984814453125,1.1862820166015624
-0.10617197265625,-0.07222947998046875,1.1862820166015624
-0.3456693359375,-0.089140712890625,1.3479964404296876
-0.44122513671875,-0.01144707763671875,1.3701154345703126
-0.3126016796875,-0.1102184814453125,1.1194335009765626
-0.33108066406250003,-0.163648173828125,0.860149736328125
-0.30749564453125,0.059874208984374996,0.7822417236328125
-0.282938046875,-0.0327699365234375,0.667468720703125
-0.07310431640625001,-0.07811164794921875,0.642892060546875
0.016372871093749998,-0.0945327001953125,0.773148359375
-0.1453182421875,-0.2214894921875,0.8141913818359375
-0.230418828125,-0.171491064453125,1.08281427734375
-0.4691867578125,-0.00458454833984375,1.239613369140625
-0.392839375,0.17580193603515626,1.3922344287109376
-0.234309140625,0.152028173828125,1.336936943359375
-0.2202067578125,0.17653720703125,1.1430270947265626
-0.17279357421875,0.03928662109375,1.1749767529296875
-0.18008791015625,-0.10458140380859375,0.9572275439453125
-0.1832487890625,-0.06242586669921875,0.841471474609375
-0.16793068359375,-0.06634731201171876,0.8623616357421875
-0.1725504296875,-0.04306373046875,1.1784174853515625
-0.29776986328125,-0.09820905517578125,1.056271484375
-0.2931501171875,-0.0778665576171875,0.99630443359375
-0.12708240234375,-0.0038492773437499997,0.95108337890625
-0.1881116796875,-0.0641414990234375,0.9886856689453125
-0.17814275390625,0.140263837890625,1.1427813281249999
-0.1433730859375,0.07776580322265625,1.0461950537109375
-0.3135742578125,0.11305881103515625,0.9183964208984375
-0.1034973828125,0.182419375,1.069542880859375
-0.28196546875,0.19589934326171876,1.2017653125
-0.34032015625,0.17482157470703125,1.3497168066406249
-0.3038484765625,0.02923791748046875,1.0373474560546876
-0.1842213671875,-0.05556333740234375,0.6106966357421875
-0.16598552734375,-0.23791054443359375,0.391227060546875
-0.039793515625,-0.21781313720703124,0.359768935546875
0.00956482421875,-0.2254109375,0.4091680224609375
0.05868001953125,-0.2881540625,0.7055625439453125
0.0900456640625,-0.312663095703125,1.05135615234375
-0.15066742187499998,-0.25996867431640625,1.605314072265625
-0.2464663671875,-0.14869766357421876,1.7800541259765625
-0.11298001953125,0.19246807861328125,1.6935442822265625
-0.3330258203125,0.3667273046875,1.5340417578125
-0.37898013671874997,0.40863775146484377,1.495210634765625
-0.45386865234375,0.34099281982421875,1.3710985009765624
-0.5868687109375,0.20276187255859374,1.0206353271484374
-0.51611365234375,0.07065818359375,0.6156119677734375
-0.05657048828125,-0.1033559521484375,0.3452687060546875
0.01345513671875,-0.18497103271484375,0.3629639013671875
0.0754569921875,-0.17320669677734374,0.4357108154296875
0.09734,-0.2621744873046875,0.7743771923828124
0.004701933593749999,-0.48447141845703123,1.50749896484375
-0.56036595703125,-0.12811007568359375,1.9862523046875
-0.6072928515625,0.28903366943359377,1.964133310546875
-0.52583943359375,0.21648693115234374,1.4821850048828125
-0.46019041015625,0.1534987158203125,1.10640787109375
-0.32548833984375003,0.07923634521484375,0.6554261572265625
-0.27151025390625,-0.093062158203125,0.4170325537109375
-0.004294414062500002,-0.1866866650390625,0.45488061035156246
0.04944052734375,-0.1651187158203125,0.4927286669921875
-0.19127255859375,-0.1111988427734375,0.50870349609375
-0.10106593750000001,-0.07320984130859375,0.533771689453125
0.016372871093749998,0.02874773681640625,0.91077765625
-0.308225078125,0.0201695751953125,1.3502083398437499
-0.46797103515625,0.06109966064453125,1.660365791015625
-0.522192265625,0.08364797119140625,1.591551142578125
-0.53605150390625,0.09786321044921875,1.2467406005859374
-0.403537734375,0.04002189208984375,0.888658662109375
-0.31770771484375,-0.11438501708984375,0.6146289013671875
-0.2707808203125,-0.12712971435546874,0.37500646484375
-0.0937716015625,-0.116590830078125,0.3457602392578125
0.090531953125,-0.1455114892578125,0.244750166015625
0.08445333984375,-0.175412509765625,0.39171859375
-0.0947441796875,-0.179333955078125,0.688113115234375
-0.30020130859375,-0.10164031982421876,0.8417172412109375
-0.23406599609375,0.0535018603515625,1.108865537109375
0.025612363281249998,0.09884357177734375,1.4030481591796875
0.06743322265625,0.13070531494140625,1.618093935546875
-0.3223274609375,0.136342392578125,2.0258207275390623
-0.67610275390625,0.17261576171875,1.8218344482421875
-0.41691068359375,-0.1170810107421875,1.1027213720703124
-0.4079143359375,0.02972809814453125,0.956490244140625
-0.37217208984375,0.11649007568359375,0.9144641552734375
0.010780546874999998,-0.11781628173828125,1.06315294921875
-0.17303671874999998,-0.18399067138671876,1.0186691943359376
-0.40645546875,-0.13203152099609375,0.6981895458984375
-0.30555048828125,-0.304820205078125,0.513127294921875
-0.02690685546875,-0.22908729248046875,0.3374041748046875
-0.039793515625,-0.0945327001953125,0.3791844970703125
0.00980796875,-0.100905048828125,0.5037881640624999
-0.019369375,0.010856142578125,0.9852449365234375
-0.33375525390625,0.33731646484375,1.6257127001953124
-0.5586639453125,0.3037390893554687,1.585652744140625
-0.092312734375,-0.035711020507812496,1.18701931640625
-0.2941226953125,-0.106787216796875,0.868014267578125
-0.4001337109375,-0.02615249755859375,0.6303579638671875
-0.279047734375,-0.01487834228515625,0.8805483642578125
-0.1813036328125,0.08805959716796875,1.1449932275390624
-0.156502890625,-0.004829638671875,1.1592476904296876
-0.16720125,-0.08840544189453126,1.1447474609375
0.03096154296875,-0.03742665283203125,0.926015185546875
-0.05219388671875,-0.1455114892578125,0.829674677734375
-0.09887763671875,0.07850107421875,0.7640549951171876
-0.129270703125,-0.020515419921875,0.890624794921875
-0.026177421875,-0.0886505322265625,1.1604765234375
-0.09498732421875,0.08070688720703124,1.472600107421875
-0.5275414453125,0.1211467919921875,1.4526930126953124
-0.38676076171875,-0.0955130615234375,1.171781787109375
-0.329621796875,-0.02909358154296875,1.2037314453125
-0.284883203125,0.12335260498046875,1.199307646484375
-0.224583359375,0.08217742919921875,1.0776531787109376
0.0010547656249999988,0.07629526123046874,0.99040603515625
0.00980796875,-0.09575815185546875,0.936828916015625
-0.1472633984375,-0.15556019287109374,0.9075826904296875
-0.2552195703125,-0.114630107421875,0.9139726220703125
-0.08137123046875,-0.0857094482421875,1.0275167919921875
-0.20804953125,-0.03522083984375,1.038084755859375
-0.36366203125,0.0887948681640625,1.0452119873046875
-0.45532751953125,-0.051886982421875,0.907336923828125
-0.32889236328125,-0.05874951171875,0.6677144873046875
-0.1686601171875,-0.04968116943359375,0.5084577294921875
-0.033958046875,-0.067572763671875,0.4801945703125
-0.131215859375,-0.047965537109375,0.6593584228515625
-0.18495080078125,0.05423713134765625,0.990897568359375
-0.22774423828125,0.08364797119140625,1.3086737841796876
-0.42663646484375,0.05962911865234375,1.33546234375
-0.255705859375,0.0633054736328125,1.164900322265625
-0.23795630859375,0.10202974609375,0.968287041015625
-0.12854126953125,0.0642858349609375,0.659604189453125
-0.07188859375000001,0.06992291259765625,0.6475616259765625
-0.039793515625,0.11894097900390625,0.725469638671875
-0.3271903515625,0.008895419921875,0.741198701171875
-0.245980078125,-0.05017135009765625,0.9134810888671875
-0.32986494140625,-0.0327699365234375,1.064627548828125
-0.31868029296875,-0.015368522949218751,0.8530225048828125
-0.133161015625,-0.12933552734375,0.7478343994140625
-0.22482650390625,-0.004829638671875,0.782487490234375
-0.20342978515625,0.02433611083984375,0.8692431005859375
-0.34299474609375,-0.073454931640625,0.9768888720703125
-0.43538966796875,0.0289928271484375,0.9166760546875
-0.2843969140625,0.0829127001953125,0.80067421875
-0.2192341796875,0.08315779052734375,0.6401886279296874
-0.1453182421875,0.0584036669921875,0.5249240917968749
-0.005996425781250002,-0.01291761962890625,0.5782554443359375
-0.23406599609375,0.02433611083984375,0.848352939453125
-0.2766162890625,0.04002189208984375,0.9559987109375
-0.0986344921875,-0.0631611376953125,0.9041419580078125
-0.16841697265625,-0.1121792041015625,1.0024485986328124
-0.14896541015625,0.08021670654296875,1.0098215966796875
-0.08307324218750001,-0.09796396484375,0.8230389794921875
-0.19321771484375,-0.1131595654296875,0.790352021484375
-0.16695810546875,0.05374695068359375,0.958456376953125
-0.08866556640625001,0.093206494140625,1.0083469970703125
-0.17133470703125,0.06747200927734374,1.0884669091796875
-0.16112263671875,0.0848734228515625,1.2718087939453124
-0.30944080078125,0.1133039013671875,1.3406234423828125
-0.3077387890625,0.165753232421875,1.302529619140625
-0.36220316406249997,0.09835339111328124,1.1956211474609375
-0.298499296875,-0.013652890625,1.159984990234375
-0.2746711328125,0.1231075146484375,1.2354353369140625
-0.2153438671875,0.10399046875,1.18603625
-0.265431640625,-0.05409279541015625,0.9695158740234375
-0.1414279296875,0.08168724853515624,1.0540595849609375
-0.16549923828125,0.06060947998046875,0.97860923828125
-0.216802734375,-0.14526639892578125,0.987948369140625
-0.19613544921875,-0.120512275390625,1.040542421875
-0.2464663671875,-0.0724745703125,0.950591845703125
-0.22044990234375,-0.045024453125,0.9095488232421876
-0.23892888671875,0.0373258984375,0.96681244140625
-0.16720125,0.20521277587890624,1.083305810546875
-0.22482650390625,0.136342392578125,1.164900322265625
-0.26178447265625,0.174576484375,1.355123671875
-0.22336763671875,0.22874144775390626,1.4241840869140625
-0.25935302734375,0.07384435791015626,1.271071494140625
-0.232363984375,0.1956542529296875,1.1388490625
-0.19613544921875,0.10815700439453126,1.0442289208984374
-0.30117388671875,-0.0072805419921875,0.9994993994140625
-0.0743200390625,0.06551128662109375,1.028745625
-0.25205869140625,0.017718671875,1.0673309814453125
-0.2065906640625,0.0417375244140625,1.0142453955078126
-0.1944334375,-0.07124911865234375,0.8830060302734375
-0.1229489453125,0.0897752294921875,0.8458952734375
-0.2114535546875,-0.01438816162109375,0.8427003076171875
-0.09985021484375001,-0.0001729223632812504,0.9646005419921875
-0.10495625,0.11452935302734375,1.0427543212890624
-0.35174794921875,0.0721287255859375,1.098051806640625
-0.15771861328125,0.18952699462890624,1.2076637109375
-0.27929087890625,0.05668803466796875,1.0240760595703124
-0.2318776953125,0.19222298828125,1.04939001953125
-0.22434021484375,0.15227326416015624,0.9213456201171875
-0.26324333984375,0.07261890625,0.7689703271484375
-0.17376615234375,0.14394019287109375,0.7930554541015625
-0.14312994140625,0.08242251953125,0.6967149462890625
-0.14702025390625,0.09345158447265625,0.7463597998046875
-0.210967265625,0.106931552734375,0.8731753662109375
-0.09352845703125,0.0446786083984375,0.872929599609375
-0.23066197265625,0.1534987158203125,0.9793465380859375
-0.23941517578125,0.1642826904296875,1.1567900244140625
-0.2795340234375,0.046149150390625,1.134425263671875
-0.1569891796875,0.20521277587890624,1.1179589013671876
-0.08672041015625,0.1554594384765625,1.1120605029296875
-0.0451426953125,0.0564429443359375,1.2428083349609376
-0.30919765625,0.1534987158203125,1.3071991845703126
-0.39745912109375,0.15766525146484375,1.1489254931640625
-0.23212083984375,0.044188427734375,0.9370746826171875
-0.33521412109375,-0.014633251953124999,0.8530225048828125
-0.15236943359375,0.20227169189453126,0.8309035107421875
-0.13632189453125,0.18266446533203126,0.8812856640625
-0.26081189453125,0.155949619140625,0.865065068359375
-0.251815546875,0.197124794921875,0.7778179248046875
-0.249870390625,0.173596123046875,0.755944697265625
-0.05073501953125,0.056933125,0.7699533935546875
-0.0811280859375,0.1079119140625,0.861132802734375
-0.0752926171875,0.0515411376953125,1.1218911669921874
-0.26154132812499997,-0.22271494384765625,1.236664169921875
-0.30992708984375,-0.20261753662109375,1.3366911767578125
-0.50930560546875,-0.196980458984375,1.15359505859375
-0.423961875,-0.159726728515625,0.938303515625
-0.335457265625,-0.04330882080078125,0.6957318798828125
-0.299471875,0.073599267578125,0.6296206640625
-0.06824142578125,0.11771552734375,0.56768748046875
-0.024232265625,0.14688127685546876,0.6846723828125
-0.06799828125,0.1515379931640625,0.8721922998046875
-0.2221519140625,-0.01953505859375,1.0604495166015624
-0.232363984375,0.0966377587890625,1.187510849609375
-0.312115390625,0.19589934326171876,1.079373544921875
-0.417153828125,0.05031568603515625,0.8756330322265625
-0.4001337109375,0.0544822216796875,0.9124980224609375
-0.30700935546875,0.08756941650390625,0.873912666015625
-0.1944334375,0.12972495361328126,0.8972604931640625
-0.24816837890625,0.03512008544921875,1.0759328125
-0.34396732421875,0.11599989501953126,1.2580458642578125
-0.39697283203125,0.04786478271484375,1.1494170263671875
-0.2488978125,0.04149243408203125,0.9503460791015625
-0.26275705078125,0.07580508056640625,0.8141913818359375
-0.18057419921875,-0.0141430712890625,0.72497810546875
-0.12221951171875,0.0182088525390625,0.757910830078125
-0.07407689453124999,-0.1013952294921875,0.78789435546875
-0.01280447265625,-0.0464949951171875,0.7748687255859374
-0.1399690625,-0.1043363134765625,0.8151744482421874
-0.34591248046875,-0.0886505322265625,0.9577190771484375
-0.2970404296875,0.018699033203125,1.0319405908203125
-0.226528515625,-0.0219859619140625,1.013508095703125
-0.2698082421875,0.07335417724609375,1.0117877294921875
-0.29752671875000003,-0.035711020507812496,1.0329236572265625
-0.3213548828125,-0.03840701416015625,1.0275167919921875
-0.23941517578125,0.0221302978515625,1.060695283203125
-0.24476435546875,0.19246807861328125,1.016948828125
-0.14215736328125,-0.0464949951171875,0.9557529443359375
-0.068970859375,0.101049384765625,0.9950756005859375
0.07959044921875,0.023845930175781252,0.977134638671875
0.11995244140625,-0.20016663330078124,1.051847685546875
0.03387927734375,-0.08203309326171875,1.370852734375
-0.52389427734375,-0.12860025634765626,1.4546591455078124
-0.3894353515625,-0.02272123291015625,1.373310400390625
-0.428824765625,0.0211499365234375,1.300563486328125
-0.4176401171875,-0.1513936572265625,1.1381117626953126
-0.26616107421875,0.02776737548828125,1.0638902490234374
-0.18689595703125,-0.0175743359375,0.8889044287109376
-0.21850474609375,0.06306038330078124,0.7370206689453125
-0.28658521484375,-0.0190448779296875,0.675333251953125
-0.1278118359375,-0.132276611328125,0.5350005224609375
0.10974037109375,-0.1700205224609375,0.748080166015625
0.0156434375,-0.08301345458984374,1.074458212890625
-0.27102396484375,-0.07320984130859375,1.1250861328125
-0.26713365234374997,-0.06095532470703125,1.1174673681640626
-0.34493990234375,0.07825598388671876,1.117713134765625
-0.26518849609375,0.13854820556640626,1.048406953125
-0.36390517578125,0.10325519775390625,1.1538408251953125
-0.3826273046875,0.18021356201171876,1.1690783544921874
-0.23941517578125,0.09394176513671874,0.9582106103515625
-0.21583015625000002,0.00619942626953125,0.8682600341796876
-0.1550440234375,0.08315779052734375,0.9139726220703125
-0.24695265625,0.0956573974609375,0.943710380859375
-0.1375376171875,0.056933125,1.02972869140625
-0.09839134765625,0.0603643896484375,1.121645400390625
-0.24938410156250002,0.01110123291015625,1.1282810986328125
-0.31868029296875,0.0025230712890624996,1.0648733154296874
-0.20415921875,0.1392834765625,0.9196252539062499
-0.286828359375,-0.006790361328125,0.7763433251953125
-0.257651015625,0.032424091796875,0.7375122021484375
-0.0500055859375,0.0280124658203125,0.8505648388671875
-0.31916658203125,-0.0175743359375,1.023338759765625
-0.31989601562500003,-0.0406128271484375,1.1017383056640626
-0.34007701171875,-0.00997653564453125,1.1558069580078125
-0.27880458984375,-0.0347306591796875,1.105916337890625
-0.26154132812499997,0.0020328906249999995,0.9503460791015625
-0.181789921875,0.015022678222656249,0.946168046875
-0.070916015625,-0.0494360791015625,0.8967689599609375
-0.28464005859375,-0.02958376220703125,0.8365561425781249
-0.13729447265625,-0.11487519775390626,0.907336923828125
-0.25400384765625,0.0221302978515625,1.0063808642578125
-0.30992708984375,-0.03105430419921875,0.9097945898437501
-0.30506419921875,-0.06267095703125,0.925032119140625
-0.33181009765625,-0.08203309326171875,1.027271025390625
-0.34931650390625,-0.03987755615234375,0.96681244140625
-0.2513292578125,-0.02737794921875,0.735300302734375
-0.191515703125,-0.0817880029296875,0.730384970703125
-0.1492085546875,0.050070595703125,0.9016842919921875
-0.30068759765624997,0.049090234375,0.9424815478515625
-0.2873146484375,0.05668803466796875,0.916184521484375
-0.11832919921875,0.02752228515625,1.0383305224609374
-0.24476435546875,-0.037916833496093746,1.1381117626953126
-0.28172232421875,0.11452935302734375,1.1808751513671876
-0.18081734375,0.0348749951171875,1.0427543212890624
-0.22239505859375,-0.09918941650390625,0.9813126708984374
-0.346155625,-0.0055649096679687505,1.032677890625
-0.2027003515625,-0.16095218017578125,0.8771076318359375
-0.16404037109375,-0.07566074462890625,0.8348357763671875
-0.31308796875,-0.06242586669921875,0.9351085498046875
-0.2736985546875,-0.0038492773437499997,0.9857364697265625
-0.1555303125,0.0270321044921875,1.010558896484375
-0.27807515625,-0.01095689697265625,1.0727378466796875
-0.17862904296875,0.02678701416015625,1.114763935546875
-0.17765646484375,0.14516564453125,1.064136015625
-0.29509527343749997,0.0966377587890625,1.0589749169921876
-0.23795630859375,-0.0504164404296875,1.0928907080078125
-0.166228671875,0.04590406005859375,1.102967138671875
-0.2367405859375,-0.060710234375,1.058729150390625
-0.2736985546875,-0.08227818359375,1.0874838427734375
-0.21947732421875,0.0505607763671875,1.1054248046875
-0.3612305859375,0.05178622802734375,1.067576748046875
-0.3072525,0.09149086181640625,1.06315294921875
-0.2532744140625,-0.04330882080078125,1.0228472265625
-0.17327986328125,-0.06438658935546875,1.0889584423828125
-0.17425244140625,0.0074248779296875,1.043000087890625
-0.0976619140625,0.021640117187500002,0.972219306640625
-0.18154677734375,-0.0249270458984375,0.9960586669921875
-0.1530988671875,-0.0317895751953125,1.1331964306640625
-0.1939471484375,0.02237538818359375,1.2054518115234374
-0.27442798828125,0.01159141357421875,1.192426181640625
-0.2221519140625,-0.00507472900390625,1.072000546875
-0.224583359375,-0.08448399658203125,0.917167587890625
-0.27831830078124997,0.009140510253906251,0.9208540869140625
-0.19637859375,-0.04477936279296875,0.89406552734375
-0.2610550390625,0.0574233056640625,0.9346170166015625
-0.1365650390625,0.02972809814453125,0.8530225048828125
-0.18786853515625002,0.03021827880859375,0.808047216796875
-0.0752926171875,0.024581201171875,0.8930824609375
-0.04854671875,-0.03522083984375,0.942727314453125
-0.20026890625,0.0515411376953125,0.9867195361328125
-0.146777109375,-0.07026875732421875,1.0938737744140625
-0.30117388671875,0.0289928271484375,1.182103984375
-0.2445212109375,0.08903995849609375,1.0963314404296876
-0.189570546875,-0.0013983740234375002,0.9198710205078124
-0.19321771484375,-0.01291761962890625,0.8136998486328125
-0.25643529296875,-0.01169216796875,0.84687833984375
-0.30700935546875,0.03364954345703125,0.884726396484375
-0.16404037109375,0.1231075146484375,0.9609140429687499
-0.251815546875,0.12531332763671876,1.0004824658203124
-0.18592337890625,0.13021513427734374,0.9808211376953125
-0.2221519140625,0.10276501708984374,0.91765912109375
-0.16987583984375,0.0338946337890625,0.851302138671875
-0.14167107421875,0.10399046875,0.891607861328125
-0.119544921875,0.01992448486328125,0.8348357763671875
-0.20148462890625,0.010611052246093749,0.858183603515625
-0.27929087890625,0.0883046875,0.9520664453125
-0.20537494140625,0.0672269189453125,1.015474228515625
-0.34445361328125,-0.08399381591796876,1.070525947265625
-0.3033621875,0.12090170166015625,1.1445016943359374
-0.18738224609375,0.07286399658203124,1.007609697265625
-0.189570546875,0.0025230712890624996,0.8166490478515624
-0.19224513671875,0.07727562255859374,0.8616243359375
-0.19224513671875,0.0054641552734375,0.7384952685546875
-0.24281919921875,-0.0151234326171875,0.7247323388671875
-0.20415921875,0.01183650390625,0.8618701025390625
-0.1151683203125,0.0123266845703125,0.8262339453125
-0.26227076171875,0.0123266845703125,0.8510563720703125
-0.21996361328125,-0.0082609033203125,0.886692529296875
-0.18008791015625,-0.0504164404296875,0.87047193359375
-0.24768208984375,0.05080586669921875,0.830657744140625
-0.27272597656249997,0.00521906494140625,0.8299204443359375
-0.282938046875,-0.05017135009765625,0.8830060302734375
-0.3330258203125,0.062080021972656246,0.94911724609375
-0.2474389453125,0.012816865234374999,0.9913891015625
-0.20804953125,0.1770273876953125,1.0520934521484375
-0.23698373046875,0.06894255126953125,0.9862280029296875
-0.29169125,0.04982550537109375,1.0157199951171876
-0.2722396875,0.15619470947265626,1.0936280078125
-0.19759431640625,0.06404074462890624,1.102967138671875
-0.2260422265625,0.046149150390625,1.0108046630859375
-0.265431640625,0.05717821533203125,1.0353813232421876
-0.30117388671875,0.13119549560546875,1.1066536376953124
-0.35126166015625,0.06404074462890624,1.1794005517578126
-0.31187224609374997,0.10325519775390625,1.29319048828125
-0.27272597656249997,0.0608545703125,1.1381117626953126
-0.27418484375,-0.0141430712890625,1.0073639306640625
-0.224583359375,0.04982550537109375,0.9036504248046875
-0.2172890234375,-0.0749254736328125,0.7829790234375
-0.27588685546875,-0.11561046875,0.7070371435546875
-0.18397822265625,-0.10997339111328125,0.655180390625
-0.07796720703125,-0.1273748046875,0.628146064453125
-0.022530253906250002,-0.044534272460937496,0.68958771484375
-0.1647698046875,0.0525214990234375,0.8461410400390625
-0.16525609375,0.08119706787109375,1.0786362451171876
-0.17303671874999998,0.16697868408203126,1.3209621142578125
-0.42979734375,0.1799684716796875,1.360530537109375
-0.16160892578125,0.1784979296875,1.2079094775390624
-0.33108066406250003,0.05105095703125,1.1066536376953124
-0.27345541015625,0.00178780029296875,1.11427240234375
-0.19321771484375,0.056933125,0.926998251953125
-0.230418828125,-0.10213050048828125,0.830657744140625
-0.0859909765625,-0.07909200927734375,0.9277355517578125
-0.0879361328125,-0.0567887890625,0.89406552734375
-0.22920310546875,0.028502646484374998,1.055779951171875
-0.247925234375,0.09051050048828126,1.16342572265625
-0.2450075,0.069677822265625,1.18603625
-0.1560166015625,0.08070688720703124,0.8773533984374999
-0.07845349609375,-0.07762146728515625,0.673367119140625
0.02853009765625,0.0691876416015625,0.9021758251953125
-0.2659179296875,0.06355056396484375,1.062661416015625
-0.1657423828125,0.1628121484375,1.211104443359375
-0.2099946875,0.1319307666015625,1.3691323681640626
-0.35515197265625,0.2456526806640625,1.5261772265625
-0.35709712890625,0.2495741259765625,1.3214536474609375
-0.33132380859375,0.1427147412109375,1.1872650830078124
-0.212912421875,0.03021827880859375,1.271071494140625
-0.10763083984374999,0.07237381591796875,1.2666476953124999
-0.23528171875,-0.1043363134765625,1.0216183935546874
-0.12124693359375,-0.07468038330078125,0.87243806640625
-0.12319208984375,-0.05801424072265625,0.8608870361328125
-0.21315556640625,0.0005623486328125002,0.9518206787109375
-0.26567478515625,-0.01561361328125,0.9945840673828125
-0.16525609375,-0.06340622802734375,1.0329236572265625
-0.27005138671875,-0.13325697265625,1.0820769775390624
-0.31138595703125,0.01159141357421875,1.11034013671875
-0.31308796875,0.0378160791015625,0.887675595703125
-0.2435486328125,-0.028358310546875,0.716622041015625
-0.268349375,-0.03203466552734375,0.6932742138671875
-0.19029998046875,0.0936966748046875,0.72891037109375
-0.09741876953125,0.10619628173828125,0.74070716796875
-0.28658521484375,0.06894255126953125,0.861132802734375
-0.25740787109375,0.18707609130859376,1.0700344140625
-0.1589343359375,0.12972495361328126,0.921099853515625
-0.1511537109375,0.15692998046875,0.9196252539062499
-0.174981875,0.06796218994140625,1.0289913916015625
-0.32840607421875,0.03266918212890625,1.12606919921875
-0.35612455078125,0.0897752294921875,0.9953213671875
-0.218747890625,-0.09771887451171875,0.757419296875
-0.187625390625,-0.01978014892578125,0.828691611328125
-0.189570546875,-0.04036773681640625,0.9016842919921875
-0.2396583203125,0.14516564453125,1.1361456298828125
-0.34639876953125,0.1309504052734375,1.17522251953125
-0.39940427734375,0.19222298828125,1.216019775390625
-0.30117388671875,0.18021356201171876,0.93732044921875
-0.14750654296875,0.1584005224609375,0.677299384765625
-0.0354169140625,0.09639266845703125,0.5743231787109375
-0.1404553515625,0.0878145068359375,0.7082659765625
-0.26859251953125,0.09002031982421875,0.9196252539062499
-0.22968939453125,-0.0317895751953125,0.9955671337890625
-0.174009296875,0.11501953369140624,0.9837703369140625
-0.1180860546875,-0.0494360791015625,0.8608870361328125
-0.13826705078125,-0.0406128271484375,1.100017939453125
-0.28074974609375003,0.02433611083984375,1.3126060498046874
-0.36828177734375,-0.0631611376953125,1.4138618896484374
-0.44049570312499997,0.0172284912109375,1.3666747021484376
-0.2177753125,0.00399361328125,1.0717547802734375
-0.22093619140625,-0.069533486328125,0.8653108349609375
-0.22750109375,-0.0210056005859375,0.8333611767578125
-0.18349193359375,-0.0082609033203125,0.81345408203125
-0.12756869140625,0.0250713818359375,0.779538291015625
-0.10908970703125,0.03561026611328125,0.8215643798828125
-0.12173322265625,-0.05360261474609375,0.8186151806640625
-0.13778076171875,-0.03914228515625,0.8603955029296875
-0.18446451171875,0.034384814453125,0.99040603515625
-0.2202067578125,0.14124419921875,1.133442197265625
-0.3670660546875,0.06992291259765625,1.150645859375
-0.19905318359375002,0.18609572998046875,1.206189111328125
-0.31430369140625003,0.291239482421875,1.1970957470703125
-0.35952857421875,0.3338852001953125,1.215036708984375
-0.13437673828125,0.2858474951171875,1.1140266357421875
-0.16112263671875,0.08953013916015624,1.1499085595703125
-0.1355924609375,0.085363603515625,1.165883388671875
-0.28123603515625,0.06551128662109375,0.99433830078125
-0.142886796875,0.00472888427734375,1.000728232421875
-0.19419029296875,0.1157548046875,1.1081282373046875
-0.37217208984375,0.0054641552734375,1.029237158203125
-0.294608984375,0.01747358154296875,1.1427813281249999
-0.11079171875,0.099088662109375,1.1243488330078124
-0.33229638671875,0.0672269189453125,1.0432458544921874
-0.16209521484375,0.12923477294921876,1.103458671875
-0.3339983984375,-0.03105430419921875,1.102967138671875
-0.2143712890625,-0.0553182470703125,0.9464138134765625
-0.1637972265625,0.0003172583007812497,0.8628531689453125
-0.27540056640625,-0.03889719482421875,0.9115149560546875
-0.04465640625,-0.0768861962890625,0.854251337890625
-0.20780638671875,-0.05458297607421875,0.97271083984375
-0.14580453125,0.053992041015625,0.9501003125
-0.2211793359375,-0.07566074462890625,0.8498275390625
-0.14069849609375001,0.143204921875,1.0071181640625
-0.2231244921875,0.13315621826171875,1.1199250341796876
-0.28318119140625,0.087324326171875,1.189476982421875
-0.31138595703125,0.1721255810546875,1.2430541015625
-0.2085358203125,0.13315621826171875,1.2295369384765624
-0.2620276171875,0.0907555908203125,1.05332228515625
-0.282938046875,0.134381669921875,1.06905134765625
-0.1589343359375,0.0843832421875,0.893573994140625
-0.14945169921875,0.08266760986328126,0.7330884033203124
-0.0587587890625,0.08854977783203125,0.651248125
0.016372871093749998,0.12163697265625,0.7866655224609375
-0.063135390625,0.13168567626953126,1.072492080078125
-0.3388612890625,0.143204921875,1.266156162109375
-0.30871136718750003,0.17261576171875,1.3089195507812499
-0.31381740234375,0.1760470263671875,1.22634197265625
-0.3388612890625,0.158890703125,1.0938737744140625
-0.36390517578125,0.0780108935546875,0.92748978515625
-0.1783858984375,0.06845237060546874,0.8616243359375
-0.218747890625,-0.07615092529296875,0.6426462939453125
-0.055354765624999996,-0.0749254736328125,0.5664586474609374
-0.0714023046875,-0.1572758251953125,0.6519854248046875
-0.1944334375,-0.1102184814453125,0.7389868017578125
0.023667207031249998,-0.06683749267578125,0.8102591162109375
-0.16647181640625,-0.19918627197265626,0.9129895556640625
-0.26470220703125,0.0037485229492187503,0.9818042041015624
-0.21121041015625,0.16011615478515626,1.0363643896484376
-0.2775888671875,0.2020266015625,1.02088109375
-0.24330548828125,0.2451625,1.0688055810546875
-0.2523018359375,0.27138716552734377,1.1054248046875
-0.3048210546875,0.230457080078125,1.113780869140625
-0.24695265625,0.26060319091796874,1.0936280078125
-0.148722265625,0.17433139404296874,1.06118681640625
-0.08234380859375,0.08609887451171874,0.8869382958984375
-0.0927990234375,0.1025199267578125,0.7748687255859374
-0.13243158203125,0.12678386962890625,0.8564632373046875
-0.23552486328125,0.16207687744140625,0.9483799462890625
-0.18640966796875,0.174576484375,0.9695158740234375
-0.23017568359375,0.20790876953125,1.046932353515625
-0.1744955859375,0.1995756982421875,1.185544716796875
-0.29825615234375,0.22972180908203124,1.11427240234375
-0.21461443359375,0.23119235107421876,1.1292641650390625
-0.222638203125,0.220653466796875,1.0629071826171874
-0.25303126953125,0.146146005859375,1.0162115283203126
-0.237226875,0.16869431640625,0.9754142724609375
-0.27053767578125,0.0985984814453125,0.9183964208984375
-0.26032560546875,0.0544822216796875,0.806081083984375
-0.2027003515625,0.03928662109375,0.7856824560546875
-0.12076064453125,0.0417375244140625,0.8009199853515625
-0.098148203125,0.12090170166015625,0.8812856640625
-0.20342978515625,0.106931552734375,0.9704989404296875
-0.19029998046875,0.14099910888671874,1.06020375
-0.27151025390625,0.03659062744140625,1.0700344140625
-0.292663828125,0.1270289599609375,1.217985908203125
-0.294608984375,0.10202974609375,1.175714052734375
-0.23941517578125,0.03144373046875,0.9709904736328125
-0.28585578125,0.09100068115234375,0.94518498046875
-0.2960678515625,0.01453249755859375,0.8365561425781249
-0.21801845703125,-0.01732924560546875,0.7620888623046875
-0.11930177734375,0.0780108935546875,0.7232577392578124
-0.06751199218750001,0.1314405859375,0.7298934375
0.026341796875,0.111833359375,0.8441749072265625
-0.06532369140625,0.25104466796875,0.94125271484375
-0.2338228515625,0.3299637548828125,1.2155282421875
-0.32986494140625,0.36795275634765623,1.3996074267578125
-0.16938955078125,0.39736359619140627,1.46424404296875
-0.228473671875,0.36648221435546874,1.359547470703125
-0.4828028515625,0.020659755859375,1.2295369384765624
-0.39210994140625,-0.050661530761718754,0.9562444775390625
-0.22531279296875,-0.03301502685546875,0.67975705078125
-0.11930177734375,-0.07124911865234375,0.4460330126953125
-0.0490330078125,-0.065612041015625,0.4362023486328125
0.035095,0.116735166015625,0.523941025390625
-0.037848359375,0.11967625,0.6952403466796875
-0.0932853125,0.24981921630859374,1.11525546875
-0.2542469921875,0.24883885498046876,1.4745662402343749
-0.36001486328125,0.2848671337890625,1.504549765625
-0.226528515625,0.336336103515625,1.49176990234375
-0.34104958984375,0.30030782470703127,1.3919886621093749
-0.33570041015625,0.16550814208984374,1.190460048828125
-0.26664736328125,0.23928033203125,1.0778989453125
-0.3592854296875,0.11379408203125,1.013508095703125
-0.3189234375,0.10717664306640624,0.89799779296875
-0.22190876953125,0.09688284912109375,0.891116328125
-0.16185207031249998,0.0765403515625,0.8928366943359375
-0.1443456640625,0.07850107421875,0.899472392578125
-0.1321884375,0.09541230712890625,0.8933282275390625
-0.13510617187500001,0.10987263671875,0.9410069482421874
-0.10714455078125,0.093206494140625,0.977134638671875
-0.1900568359375,0.118695888671875,1.1425355615234376
-0.23917203125,0.09002031982421875,1.2501813330078124
-0.2099946875,0.16599832275390625,1.200290712890625
-0.24184662109375,0.106931552734375,1.159001923828125
-0.1317021484375,0.1515379931640625,1.178663251953125
-0.37071322265625,0.1172253466796875,1.1164843017578125
-0.36196001953125,0.05521749267578125,1.091170341796875
-0.210967265625,0.08242251953125,1.0700344140625
-0.17911533203125,0.20521277587890624,1.01596576171875
-0.14410251953125,0.1221271533203125,0.9483799462890625
-0.26227076171875,0.10374537841796876,1.0103131298828125
-0.08720669921875,0.17776265869140626,1.0103131298828125
-0.100093359375,0.1221271533203125,0.8461410400390625
0.04165990234375,0.10374537841796876,0.70924904296875
0.058193730468749996,-0.0288484912109375,0.73087650390625
-0.09085386718749999,-0.13497260498046876,0.96877857421875
-0.4614061328125,0.00717978759765625,1.1897227490234374
-0.34931650390625,-0.19281392333984376,0.9950756005859375
-0.18738224609375,0.010611052246093749,0.84294607421875
-0.27296912109375,0.12531332763671876,0.8048522509765625
-0.2688356640625,0.19001717529296874,0.9572275439453125
-0.2488978125,0.2515348486328125,0.9488714794921875
-0.2464663671875,0.232417802734375,0.957473310546875
-0.07796720703125,0.24932903564453124,0.9803296044921875
-0.121490078125,0.28315150146484375,1.0575003173828126
-0.18203306640625,0.3172190576171875,0.9773804052734375
0.0025136328124999996,0.24295668701171874,0.902421591796875
-0.07699462890625,-0.057769150390625,0.7330884033203124
-0.0859909765625,0.1485969091796875,0.8812856640625
-0.32111173828125,0.05864875732421875,1.01006736328125
-0.23139140625,0.29491583740234373,1.3337419775390624
-0.302389609375,0.3780014599609375,1.555177685546875
-0.39162365234375,0.4015301318359375,1.545347021484375
-0.37338781249999997,0.3927068798828125,1.4561337451171874
-0.3242726171875,0.36868802734375,1.28827515625
-0.1842213671875,0.17335103271484376,0.9414984814453125
-0.060947089843749996,0.013552136230468751,0.812962548828125
-0.08234380859375,-0.00507472900390625,0.6731213525390625
0.0032430664062499982,0.1000690234375,0.674350185546875
-0.19808060546875,0.18413500732421875,0.7414444677734375
-0.25157240234375,0.191242626953125,0.810013349609375
-0.1287844140625,0.09443194580078125,0.9228202197265625
-0.27588685546875,-0.014633251953124999,0.97467697265625
-0.27734572265625,-0.05874951171875,0.8997181591796874
-0.11492517578125,0.04541387939453125,0.7591396630859375
-0.138996484375,0.0466393310546875,0.605535537109375
-0.16452666015625,0.05374695068359375,0.891607861328125
-0.378250703125,0.0446786083984375,1.2329776708984375
-0.34032015625,0.27285770751953126,1.3590559375
-0.28561263671875,0.31501324462890623,1.29319048828125
-0.2542469921875,0.16599832275390625,1.037101689453125
-0.05802935546875,0.07850107421875,0.8279543115234375
-0.0762651953125,-0.068553125,0.72694423828125
-0.08088494140625,0.03512008544921875,0.694011513671875
-0.09158330078125,0.12384278564453124,0.5969337060546875
-0.152612578125,0.07776580322265625,0.6146289013671875
-0.27029453125,0.12433296630859375,0.686146982421875
-0.12173322265625,0.23364325439453126,0.8422087744140625
-0.2240970703125,0.2490839453125,1.1250861328125
-0.24622322265625,0.3392771875,1.3465218408203126
-0.24087404296875,0.39981449951171877,1.48980376953125
-0.21266927734375,0.3407477294921875,1.33644541015625
-0.446331171875,0.1917328076171875,1.0284998583984375
-0.20926525390625,0.2613384619140625,0.9346170166015625
-0.05657048828125,0.06992291259765625,0.763809228515625
0.008349101562499999,-0.00654527099609375,0.605535537109375
-0.0422249609375,0.061834931640625,0.5863657421875
-0.04052294921875,0.0319339111328125,0.7851909228515626
-0.3096839453125,0.16354741943359374,0.9734481396484375
-0.2333365625,0.30594490234375,1.1907058154296875
-0.19248828125,0.31305252197265626,1.2629611962890626
-0.403537734375,0.21893783447265625,1.0501273193359375
-0.17036212890625,0.2691813525390625,0.9891772021484375
-0.3553951171875,0.19736988525390625,0.99040603515625
-0.36196001953125,0.11845079833984375,1.1007552392578126
-0.27053767578125,0.04247279541015625,0.917167587890625
-0.12829812499999999,0.19246807861328125,0.867522734375
-0.111764296875,0.19687970458984375,0.811979482421875
-0.04733099609375,0.2113400341796875,0.8210728466796875
-0.06726884765625,0.24246650634765626,0.9110234228515625
-0.18495080078125,0.24834867431640625,0.96288017578125
-0.27734572265625,0.10374537841796876,1.111814736328125
-0.24865466796875,0.14124419921875,1.3275978125
-0.34250845703125,0.175556845703125,1.3971497607421874
-0.430769921875,0.22825126708984375,1.3838783642578125
-0.44560173828125,0.20962440185546874,1.16145958984375
-0.29339326171875,0.1466361865234375,0.9857364697265625
-0.21607330078125,0.19614443359375,0.8456495068359375
-0.10495625,0.114774443359375,0.7979707861328125
0.005431367187500001,0.03462990478515625,0.8726838330078125
-0.0777240625,0.1084020947265625,1.0368559228515626
-0.2717533984375,-0.03693647216796875,1.1012467724609376
-0.13875333984375,0.07923634521484375,1.1091113037109375
-0.2022140625,0.22629054443359375,0.977626171875
-0.224583359375,0.08854977783203125,0.83114927734375
-0.21121041015625,0.22531018310546874,0.8643277685546875
-0.15139685546875,0.20521277587890624,1.0122792626953125
-0.33375525390625,0.22776108642578125,1.1995534130859375
-0.3777644140625,0.30815071533203126,1.197833046875
-0.15382830078125,0.26550499755859375,1.0014655322265624
-0.17571130859375,0.24981921630859374,1.0658563818359374
-0.22288134765625,0.2221240087890625,1.174730986328125
-0.16501294921875,0.17286085205078125,1.3170298486328125
-0.14847912109375,0.34442408447265627,1.4035396923828125
-0.247925234375,0.29197475341796875,1.0904330419921875
-0.164283515625,0.1682041357421875,0.86260740234375
-0.11152115234375,0.0505607763671875,0.8043607177734375
-0.12221951171875,0.2142811181640625,0.86359046875
-0.13875333984375,0.0740894482421875,0.90586232421875
-0.0937716015625,0.0858537841796875,1.048406953125
-0.15285572265625,0.25325048095703123,1.27549529296875
-0.39867484375,0.244182138671875,1.2961396875
-0.34421046875,0.2260454541015625,1.2391218359375
-0.27296912109375,0.2495741259765625,1.0592206835937499
-0.15869119140625,0.19687970458984375,0.875878798828125
-0.13437673828125,0.05105095703125,0.85081060546875
-0.02982458984375,0.11943115966796874,0.911269189453125
-0.19516287109375,0.05668803466796875,0.878827998046875
-0.179844765625,0.02776737548828125,0.906845390625
-0.059245078125,0.1035002880859375,0.8618701025390625
-0.0927990234375,0.026296833496093748,0.97074470703125
-0.148722265625,0.05497240234375,1.0747039794921875
-0.267376796875,0.20178151123046875,1.1735021533203125
-0.27807515625,0.10031411376953125,1.064136015625
-0.1375376171875,0.16011615478515626,0.92552365234375
-0.1219763671875,0.1074217333984375,0.95501564453125
-0.1793584765625,0.143204921875,1.0973145068359376
-0.23406599609375,0.163792509765625,1.277952958984375
-0.3252451953125,0.20374223388671875,1.241579501953125
-0.36001486328125,0.12580350830078124,1.08478041015625
-0.2834243359375,0.17727247802734375,0.9363373828125
-0.220693046875,0.25325048095703123,0.8938197607421875
-0.0431975390625,0.222614189453125,0.783470556640625
-0.05170759765625,0.2211436474609375,0.8019030517578125
-0.154557734375,0.23217271240234374,0.88226873046875
-0.27394169921875,0.23413343505859374,0.90193005859375
-0.24379177734375002,0.12923477294921876,0.891116328125
-0.3203823046875,0.19687970458984375,0.95698177734375
-0.23406599609375,0.2044775048828125,0.8756330322265625
-0.26713365234374997,0.23315307373046876,0.9488714794921875
-0.26275705078125,0.18609572998046875,1.1037044384765624
-0.29825615234375,0.23413343505859374,1.2359268701171875
-0.3388612890625,0.19442880126953124,1.286800556640625
-0.255705859375,0.1309504052734375,1.1371286962890625
-0.230418828125,0.1000690234375,0.8223016796875
-0.034930625,-0.01585870361328125,0.645841259765625
-0.17327986328125,-0.051886982421875,0.6775451513671875
-0.27151025390625,-0.008996174316406251,0.637976728515625
-0.206104375,0.05570767333984375,0.6588668896484375
-0.12076064453125,0.09051050048828126,0.6613245556640625
-0.1696326953125,0.05227640869140625,0.6131543017578125
-0.13145900390625,0.10031411376953125,0.657638056640625
-0.2022140625,0.11747043701171875,0.8210728466796875
-0.2192341796875,0.130460224609375,1.072492080078125
-0.23309341796875,0.2182025634765625,1.273037626953125
-0.34421046875,0.226535634765625,1.34037767578125
-0.288773515625,0.2544759326171875,1.2546051318359375
-0.25594900390624997,0.191242626953125,1.0189149609375
-0.168173828125,0.24736831298828124,0.953541044921875
-0.2600824609375,0.29418056640625,0.9965502001953125
-0.26275705078125,0.2515348486328125,0.9813126708984374
-0.13729447265625,0.2417312353515625,0.81148794921875
-0.11978806640625,0.18021356201171876,0.6716467529296875
-0.07504947265625,0.07188363525390624,0.677299384765625
-0.14264365234375,0.07972652587890625,0.84687833984375
-0.2999581640625,0.1172253466796875,1.0963314404296876
-0.37119951171875,0.1544790771484375,1.2226554736328126
-0.279047734375,0.2446723193359375,1.1784174853515625
-0.19224513671875,0.2034971435546875,1.0683140478515625
-0.267376796875,0.20006587890625,0.9523122119140625
-0.0879361328125,0.24197632568359376,0.986965302734375
-0.09936392578125,0.20472259521484376,1.03759322265625
-0.1540714453125,0.16452778076171876,1.056271484375
-0.0030786914062500004,0.1231075146484375,1.0786362451171876
-0.146777109375,-0.0009081933593750001,0.9609140429687499
-0.19637859375,0.08021670654296875,1.003677431640625
-0.140941640625,0.0515411376953125,1.037101689453125
-0.27880458984375,0.12555841796875,1.08281427734375
-0.23309341796875,0.04149243408203125,1.0992806396484376
-0.25084296875,0.21452620849609375,1.173747919921875
-0.26518849609375,0.22187891845703125,1.109848603515625
-0.24306234375,0.18854663330078125,1.0083469970703125
-0.21218298828125,0.2280061767578125,0.925032119140625
-0.12173322265625,0.1799684716796875,1.0230929931640624
-0.2099946875,0.11992134033203125,1.1322133642578125
-0.1365650390625,0.0701680029296875,1.1513831591796875
-0.1929745703125,0.1240878759765625,1.092153408203125
-0.21655958984375,0.14516564453125,1.0324321240234375
-0.19370400390625,0.10864718505859375,1.0457035205078125
-0.2571647265625,0.18952699462890624,1.0904330419921875
-0.2853694921875,0.24148614501953125,1.1445016943359374
-0.2450075,0.18413500732421875,1.0857634765625
-0.31576255859375,0.22138873779296875,1.155069658203125
-0.24695265625,0.2672206298828125,1.2428083349609376
-0.2367405859375,0.14197947021484375,1.035135556640625
-0.2240970703125,0.19001717529296874,1.0117877294921875
-0.14896541015625,0.23854506103515624,0.9621428759765625
-0.22823052734375,0.20790876953125,0.8761245654296875
-0.1326747265625,0.093206494140625,0.8948028271484375
-0.17862904296875,0.15031254150390624,0.97467697265625
-0.237226875,0.0917359521484375,0.961897109375
-0.24427806640625,0.11256863037109376,0.96484630859375
-0.1788721875,0.14492055419921876,0.9552614111328125
-0.29193439453125003,0.03536517578125,0.8717007666015625
-0.17303671874999998,0.02090484619140625,0.9120064892578125
-0.1997826171875,0.11379408203125,0.948625712890625
-0.33618669921875,0.0848734228515625,0.8498275390625
-0.15528716796875,0.14124419921875,0.89504859375
-0.14750654296875,0.1711452197265625,0.907336923828125
-0.25303126953125,0.16599832275390625,0.824759345703125
-0.13048642578125,0.13315621826171875,0.793301220703125
-0.1540714453125,0.167713955078125,0.781504423828125
-0.12343523437500001,0.11992134033203125,0.6755790185546875
-0.1842213671875,0.11501953369140624,0.7684787939453125
-0.11079171875,0.16624341308593749,0.9144641552734375
-0.20537494140625,0.2427115966796875,0.952557978515625
-0.27637314453125,0.304964541015625,1.1184504345703126
-0.2931501171875,0.25668174560546875,1.0373474560546876
-0.15771861328125,0.28021041748046877,0.959439443359375
-0.22482650390625,0.26746572021484377,0.9955671337890625
-0.22531279296875,0.23756469970703126,0.997779033203125
-0.1210037890625,0.28511222412109377,1.053813818359375
-0.09547361328125001,0.1829095556640625,1.01399962890625
-0.23309341796875,0.16060633544921876,1.0820769775390624
-0.2027003515625,0.20227169189453126,1.057746083984375
-0.096203046875,0.161831787109375,1.0029401318359374
-0.30846822265625,0.24320177734375,0.9874568359375
-0.13291787109375,0.12580350830078124,1.0314490576171875
-0.16695810546875,0.16648850341796875,0.97467697265625
-0.19905318359375002,0.16403760009765625,0.91077765625
-0.14069849609375001,0.11011772705078125,0.9449392138671875
-0.232363984375,0.18707609130859376,1.050864619140625
-0.2688356640625,0.19393862060546874,1.1132893359375
-0.16695810546875,0.13413657958984376,1.1120605029296875
-0.29193439453125003,0.20374223388671875,1.150154326171875
-0.1278118359375,0.2770242431640625,1.1449932275390624
-0.2474389453125,0.19197789794921874,1.0860092431640624
-0.21461443359375,0.230457080078125,1.1253318994140624
-0.11006228515625,0.23658433837890624,1.178663251953125
-0.226528515625,0.12555841796875,1.0968229736328126
-0.19029998046875,0.16452778076171876,1.02776255859375
-0.15334201171875,0.12531332763671876,0.9744312060546875
-0.2182616015625,0.08805959716796875,1.026287958984375
-0.26567478515625,0.11354899169921875,1.107882470703125
-0.24379177734375002,0.12972495361328126,1.1331964306640625
-0.2707808203125,0.1495772705078125,1.036118623046875
-0.2523018359375,0.04688442138671875,0.8616243359375
-0.1944334375,0.25521120361328126,0.895540126953125
-0.1103054296875,0.20129133056640625,0.8908705615234375
-0.20415921875,0.2172222021484375,0.924049052734375
-0.20440236328125,0.257907197265625,0.839505341796875
-0.12513724609375,0.201046240234375,0.8481071728515625
-0.10374052734375,0.2412410546875,0.8380307421875
-0.22385392578125,0.2172222021484375,0.9159387548828125
-0.1968648828125,0.18217428466796876,0.9756600390625
-0.159420625,0.19099753662109376,0.8778449316406249
-0.29971501953125,0.19148771728515626,0.827708544921875
-0.1268392578125,0.230457080078125,0.8643277685546875
-0.1647698046875,0.1897720849609375,0.862115869140625
-0.15164,0.1152646240234375,0.94715111328125
-0.257651015625,0.1436951025390625,0.9820499707031249
-0.19467658203125,0.08266760986328126,0.9414984814453125
-0.08744984375,0.148106728515625,1.019406494140625
-0.16914640625,0.069677822265625,0.8812856640625
-0.140941640625,0.14835181884765625,0.8697346337890625
-0.080641796875,0.11354899169921875,0.8456495068359375
-0.1550440234375,0.2260454541015625,0.810013349609375
-0.1686601171875,0.174576484375,0.7869112890625
-0.082586953125,0.14197947021484375,0.84294607421875
-0.16987583984375,0.24148614501953125,0.87243806640625
-0.117599765625,0.22040837646484374,0.990897568359375
-0.33642984375,0.17384121337890626,1.034152490234375
-0.20877896484375,0.18315464599609374,1.083305810546875
-0.27540056640625,0.31501324462890623,1.0604495166015624
-0.3339983984375,0.27187734619140624,1.029237158203125
-0.20683380859375,0.2652599072265625,0.951574912109375
-0.1210037890625,0.2182025634765625,0.7679872607421875
-0.08744984375,0.13732275390625,0.7837163232421875
-0.11079171875,0.10276501708984374,0.8004284521484375
-0.17182099609375,0.2505544873046875,0.9798380712890625
-0.2075632421875,0.18658591064453126,1.180629384765625
-0.1988100390625,0.173596123046875,1.2049602783203124
-0.25935302734375,0.3012881860351562,1.182103984375
-0.317950859375,0.2878082177734375,1.11230626953125
-0.3077387890625,0.230457080078125,1.019406494140625
-0.257651015625,0.27432824951171875,1.0378389892578126
-0.25108611328125,0.10766682373046875,0.969761640625
-0.2912049609375,0.1485969091796875,0.8436833740234375
-0.10374052734375,0.16624341308593749,0.7542243310546874
-0.1788721875,0.1471263671875,0.63453599609375
-0.14264365234375,0.101049384765625,0.614383134765625
-0.06921400390625,0.14394019287109375,0.7498005322265625
-0.2022140625,0.21109494384765626,0.8223016796875
-0.17279357421875,0.1172253466796875,0.80067421875
-0.224583359375,0.195164072265625,0.9228202197265625
-0.25303126953125,0.1789881103515625,0.9609140429687499
-0.2698082421875,0.11354899169921875,0.930930517578125
-0.06775513671875,0.2515348486328125,0.902421591796875
-0.18008791015625,0.07335417724609375,0.9397781152343749
-0.38627447265625,0.1887917236328125,1.1115689697265625
-0.05316646484375,0.2162418408203125,1.27746142578125
-0.2450075,0.27824969482421874,1.2570627978515625
-0.277102578125,0.35716878173828126,1.2442829345703126
-0.1307295703125,0.24687813232421876,1.2064348779296874
-0.34542619140624997,0.1554594384765625,1.150154326171875
-0.25084296875,0.31795432861328127,1.15162892578125
-0.18470765625,0.23560397705078126,0.9638632421875
-0.32451576171875,0.0995788427734375,0.8984893261718749
-0.19346085937500002,0.15692998046875,0.8402426416015625
-0.0918264453125,0.112813720703125,0.7139186083984375
0.0662175,0.16599832275390625,0.866048134765625
-0.2454937890625,0.2338883447265625,1.0633987158203124
-0.259596171875,0.13903838623046874,1.1801378515625
-0.12635296875,0.30324890869140625,1.4507268798828126
-0.3767918359375,0.27457333984375,1.4659644091796875
-0.32013916015625,0.21967310546875,1.1789090185546875
-0.232363984375,0.15668489013671874,0.875387265625
-0.07577890625,0.09688284912109375,0.7515208984375
-0.1793584765625,0.01257177490234375,0.6967149462890625
-0.10471310546875,0.04002189208984375,0.60701013671875
0.027557519531249998,0.128499501953125,0.7424275341796875
-0.03225603515625,0.1897720849609375,0.902913125
-0.2022140625,0.1691844970703125,1.024813359375
-0.14458880859375,0.2005560595703125,1.0678225146484375
-0.19467658203125,0.3316793872070313,1.2084010107421874
-0.19224513671875,0.3368262841796875,1.34824220703125
-0.28512634765625,0.2569268359375,1.2727918603515624
-0.31235853515625,0.27923005615234375,1.2162655419921875
-0.29387955078125,0.15570452880859376,0.9960586669921875
-0.17862904296875,0.25913264892578125,0.9498545458984375
-0.22531279296875,0.25030939697265625,0.843929140625
-0.27029453125,0.1642826904296875,0.8078014501953125
-0.0801555078125,0.17580193603515626,0.700892978515625
-0.0801555078125,0.14541073486328124,0.5662128808593749
0.007133378906249998,0.09198104248046875,0.554416083984375
0.0112668359375,0.14001874755859375,0.7846993896484376
-0.24379177734375002,0.12433296630859375,0.951574912109375
-0.17133470703125,0.19933060791015625,1.1408151953125
-0.22482650390625,0.26256391357421877,1.355615205078125
-0.37654869140625,0.334375380859375,1.343326875
-0.18057419921875,0.3581491430664063,1.226833505859375
-0.049762441406249996,0.234378525390625,1.1164843017578125
-0.10860341796875,0.1299700439453125,1.146222060546875
-0.31576255859375,-0.0038492773437499997,1.1194335009765626
-0.11443888671875,-0.09085634521484375,1.1091113037109375
-0.27151025390625,0.10129447509765625,1.203239912109375
-0.4040240234375,0.159871064453125,0.9709904736328125
-0.11784291015625001,0.15692998046875,0.8028861181640625
-0.22579908203125,0.1868310009765625,0.744147900390625
-0.11881548828124999,0.2020266015625,0.65223119140625
-0.038091503906250004,0.19491898193359375,0.6672229541015625
-0.0723748828125,0.22187891845703125,0.813945615234375
-0.21972046875,0.25374066162109377,0.8943112939453125
-0.2834243359375,0.30079800537109375,1.075441279296875
-0.39065107421875,0.253005390625,1.1427813281249999
-0.259596171875,0.16354741943359374,1.0294829248046875
-0.02885201171875,0.16452778076171876,0.9213456201171875
-0.090367578125,0.04100225341796875,0.951574912109375
-0.34834392578125,0.0897752294921875,0.9754142724609375
-0.20342978515625,0.13413657958984376,0.984999169921875
-0.33472783203125,0.0564429443359375,0.858183603515625
-0.1064151171875,0.13658748291015624,0.6972064794921875
0.01005111328125,0.13854820556640626,0.65911265625
-0.006482714843750001,0.17040994873046875,0.72202890625
-0.14580453125,0.22972180908203124,0.8805483642578125
-0.16136578125,0.2711420751953125,1.0978060400390626
-0.2678630859375,0.1721255810546875,1.2246216064453126
-0.271267109375,0.24932903564453124,1.25780009765625
-0.2571647265625,0.26746572021484377,1.0491442529296875
-0.19710802734375,0.2412410546875,0.9183964208984375
-0.27977716796875,0.240260693359375,0.867031201171875
-0.14945169921875,0.25276030029296875,0.977134638671875
-0.191515703125,0.14982236083984374,0.994829833984375
-0.189570546875,0.18560554931640624,1.0383305224609374
-0.1881116796875,0.20325205322265624,1.0019570654296874
-0.31138595703125,0.16011615478515626,0.9031588916015625
-0.22142248046875002,0.199085517578125,0.8726838330078125
-0.338375,0.09688284912109375,0.735300302734375
-0.13778076171875,0.1593808837890625,0.64829892578125
-0.1375376171875,0.10570610107421875,0.50182203125
0.01005111328125,0.0838930615234375,0.4681520068359375
-0.10301109375,0.1280093212890625,0.738249501953125
-0.29193439453125003,0.2064382275390625,0.8930824609375
-0.3233000390625,0.169674677734375,1.0796193115234376
-0.4477900390625,0.13560712158203125,1.23617263671875
-0.24476435546875,0.28217114013671873,1.2423168017578126
-0.21850474609375,0.19442880126953124,1.0781447119140626
-0.310170234375,0.222614189453125,0.8697346337890625
-0.1978374609375,0.24785849365234375,0.8068183837890625
-0.19710802734375,0.2329079833984375,0.7869112890625
-0.29290697265625,0.26280900390625,0.9080742236328125
-0.28853037109375,0.2917296630859375,1.0088385302734375
-0.27102396484375,0.28070059814453124,1.1722733203125
-0.30020130859375,0.19393862060546874,1.2010280126953126
-0.29679728515625,0.20864404052734375,1.1427813281249999
-0.2843969140625,0.2260454541015625,1.0486527197265625
-0.37581925781250003,0.26795590087890625,1.105916337890625
-0.4332013671875,0.20374223388671875,1.1474508935546874
-0.4448723046875,0.2005560595703125,1.14376439453125
-0.36366203125,0.16942958740234376,1.00220283203125
-0.2425760546875,0.19222298828125,0.789368955078125
-0.14604767578125,0.1574201611328125,0.7434106005859376
-0.13632189453125,0.1446754638671875,0.7640549951171876
-0.16160892578125,0.15570452880859376,0.93732044921875
-0.23795630859375,0.08315779052734375,1.003677431640625
-0.28318119140625,0.11305881103515625,0.9582106103515625
-0.20245720703125,0.19295825927734375,1.0584833837890626
-0.21996361328125,0.06281529296875,1.0621698828125
-0.3077387890625,0.1074217333984375,1.1051790380859374
-0.13097271484375,0.1485969091796875,1.1145181689453125
-0.25449013671875,0.0436982470703125,1.060695283203125
-0.32548833984375003,0.03953171142578125,1.06118681640625
-0.19370400390625,0.04737460205078125,1.00810123046875
-0.39210994140625,0.07261890625,0.9203625537109374
-0.24087404296875,0.07482471923828125,0.901438525390625
-0.1229489453125,0.1044806494140625,0.905370791015625
-0.224583359375,0.23462361572265625,0.94125271484375
-0.1788721875,0.26795590087890625,1.0368559228515626
-0.07869664062500001,0.2632991845703125,1.0766701123046876
-0.10495625,0.30471945068359374,1.189968515625
-0.296554140625,0.3593745947265625,1.315801015625
-0.36779548828124997,0.3476102587890625,1.403785458984375
-0.191515703125,0.27089698486328123,1.3366911767578125
-0.3184371484375,0.316728876953125,1.3696239013671876
-0.42080099609375,0.20864404052734375,1.366428935546875
-0.36536404296875,0.09835339111328124,1.26173236328125
-0.27199654296875,0.21011458251953125,1.109848603515625
-0.358799140625,0.06404074462890624,0.9316678173828125
-0.160393203125,-0.0043394580078125,0.8854636962890625
-0.121490078125,0.11747043701171875,1.024813359375
-0.1910294140625,0.00472888427734375,0.9754142724609375
-0.15917748046875,0.055462583007812497,1.04152548828125
-0.13534931640625,-0.044534272460937496,0.9881941357421875
-0.26178447265625,-0.03742665283203125,0.996795966796875
-0.24719580078125,0.0387964404296875,0.9714820068359376
-0.273212265625,-0.0411030078125,0.9444476806640625
-0.34056330078125,0.01183650390625,0.9874568359375
-0.33764556640625,-0.0254172265625,0.9164302880859375
-0.30457791015625,-0.0435539111328125,0.8844806298828125
-0.430769921875,0.081442158203125,0.8338527099609375
-0.30360533203125,0.03928662109375,0.8520394384765625
-0.23017568359375,-0.00777072265625,0.9449392138671875
-0.2396583203125,0.09418685546875,0.9277355517578125
-0.0752926171875,0.03757098876953125,0.91569298828125
-0.121490078125,0.024581201171875,0.9031588916015625
-0.24816837890625,0.14737145751953126,0.9926179345703126
-0.20099833984375,0.12678386962890625,0.9252778857421875
-0.22628537109375,0.17090012939453125,0.984016103515625
-0.29290697265625,0.26084828125,1.07691587890625
-0.27394169921875,0.26256391357421877,1.099034873046875
-0.35758341796875,0.23658433837890624,1.0953483740234375
-0.28464005859375,0.24687813232421876,1.1666206884765624
-0.282938046875,0.19001717529296874,1.0707717138671875
-0.34348103515625,0.15962597412109375,0.992863701171875
-0.26616107421875,0.2946707470703125,1.025304892578125
-0.23649744140625,0.16452778076171876,0.9115149560546875
-0.247925234375,0.17580193603515626,0.88226873046875
-0.22774423828125,0.11599989501953126,0.9238032861328125
-0.21583015625000002,0.080461796875,0.8997181591796874
-0.3164919921875,-0.06659240234375,1.0516019189453125
-0.24379177734375002,0.030708459472656248,1.1086197705078125
-0.3301080859375,-0.006790361328125,0.9206083203125
-0.30311904296875003,0.01551285888671875,0.773148359375
-0.27151025390625,0.009140510253906251,0.684180849609375
-0.2644590625,0.02090484619140625,0.5902980078125
-0.26275705078125,0.03119864013671875,0.5792385107421875
-0.25983931640625,0.019679394531249998,0.5895607080078125
-0.27296912109375,0.07384435791015626,0.61979
-0.3223274609375,0.1025199267578125,0.6293748974609374
-0.26251390625,0.10521592041015625,0.7065456103515625
-0.29047552734375,0.10595119140625,0.8225474462890625
-0.28585578125,0.1863408203125,1.0063808642578125
-0.24719580078125,0.15913579345703124,1.0560257177734376
-0.22920310546875,0.13511694091796875,1.13786599609375
-0.26324333984375,0.13266603759765624,1.2231470068359376
-0.2581373046875,0.13266603759765624,1.2182316748046875
-0.30141703125,0.12531332763671876,1.1803836181640626
-0.24768208984375,0.07531489990234375,1.133442197265625
-0.29922873046875,0.03855135009765625,1.035135556640625
-0.26324333984375,0.030708459472656248,0.9120064892578125
-0.20804953125,0.026296833496093748,0.7719195263671875
-0.1385101953125,-0.0219859619140625,0.623230732421875
-0.0957167578125,-0.0700236669921875,0.5988998388671875
-0.19613544921875,-0.10409122314453124,0.72694423828125
-0.294608984375,-0.010711806640625,0.9528037451171875
-0.25084296875,-0.0033590966796874996,1.182103984375
-0.37119951171875,0.104970830078125,1.2826225244140625
-0.29728357421875,0.1682041357421875,1.1880023828125
-0.19808060546875,0.1025199267578125,1.072000546875
-0.3320532421875,0.12923477294921876,1.1194335009765626
-0.35369310546875,0.089285048828125,1.14966279296875
-0.3077387890625,0.1427147412109375,1.1449932275390624
-0.33642984375,0.10668646240234375,1.0130165625
-0.27491427734375,-0.0023787353515625003,0.920116787109375
-0.1890842578125,0.03536517578125,0.8023945849609375
-0.28707150390625,0.0701680029296875,0.749063232421875
-0.22579908203125,0.01845394287109375,0.7689703271484375
-0.2260422265625,0.0427178857421875,0.8795652978515625
-0.32986494140625,0.04492369873046875,1.0407881884765624
-0.279047734375,0.0015427099609375003,1.0597122167968749
-0.24914095703125,0.08903995849609375,1.0697886474609375
-0.34493990234375,0.104970830078125,1.0948568408203125
-0.27929087890625,0.06109966064453125,1.1703071875
-0.28512634765625,0.07580508056640625,1.295648154296875
-0.35272052734375,0.103010107421875,1.2624696630859376
-0.2260422265625,0.05423713134765625,1.0860092431640624
-0.26251390625,0.04933532470703125,0.9301932177734376
-0.2396583203125,0.02090484619140625,0.8289373779296875
-0.2566784375,0.036345537109375,0.75643623046875
-0.2882872265625,0.0530116796875,0.7114609423828124
-0.27734572265625,-0.0006631030273437505,0.71907970703125
-0.2659179296875,-0.0001729223632812504,0.7881401220703125
-0.19710802734375,0.10717664306640624,0.855234404296875
-0.23309341796875,0.101049384765625,0.9183964208984375
-0.33618669921875,0.085363603515625,1.0348897900390626
-0.32159802734375,0.104970830078125,1.1833328173828126
-0.35174794921875,0.097127939453125,1.159001923828125
-0.35563826171875,-0.018554697265625,0.970253173828125
-0.2600824609375,0.09026541015625,0.9677955078125
-0.2873146484375,0.0829127001953125,0.983033037109375
-0.3009307421875,0.059874208984374996,1.0503730859375
-0.24087404296875,0.11550971435546875,1.054796884765625
-0.3223274609375,0.1544790771484375,1.084288876953125
-0.31138595703125,0.1584005224609375,1.0700344140625
-0.20975154296875,0.11698025634765626,1.0267794921875
-0.30360533203125,0.101049384765625,1.0058893310546875
-0.3135742578125,-0.0004180126953125,0.945676513671875
-0.2133987109375,0.024091020507812498,0.9695158740234375
-0.28512634765625,0.024581201171875,1.075441279296875
-0.3694975,0.01183650390625,1.2634527294921876
-0.32864921874999997,-0.0038492773437499997,1.293682021484375
-0.37581925781250003,-0.00850599365234375,1.0747039794921875
-0.3145468359375,0.00227798095703125,0.8353273095703125
-0.27272597656249997,-0.03938737548828125,0.7556989306640625
-0.2561921484375,-0.081297822265625,0.6986810791015625
-0.218747890625,-0.0641414990234375,0.7212916064453125
-0.22701480468750002,-0.0837487255859375,0.7593854296875
-0.1696326953125,-0.0268877685546875,0.7507835986328125
-0.22823052734375,-0.08791526123046875,0.7679872607421875
-0.23406599609375,0.04835496337890625,0.985490703125
-0.22434021484375,0.08634396484375,1.1376202294921876
-0.25351755859375,0.1000690234375,1.27352916015625
-0.33108066406250003,0.10864718505859375,1.4315570849609376
-0.3904079296875,0.08119706787109375,1.4632609765625
-0.36050115234375,0.0976181201171875,1.367412001953125
-0.4030514453125,0.08903995849609375,1.2924531884765624
-0.35588140625,0.0299731884765625,1.2088925439453124
-0.29144810546875,-0.018554697265625,0.9768888720703125
-0.20732009765625,0.021640117187500002,0.782487490234375
-0.16258150390625,-0.03938737548828125,0.7104778759765625
-0.17376615234375,-0.05997496337890625,0.7409529345703125
-0.17473873046875,-0.02125069091796875,0.771673759765625
-0.21315556640625,-0.022476142578125,0.7797840576171875
-0.257651015625,-0.063651318359375,0.854251337890625
-0.30627992187499997,-0.01879978759765625,0.967303974609375
-0.27613,0.0133070458984375,1.077407412109375
-0.358799140625,0.07433453857421875,1.1592476904296876
-0.2172890234375,0.0623251123046875,1.18701931640625
-0.23309341796875,-0.0011532836914062497,1.105916337890625
-0.27613,0.036345537109375,1.0747039794921875
-0.2722396875,0.0280124658203125,1.0014655322265624
-0.28804408203125,-0.02909358154296875,0.9601767431640625
-0.19953947265625,0.0123266845703125,0.994829833984375
-0.25449013671875,-0.015368522949218751,0.9223286865234375
-0.19613544921875,-0.0719843896484375,0.9238032861328125
-0.2099946875,-0.09624833251953124,0.9815584374999999
-0.32743349609375,-0.02149578125,1.072000546875
-0.29096181640625,-0.036201201171875,1.0987891064453126
-0.271267109375,-0.0055649096679687505,1.05332228515625
-0.2182616015625,0.03757098876953125,1.08478041015625
-0.33472783203125,-0.0567887890625,1.0933822412109375
-0.29363640625,-0.0906112548828125,1.068559814453125
-0.2960678515625,-0.1102184814453125,1.024321826171875
-0.25546271484375,-0.11830646240234374,0.9183964208984375
-0.2065906640625,-0.11634573974609375,0.8033776513671875
-0.22871681640625,-0.05605351806640625,0.8520394384765625
-0.19175884765625,-0.0494360791015625,0.9031588916015625
-0.25303126953125,-0.0097314453125,0.9557529443359375
-0.2377131640625,0.0456589697265625,1.1076367041015625
-0.2255559375,0.01992448486328125,1.087729609375
-0.27053767578125,0.09492212646484376,0.94715111328125
-0.31235853515625,0.04247279541015625,0.878827998046875
-0.2800203125,-0.00703545166015625,0.8112421826171875
-0.24136033203125,0.033404453125,0.8304119775390625
-0.28974609375,-0.0200252392578125,0.86850580078125
-0.2095083984375,-0.00997653564453125,0.852285205078125
-0.23552486328125,-0.0161037939453125,0.8682600341796876
-0.27394169921875,0.040266982421875,0.9179048876953125
-0.18884111328125,0.05227640869140625,0.9756600390625
-0.23212083984375,0.01159141357421875,1.1204165673828126
-0.23892888671875,0.08364797119140625,1.2713172607421874
-0.3690112109375,0.0476196923828125,1.2236385400390626
-0.370470078125,0.08315779052734375,1.1115689697265625
-0.299471875,0.064776015625,0.8913620947265625
-0.30166017578125,0.01698340087890625,0.748080166015625
-0.18738224609375,0.02090484619140625,0.79182662109375
-0.16258150390625,0.00227798095703125,0.907336923828125
-0.28318119140625,-0.048945898437499996,0.9537868115234375
-0.3057936328125,-0.03693647216796875,1.0108046630859375
-0.24525064453125,-0.04526954345703125,0.917167587890625
-0.2454937890625,-0.02321141357421875,0.8377849755859375
-0.16355408203125,0.02090484619140625,0.830657744140625
-0.197351171875,-0.00507472900390625,0.8933282275390625
-0.32694720703125,0.00325834228515625,1.0412797216796874
-0.387976484375,-0.04968116943359375,1.0402966552734374
-0.24184662109375,-0.0533575244140625,0.9193794873046874
-0.23114826171875,-0.0219859619140625,0.8544971044921875
-0.2878009375,-0.01953505859375,0.7901062548828125
-0.16841697265625,-0.035711020507812496,0.6952403466796875
-0.1900568359375,0.0137972265625,0.7488174658203125
-0.2133987109375,0.08070688720703124,0.9159387548828125
-0.1735230078125,0.00717978759765625,1.00220283203125
-0.18981369140625,0.09247122314453125,1.137374462890625
-0.12829812499999999,0.05889384765625,1.136391396484375
-0.16185207031249998,0.06649164794921875,1.0978060400390626
-0.15723232421875,0.0838930615234375,1.0975602734375
-0.26154132812499997,0.04149243408203125,1.189968515625
-0.30457791015625,0.00987578125,1.244528701171875
-0.20002576171875,0.0020328906249999995,1.159984990234375
-0.27418484375,-0.02615249755859375,1.12803533203125
-0.24427806640625,-0.024436865234375,1.0319405908203125
-0.26032560546875,-0.03742665283203125,0.868014267578125
-0.1832487890625,-0.05801424072265625,0.78789435546875
-0.22093619140625,-0.048455717773437504,0.7512751318359375
-0.12562353515625,0.00570924560546875,0.7517666650390625
-0.13486302734375,-0.037916833496093746,0.706791376953125
-0.1346198828125,-0.09673851318359375,0.7738856591796874
-0.18884111328125,-0.08619962890625,0.8869382958984375
-0.28755779296875,-0.042328459472656246,1.03661015625
-0.234309140625,-0.02223105224609375,1.1422897949218749
-0.3242726171875,-0.03129939453125,1.1066536376953124
-0.28561263671875,0.071638544921875,1.038084755859375
-0.21266927734375,0.06649164794921875,0.9567360107421875
-0.27272597656249997,0.008895419921875,0.9356000830078125
-0.2260422265625,-0.06634731201171876,0.9134810888671875
-0.1190586328125,0.00570924560546875,0.9985163330078125
-0.30457791015625,-0.023456503906250002,1.0174403613281249
-0.2450075,-0.03203466552734375,0.9599309765625
-0.175954453125,-0.05164189208984375,0.8697346337890625
-0.317950859375,0.0231106591796875,0.82328474609375
-0.183735078125,0.055462583007812497,0.8677685009765626
-0.1929745703125,0.0456589697265625,0.9931094677734374
-0.14410251953125,0.04712951171875,1.156052724609375
-0.21193984375,0.01404231689453125,1.24108796875
-0.25011353515625,-0.01585870361328125,1.2462490673828124
-0.29874244140625,0.04345315673828125,1.20864677734375
-0.26251390625,0.07286399658203124,1.091661875
-0.3320532421875,0.06453092529296875,0.9695158740234375
-0.25497642578125,0.00276816162109375,0.905370791015625
-0.14702025390625,-0.0210056005859375,0.8387680419921875
-0.08720669921875,-0.15114856689453124,0.8048522509765625
-0.12440781249999999,-0.1210024560546875,0.762826162109375
-0.1579617578125,-0.1660990771484375,0.7596311962890625
-0.22093619140625,-0.14183513427734376,0.804114951171875
-0.2454937890625,-0.04575972412109375,0.7950215869140624
-0.1832487890625,-0.0749254736328125,0.8299204443359375
-0.16549923828125,0.0427178857421875,0.9090572900390625
-0.22288134765625,0.04149243408203125,0.810996416015625
-0.2406308984375,-0.07811164794921875,0.8972604931640625
-0.3252451953125,-0.008996174316406251,0.9749227392578125
-0.3281629296875,-0.013407800292968751,0.866048134765625
-0.1219763671875,-0.047965537109375,0.6981895458984375
-0.1482359765625,-0.08154291259765625,0.6500192919921874
-0.13097271484375,-0.09183670654296874,0.740215634765625
-0.22920310546875,0.024581201171875,0.914218388671875
-0.3456693359375,-0.0817880029296875,0.9604225097656249
-0.2931501171875,0.0329142724609375,0.9690243408203125
-0.19029998046875,0.07041309326171875,0.873912666015625
-0.1754681640625,0.1103628173828125,0.78986048828125
-0.11346630859375,0.050070595703125,0.6662398876953125
-0.049762441406249996,0.0407571630859375,0.78396208984375
-0.242089765625,0.14884199951171875,1.0958399072265625
-0.288773515625,0.1270289599609375,1.3531575390625
-0.27880458984375,0.08854977783203125,1.4064888916015625
-0.31770771484375,0.150067451171875,1.323665546875
-0.23066197265625,0.0976181201171875,1.0830600439453124
-0.23455228515625,0.0956573974609375,0.9700074072265625
-0.187625390625,0.10668646240234375,0.9031588916015625
-0.159420625,-0.00213364501953125,0.929947451171875
-0.17814275390625,-0.059484782714843754,0.9638632421875
-0.1530988671875,-0.0886505322265625,0.979100771484375
-0.2338228515625,-0.087179990234375,0.9714820068359376
-0.1803310546875,-0.0347306591796875,0.9577190771484375
-0.09304216796875,-0.1111988427734375,0.9532952783203125
-0.22628537109375,-0.02076051025390625,1.04349162109375
-0.255705859375,0.0299731884765625,1.141306728515625
-0.3709563671875,-0.004829638671875,1.1680952880859374
-0.3738741015625,-0.00507472900390625,1.2192147412109375
-0.39989056640625,-0.03742665283203125,1.1184504345703126
-0.221665625,-0.159726728515625,0.9459222802734375
-0.19564916015625,-0.096983603515625,0.7424275341796875
-0.047574140625,-0.00605509033203125,0.6844266162109375
-0.0295814453125,-0.08056255126953125,0.7448852001953125
-0.1346198828125,0.0329142724609375,0.98450763671875
-0.3408064453125,0.04590406005859375,1.24010490234375
-0.393811953125,-0.075415654296875,1.3964124609375
-0.33813185546875,0.03168882080078125,1.368395068359375
-0.3738741015625,0.14099910888671874,1.0019570654296874
-0.30749564453125,-0.018554697265625,0.764792294921875
-0.27442798828125,0.05815857666015625,0.8078014501953125
-0.31697828125,0.038306259765625,0.88620099609375
-0.2255559375,-0.1111988427734375,0.9356000830078125
-0.19273142578125,-0.01144707763671875,0.7851909228515626
-0.13097271484375,0.01698340087890625,0.6780366845703125
-0.1268392578125,-0.03301502685546875,0.6807401171875
-0.1637972265625,0.07041309326171875,0.891607861328125
-0.2377131640625,0.03659062744140625,1.0299744580078125
-0.2435486328125,0.12874459228515625,1.247477900390625
-0.28464005859375,0.20129133056640625,1.302529619140625
-0.2746711328125,0.09786321044921875,1.28925822265625
-0.28512634765625,0.0054641552734375,1.304495751953125
-0.269321953125,-0.00997653564453125,1.2152824755859375
-0.27491427734375,-0.06438658935546875,1.035135556640625
-0.1657423828125,-0.1121792041015625,0.9601767431640625
-0.24087404296875,-0.10850284912109374,0.9972875
-0.1871391015625,-0.12124754638671875,1.0176861279296876
-0.162338359375,-0.0190448779296875,1.0638902490234374
-0.41447923828125,-0.04723026611328125,1.0747039794921875
-0.1569891796875,-0.14330567626953125,0.97664310546875
-0.015479062500000002,-0.01046671630859375,1.0697886474609375
-0.12027435546875,-0.0001729223632812504,1.2369099365234375
-0.2785614453125,-0.01561361328125,1.3401319091796875
-0.310170234375,-0.11144393310546875,1.228799638671875
-0.432715078125,-0.067572763671875,1.1037044384765624
-0.35028908203125,-0.0906112548828125,0.9582106103515625
-0.26470220703125,-0.06683749267578125,0.7591396630859375
-0.2386857421875,-0.0455146337890625,0.6726298193359375
-0.1637972265625,-0.061690595703125004,0.65419732421875
-0.09255587890625,-0.05850442138671875,0.7094948095703125
-0.11784291015625001,-0.0001729223632812504,0.78199595703125
-0.15625974609374998,-0.018554697265625,0.7817501904296875
-0.045628984375,-0.00458454833984375,1.030220224609375
-0.2581373046875,0.07335417724609375,1.369378134765625
-0.331566953125,0.14124419921875,1.499142900390625
-0.310170234375,0.04051207275390625,1.3295639453125
-0.25400384765625,0.06600146728515625,1.02088109375
-0.1453182421875,0.009140510253906251,0.851302138671875
-0.23139140625,-0.03448556884765625,0.8481071728515625
-0.24573693359375,-0.0175743359375,0.88620099609375
-0.1555303125,-0.0327699365234375,0.9835245703125
-0.11395259765625,0.0010525292968750002,1.05233921875
-0.0855046875,-0.08595453857421875,1.127543798828125
-0.168173828125,-0.020515419921875,1.15162892578125
-0.10860341796875,0.0037485229492187503,1.0029401318359374
-0.206104375,0.055462583007812497,0.86359046875
-0.1696326953125,0.12629368896484375,0.8800568310546875
-0.17182099609375,-0.0567887890625,1.0058893310546875
-0.31041337890625,0.04590406005859375,1.1440101611328124
-0.32354318359375,-0.0724745703125,1.0230929931640624
