ax,ay,az
-0.436605390625,0.02776737548828125,0.9493630126953125
-0.428824765625,0.02752228515625,0.9572275439453125
-0.423961875,-0.004829638671875,0.926998251953125
-0.4127772265625,0.0201695751953125,0.909303056640625
-0.39162365234375,-0.0175743359375,0.91569298828125
-0.39989056640625,-0.03056412353515625,0.92355751953125
-0.3767918359375,0.00865032958984375,0.9365831494140625
-0.39089421875,-0.04379900146484375,0.9488714794921875
-0.39600025390625,0.014777587890624999,0.937811982421875
-0.35563826171875,0.01012087158203125,0.9272440185546875
-0.38578818359375,0.0015427099609375003,0.9419900146484375
-0.361716875,0.026051743164062502,0.9528037451171875
-0.361716875,-0.024436865234375,0.943710380859375
-0.34493990234375,-0.02958376220703125,0.9798380712890625
-0.32208431640625,-0.00752563232421875,0.96681244140625
-0.3378887109375,-0.022476142578125,0.986965302734375
-0.33570041015625,-0.02958376220703125,1.009084296875
-0.378250703125,-0.0602200537109375,1.000728232421875
-0.28196546875,-0.04183827880859375,0.9562444775390625
-0.3096839453125,-0.049926259765625,0.9808211376953125
-0.3369161328125,-0.0435539111328125,0.9685328076171875
-0.32281375,-0.03154448486328125,0.9532952783203125
-0.3116291015625,-0.02713285888671875,0.9395323486328125
-0.302389609375,-0.03154448486328125,0.92945591796875
-0.28974609375,0.00227798095703125,0.910286123046875
-0.2834243359375,0.05178622802734375,0.9700074072265625
-0.3033621875,0.0446786083984375,1.0309575244140625
-0.2843969140625,0.028257556152343752,1.0963314404296876
-0.2824517578125,0.06894255126953125,1.098051806640625
-0.29169125,0.116735166015625,1.0702801806640625
-0.333512109375,0.12163697265625,1.0683140478515625
-0.3320532421875,0.14492055419921876,1.0810939111328124
-0.32086859375,0.15521434814453125,1.0948568408203125
-0.32743349609375,0.1628121484375,1.1405694287109376
-0.30360533203125,0.1515379931640625,1.1459762939453124
-0.2800203125,0.16942958740234376,1.111323203125
-0.24670951171875,0.16599832275390625,1.1007552392578126
-0.25497642578125,0.1485969091796875,1.1194335009765626
-0.2668905078125,0.0883046875,1.14179826171875
-0.27272597656249997,0.079481435546875,1.136391396484375
-0.23528171875,0.0682072802734375,1.0992806396484376
-0.23941517578125,0.0446786083984375,1.056271484375
-0.18592337890625,0.0152677685546875,1.0653648486328124
-0.21023783203125002,0.01404231689453125,1.0761785791015626
-0.2133987109375,-0.02027032958984375,1.0732293798828125
-0.19248828125,-0.02419177490234375,1.02383029296875
-0.20634751953125,-0.0543378857421875,1.022355693359375
-0.19832375,-0.063651318359375,1.0638902490234374
-0.172064140625,-0.05311243408203125,1.116730068359375
-0.17327986328125,-0.09575815185546875,1.0933822412109375
-0.15358515625,-0.10507158447265624,1.0732293798828125
-0.16404037109375,-0.112669384765625,1.031203291015625
-0.1608794921875,-0.1229631787109375,0.9837703369140625
-0.15285572265625,-0.09379742919921875,0.948625712890625
-0.1453182421875,-0.08987598388671875,0.9287186181640625
-0.16404037109375,-0.07860182861328124,0.9301932177734376
-0.14799283203125,-0.08423890625,0.9454307470703125
-0.15917748046875,-0.0759058349609375,0.9513291455078126
-0.1637972265625,-0.08399381591796876,0.9444476806640625
-0.1657423828125,-0.05213207275390625,0.914218388671875
-0.15747546875,-0.0332601171875,0.899472392578125
-0.179844765625,-0.0063001806640625,0.8923451611328125
-0.2022140625,-0.00360418701171875,0.9075826904296875
-0.20026890625,-0.01193725830078125,0.9316678173828125
-0.18397822265625,0.00399361328125,0.9498545458984375
-0.183735078125,0.026051743164062502,0.9282270849609375
-0.17084841796875,0.04100225341796875,0.9336339501953125
-0.2065906640625,0.04737460205078125,0.927981318359375
-0.199296328125,0.0505607763671875,0.9124980224609375
-0.21583015625000002,0.05521749267578125,0.906353857421875
-0.1871391015625,0.04002189208984375,0.892590927734375
-0.17619759765625,0.0427178857421875,0.9183964208984375
-0.195406015625,0.02752228515625,0.9483799462890625
-0.16841697265625,0.04835496337890625,0.962388642578125
-0.1861665234375,0.03806116943359375,0.9395323486328125
-0.20464550781250002,-0.00581,0.922082919921875
-0.21461443359375,-0.01193725830078125,0.9139726220703125
-0.203186640625,-0.032279755859375,0.9105318896484375
-0.18081734375,-0.0268877685546875,0.935845849609375
-0.18397822265625,-0.0249270458984375,0.9365831494140625
-0.20780638671875,-0.0254172265625,0.9139726220703125
-0.23406599609375,-0.01732924560546875,0.864082001953125
-0.23066197265625,-0.01634888427734375,0.8485987060546875
-0.23260712890625002,-0.018554697265625,0.8466325732421875
-0.22361078125,-0.02713285888671875,0.8648193017578125
-0.26275705078125,-0.01683906494140625,0.909303056640625
-0.2600824609375,-0.03938737548828125,0.91569298828125
-0.27248283203125,-0.0190448779296875,0.8943112939453125
-0.26421591796875,-0.0523771630859375,0.828200078125
-0.2892598046875,-0.05458297607421875,0.7928096875
-0.31333111328125,-0.0562986083984375,0.80067421875
-0.3135742578125,-0.05017135009765625,0.7969877197265625
-0.2795340234375,-0.04477936279296875,0.787402822265625
-0.2912049609375,-0.05017135009765625,0.7994453857421875
-0.2853694921875,-0.029338671875,0.7925639208984375
-0.31697828125,-0.0298288525390625,0.8092760498046875
-0.3505322265625,0.0015427099609375003,0.812471015625
-0.36730919921875,0.018699033203125,0.7827332568359375
-0.3748466796875,0.0427178857421875,0.7910893212890625
-0.37168580078125,0.0451687890625,0.7778179248046875
-0.35952857421875,0.04786478271484375,0.796250419921875
-0.360744296875,0.01600303955078125,0.8141913818359375
-0.38481560546875,0.00276816162109375,0.848352939453125
-0.37119951171875,-0.01634888427734375,0.832623876953125
-0.345183046875,-0.010711806640625,0.8161575146484374
-0.33472783203125,-0.022476142578125,0.8299204443359375
-0.28026345703125,-0.042083369140625,0.8820229638671875
-0.32208431640625,-0.08301345458984374,0.8997181591796874
-0.30530734375,-0.091101435546875,0.8778449316406249
-0.26616107421875,-0.10115013916015625,0.8343442431640625
-0.30627992187499997,-0.11095375244140625,0.810013349609375
-0.32257060546875,-0.0955130615234375,0.7928096875
-0.29728357421875,-0.07419020263671874,0.7896147216796875
-0.2989855859375,-0.05899460205078125,0.8240220458984375
-0.28318119140625,-0.03105430419921875,0.871455
-0.277102578125,0.00766996826171875,0.924049052734375
-0.2843969140625,0.00717978759765625,0.9356000830078125
-0.27613,0.02090484619140625,1.003677431640625
-0.2610550390625,0.046149150390625,0.9940925341796875
-0.24622322265625,0.030463369140625002,1.024813359375
-0.27588685546875,0.0535018603515625,1.0304659912109375
-0.2941226953125,0.052031318359375,1.013508095703125
-0.2941226953125,0.0505607763671875,0.98057537109375
-0.3135742578125,0.04296297607421875,0.9591936767578125
-0.29728357421875,0.03413972412109375,0.953541044921875
-0.30944080078125,0.06306038330078124,0.985490703125
-0.31308796875,0.079481435546875,0.9945840673828125
-0.280992890625,0.11379408203125,1.0176861279296876
-0.26421591796875,0.09639266845703125,1.054796884765625
-0.321841171875,0.1133039013671875,1.102967138671875
-0.32694720703125,0.130460224609375,1.091661875
-0.35952857421875,0.14443037353515625,1.124594599609375
-0.33326896484375,0.17384121337890626,1.1388490625
-0.35077537109375,0.167713955078125,1.17718865234375
-0.38311359375,0.1510478125,1.17817171875
-0.3291355078125,0.11992134033203125,1.1105859033203125
-0.32937865234375,0.10276501708984374,1.0896957421875
-0.34421046875,0.06698182861328125,1.028254091796875
-0.346155625,0.055462583007812497,0.9936010009765625
-0.35466568359375,0.05129604736328125,0.9670582080078125
-0.338375,0.057913486328125,1.0147369287109376
-0.29728357421875,0.0456589697265625,1.090187275390625
-0.299471875,0.02874773681640625,1.1263149658203124
-0.2566784375,0.0564429443359375,1.1172216015625
-0.27831830078124997,0.03217900146484375,1.1199250341796876
-0.330594375,-0.03497574951171875,1.1164843017578125
-0.327676640625,-0.0009081933593750001,1.149171259765625
-0.346155625,-0.02958376220703125,1.1523662255859375
-0.3505322265625,-0.0249270458984375,1.125577666015625
-0.347128203125,-0.1082577587890625,1.0766701123046876
-0.31576255859375,-0.12418863037109375,1.0707717138671875
-0.31430369140625003,-0.1161006494140625,1.054796884765625
-0.29874244140625,-0.1352176953125,1.03661015625
-0.2989855859375,-0.15703073486328126,1.04939001953125
-0.3135742578125,-0.12909043701171874,1.029237158203125
-0.26567478515625,-0.13325697265625,1.0619241162109374
-0.252788125,-0.13497260498046876,1.1322133642578125
-0.29509527343749997,-0.10556176513671875,1.1801378515625
-0.3048210546875,-0.08203309326171875,1.2017653125
-0.3408064453125,-0.08546435791015625,1.1661291552734374
-0.3096839453125,-0.06585713134765625,1.1017383056640626
-0.32086859375,-0.05556333740234375,1.0582376171875
-0.33035123046875,-0.02860340087890625,1.0584833837890626
-0.346155625,-0.0092412646484375,1.0486527197265625
-0.339347578125,-0.013652890625,1.0299744580078125
-0.34834392578125,0.00865032958984375,0.9842618701171875
-0.3466419140625,0.00276816162109375,0.951574912109375
-0.3573402734375,0.0250713818359375,0.90586232421875
-0.4045103125,0.03168882080078125,0.8825144970703125
-0.42177357421875,0.05276658935546875,0.8603955029296875
-0.43101306640625,0.063795654296875,0.845403740234375
-0.42663646484375,0.08903995849609375,0.8340984765625
-0.422989296875,0.07261890625,0.8510563720703125
-0.42979734375,0.0711483642578125,0.8191067138671875
-0.43295822265625,0.091245771484375,0.8154202148437499
-0.4584883984375,0.0770305322265625,0.8004284521484375
-0.4614061328125,0.06649164794921875,0.7987080859375
-0.4575158203125,0.038306259765625,0.760860029296875
-0.4536255078125,0.0338946337890625,0.731368037109375
-0.44073884765625,0.0211499365234375,0.7360376025390625
-0.42979734375,-0.013407800292968751,0.7271900048828125
-0.44025255859375,-0.01438816162109375,0.7075286767578125
-0.45873154296875,-0.0376717431640625,0.7004014453125
-0.44900576171875,-0.0641414990234375,0.709740576171875
-0.45873154296875,-0.047965537109375,0.7016302783203126
-0.47526537109375,-0.0175743359375,0.7271900048828125
-0.48158712890625,0.00521906494140625,0.7539785644531249
-0.47088876953125003,-0.040122646484374996,0.7419360009765625
-0.41691068359375,-0.05262225341796875,0.7323511035156249
-0.4234755859375,-0.04134809814453125,0.76823302734375
-0.4254207421875,-0.03497574951171875,0.7792925244140625
-0.4225030078125,-0.051886982421875,0.787402822265625
-0.40961634765625,-0.0455146337890625,0.8132083154296875
-0.4127772265625,-0.053847705078125,0.8279543115234375
-0.4302836328125,-0.046004814453125,0.8230389794921875
-0.36244630859375,-0.057278969726562504,0.8267254785156251
-0.37265837890625,-0.10360104248046875,0.8579378369140624
-0.41107521484375,-0.104826494140625,0.901438525390625
-0.42225986328125,-0.10507158447265624,0.8697346337890625
-0.3767918359375,-0.107767578125,0.8476156396484374
-0.39989056640625,-0.13693332763671875,0.8097675830078125
-0.3651208984375,-0.122472998046875,0.87047193359375
-0.32646091796875,-0.08840544189453126,0.859658203125
-0.3135742578125,-0.1474722119140625,0.8427003076171875
-0.30895451171875,-0.14183513427734376,0.8785822314453124
-0.3578265625,-0.13791368896484374,0.911269189453125
-0.37119951171875,-0.096983603515625,0.9655836083984375
-0.38287044921875,-0.09820905517578125,0.9808211376953125
-0.370470078125,-0.05458297607421875,1.013508095703125
-0.28974609375,-0.061690595703125004,1.0127707958984375
-0.28950294921874997,-0.07909200927734375,1.0697886474609375
-0.39843169921875,-0.044044091796875,1.1091113037109375
-0.39794541015625,-0.02419177490234375,1.1715360205078125
-0.444386015625,-0.00507472900390625,1.1641630224609374
-0.444386015625,-0.01193725830078125,1.1211538671875
-0.382141015625,-0.0038492773437499997,1.124594599609375
-0.3476144921875,-0.01487834228515625,1.1474508935546874
-0.3446967578125,0.036345537109375,1.18112091796875
-0.3592854296875,-0.00997653564453125,1.2315030712890624
-0.40037685546875,0.06845237060546874,1.2983515869140625
-0.47769681640625,0.07335417724609375,1.2949108544921875
-0.42128728515625,0.06502110595703126,1.298597353515625
-0.43441708984375,0.12433296630859375,1.37380193359375
-0.3889490625,0.04002189208984375,1.37970033203125
-0.360744296875,0.033404453125,1.4349978173828124
-0.3865176171875,-0.0180645166015625,1.43475205078125
-0.3738741015625,-0.00703545166015625,1.3996074267578125
-0.3889490625,-0.030319033203124998,1.3740477001953124
-0.393811953125,-0.02713285888671875,1.3258774462890626
-0.31430369140625003,0.0137972265625,1.339886142578125
-0.32086859375,0.01575794921875,1.3450472412109375
-0.329621796875,-0.0055649096679687505,1.3784714990234375
-0.374360390625,-0.00409436767578125,1.3824037646484375
-0.41618125,0.00178780029296875,1.332021611328125
-0.45168035156249997,-0.052867343750000004,1.21257904296875
-0.4312562109375,-0.05458297607421875,1.14376439453125
-0.42031470703125,-0.059729873046875,1.0663479150390625
-0.3660934765625,-0.04919098876953125,1.004660498046875
-0.3670660546875,-0.02860340087890625,0.9950756005859375
-0.45240978515625,-0.02909358154296875,0.9601767431640625
-0.46164927734375,-0.0464949951171875,0.90389619140625
-0.50298384765625,-0.02321141357421875,0.86457353515625
-0.517329375,0.01747358154296875,0.8019030517578125
-0.477453671875,0.04124734375,0.7144101416015625
-0.47404964843749997,0.0486000537109375,0.6583753564453125
-0.48547744140625,0.0623251123046875,0.6657483544921875
-0.50298384765625,0.07065818359375,0.6613245556640625
-0.48158712890625,0.08953013916015624,0.64043439453125
-0.48888146484375,0.12629368896484375,0.6165950341796875
-0.4837754296875,0.14590091552734374,0.63846826171875
-0.4818302734375,0.12874459228515625,0.655671923828125
-0.51514107421875,0.04688442138671875,0.623722265625
-0.467727890625,0.010611052246093749,0.602586337890625
-0.4156949609375,0.08462833251953125,0.574077412109375
-0.3904079296875,0.07727562255859374,0.54409388671875
-0.3524773828125,0.03315936279296875,0.5625263818359375
-0.3709563671875,0.040266982421875,0.61880693359375
-0.35272052734375,0.0378160791015625,0.6151204345703125
-0.3806821484375,0.00399361328125,0.6185611669921875
-0.35855599609375,0.02360083984375,0.675333251953125
-0.33642984375,0.00570924560546875,0.6824604833984375
-0.30214646484375,-0.02909358154296875,0.70629984375
-0.23503857421875,-0.0121823486328125,0.744147900390625
-0.30798193359375,-0.02860340087890625,0.781504423828125
-0.3660934765625,-0.0332601171875,0.761843095703125
-0.38505875,-0.08056255126953125,0.761843095703125
-0.382141015625,-0.08056255126953125,0.735300302734375
-0.32475890625,-0.083258544921875,0.750046298828125
-0.25254498046875,-0.09722869384765626,0.781504423828125
-0.28561263671875,-0.09624833251953124,0.7935469873046875
-0.2931501171875,-0.0592396923828125,0.851793671875
-0.36050115234375,-0.12149263671875,0.832623876953125
-0.2644590625,-0.09820905517578125,0.8309035107421875
-0.32451576171875,-0.05874951171875,0.8417172412109375
-0.38384302734375,-0.11046357177734376,0.7689703271484375
-0.31746457031249997,-0.06144550537109375,0.7193254736328125
-0.29971501953125,-0.06242586669921875,0.6495277587890624
-0.23917203125,-0.057278969726562504,0.66599412109375
-0.29728357421875,-0.114630107421875,0.6873758154296875
-0.33424154296874997,-0.07762146728515625,0.69548611328125
-0.299471875,-0.10507158447265624,0.6406801611328125
-0.3155194140625,-0.10409122314453124,0.6598499560546875
-0.3072525,-0.0621807763671875,0.636010595703125
-0.21607330078125,0.004973974609375,0.7050710107421875
-0.29971501953125,-0.0161037939453125,0.757419296875
-0.3738741015625,0.00227798095703125,0.8299204443359375
-0.37703498046875,0.00816014892578125,0.80952181640625
-0.3826273046875,-0.0082609033203125,0.7291561376953125
-0.35904228515625003,0.08707923583984375,0.714655908203125
-0.36755234375,0.0270321044921875,0.7144101416015625
-0.34931650390625,0.093206494140625,0.8043607177734375
-0.38627447265625,0.07433453857421875,0.8820229638671875
-0.41642439453125,0.038306259765625,0.952557978515625
-0.40572603515625,0.02482629150390625,0.9862280029296875
-0.51611365234375,0.055462583007812497,1.012525029296875
-0.4823165625,0.0672269189453125,0.980083837890625
-0.501768125,-0.04379900146484375,0.9503460791015625
-0.45289607421875,-0.006790361328125,0.9756600390625
-0.4400094140625,-0.05458297607421875,0.9835245703125
-0.4468174609375,-0.057278969726562504,1.0211268603515624
-0.43174250000000003,-0.05899460205078125,1.0112961962890625
-0.50784673828125,-0.0803174609375,1.0275167919921875
-0.50833302734375,-0.0523771630859375,1.05135615234375
-0.5479655859375,-0.10801266845703125,1.0304659912109375
-0.522192265625,-0.07958218994140626,1.0638902490234374
-0.52194912109375,-0.13007079833984375,1.0570087841796876
-0.4789125390625,-0.11193411376953125,1.0589749169921876
-0.526082578125,-0.09918941650390625,1.0771616455078126
-0.5003092578125,-0.12933552734375,1.1041959716796874
-0.524137421875,-0.12124754638671875,1.1680952880859374
-0.5392123828125,-0.1504132958984375,1.1798920849609376
-0.5032269921875,-0.12124754638671875,1.134425263671875
-0.41423609375,-0.18595139404296876,1.070525947265625
-0.4049966015625,-0.16462853515625,1.105916337890625
-0.4545980859375,-0.18644157470703124,1.117713134765625
-0.47259078125,-0.23840072509765625,1.056271484375
-0.44560173828125,-0.273448642578125,0.9783634716796875
-0.55744822265625,-0.20751934326171875,0.8908705615234375
-0.5606091015625,-0.20065681396484375,0.8380307421875
-0.494960078125,-0.13717841796875,0.7908435546875
-0.386031328125,-0.050661530761718754,0.8525309716796875
-0.40523974609375,-0.075415654296875,1.0240760595703124
-0.41934212890625,-0.03203466552734375,1.124594599609375
-0.3923530859375,-0.05801424072265625,1.1887396826171874
-0.43295822265625,-0.0739451123046875,1.2491982666015624
-0.43101306640625,0.00227798095703125,1.282868291015625
-0.4322287890625,-0.011201987304687501,1.2393676025390625
-0.4341739453125,-0.01879978759765625,1.123611533203125
-0.46553958984375,0.07433453857421875,1.098051806640625
-0.39697283203125,0.03928662109375,1.0368559228515626
-0.39478453125,0.11109808837890625,1.109848603515625
-0.35320681640625,0.0809519775390625,1.159984990234375
-0.43198564453125,0.15325362548828125,1.185544716796875
-0.42590703125,0.0765403515625,1.087238076171875
-0.36730919921875,0.1000690234375,1.0496357861328125
-0.41253408203124997,0.0976181201171875,1.1317218310546875
-0.4468174609375,0.1603612451171875,1.223884306640625
-0.475508515625,0.150067451171875,1.33841154296875
-0.45313921875,0.0221302978515625,1.3971497607421874
-0.38530189453125,0.0848734228515625,1.3519287060546874
-0.40280830078125,-0.0646316796875,1.2231470068359376
-0.41812640624999997,-0.11242429443359375,1.1135351025390625
-0.41788326171875,-0.14379585693359376,0.9763973388671875
-0.432715078125,-0.19918627197265626,0.89406552734375
-0.45046462890625,-0.23496946044921874,0.840488408203125
-0.452166640625,-0.2082546142578125,0.748080166015625
-0.37411724609375,-0.14918784423828124,0.6844266162109375
-0.40913005859375,-0.19281392333984376,0.609467802734375
-0.4195852734375,-0.18693175537109374,0.6067643701171875
-0.4409819921875,-0.17908886474609376,0.5726028125
-0.4828028515625,-0.071494208984375,0.6318325634765625
-0.4370916796875,-0.02664267822265625,0.65911265625
-0.46942990234375,-0.09869923583984375,0.68368931640625
-0.43636224609375,-0.020515419921875,0.7360376025390625
-0.42323244140625,-0.05017135009765625,0.7436563671875001
-0.391866796875,-0.0121823486328125,0.799199619140625
-0.41691068359375,0.01453249755859375,0.8967689599609375
-0.3952708203125,0.017718671875,0.980083837890625
-0.473563359375,0.033404453125,1.048898486328125
-0.535808359375,0.09198104248046875,1.0103131298828125
-0.374360390625,0.0338946337890625,0.884726396484375
-0.36196001953125,0.010856142578125,0.84491220703125
-0.3126016796875,0.040266982421875,0.9105318896484375
-0.4730770703125,0.0142874072265625,0.995812900390625
-0.52486685546875,-0.114630107421875,0.97860923828125
-0.48547744140625,-0.09820905517578125,0.8392595751953125
-0.45192349609375,-0.10164031982421876,0.6392055615234375
-0.31478998046875,-0.06928839599609375,0.532788623046875
-0.3028758984375,-0.0180645166015625,0.45537214355468747
-0.30871136718750003,0.0003172583007812497,0.3936847265625
-0.29387955078125,-0.04968116943359375,0.3914728271484375
-0.3466419140625,-0.06732767333984375,0.441363447265625
-0.405482890625,0.0270321044921875,0.521483359375
-0.4011062890625,-0.02737794921875,0.634044462890625
-0.3952708203125,-0.04870080810546875,0.728418837890625
-0.5392123828125,-0.02223105224609375,0.76921609375
-0.39794541015625,0.0368357177734375,0.7876485888671875
-0.40864376953125,-0.0004180126953125,0.8348357763671875
-0.40523974609375,0.04320806640625,0.8741584326171875
-0.29728357421875,0.08634396484375,0.859658203125
-0.34299474609375,0.02727719482421875,0.9166760546875
-0.3301080859375,-0.0494360791015625,0.98450763671875
-0.4575158203125,0.04100225341796875,1.03366095703125
-0.4278521875,-0.0011532836914062497,1.1135351025390625
-0.44730375,-0.03522083984375,1.1587561572265626
-0.56085224609375,-0.0582593310546875,1.17129025390625
-0.44657431640625,-0.08227818359375,1.0948568408203125
-0.45581380859375,-0.118551552734375,1.0427543212890624
-0.39259623046875003,-0.089140712890625,0.9311762841796875
-0.4361191015625,-0.08938580322265625,0.874895732421875
-0.384086171875,-0.0915916162109375,0.8510563720703125
-0.2970404296875,-0.144040947265625,0.9419900146484375
-0.4040240234375,-0.1631579931640625,1.0982975732421876
-0.49325806640625003,-0.21168587890625,1.1322133642578125
-0.3738741015625,-0.25090033203125,1.19684998046875
-0.23114826171875,-0.12712971435546874,1.25190169921875
-0.32840607421875,-0.01046671630859375,1.315309482421875
-0.35588140625,-0.17565760009765624,1.365445869140625
-0.51027818359375,-0.051886982421875,1.4246756201171875
-0.73348486328125,-0.12075736572265625,1.2256046728515626
-0.609724296875,-0.12811007568359375,1.0167030615234376
-0.3116291015625,-0.11291447509765624,0.91569298828125
-0.35661083984374997,-0.0906112548828125,0.8559717041015625
-0.33181009765625,-0.132276611328125,0.7670041943359375
-0.22920310546875,-0.11683592041015625,0.7866655224609375
-0.26810623046875,-0.11683592041015625,0.8014115185546875
-0.32889236328125,-0.075415654296875,0.92552365234375
-0.32402947265625,-0.11634573974609375,1.0004824658203124
-0.5304591796875,0.0005623486328125002,1.13983212890625
-0.46942990234375,0.1157548046875,1.0700344140625
-0.5285140234375,0.097127939453125,0.9822957373046874
-0.5100350390625,0.1162449853515625,0.8933282275390625
-0.32500205078125,0.091245771484375,0.813945615234375
-0.26081189453125,0.04688442138671875,0.8068183837890625
-0.19321771484375,0.11550971435546875,0.965337841796875
-0.28804408203125,0.049090234375,1.1209081005859376
-0.286828359375,-0.0798272802734375,1.2580458642578125
-0.30944080078125,-0.1376685986328125,1.329072412109375
-0.2834243359375,-0.1484525732421875,1.25780009765625
-0.37606240234375,-0.18693175537109374,1.079373544921875
-0.30846822265625,-0.13056097900390626,0.8874298291015625
-0.09061072265625,-0.10972830078125,0.8785822314453124
-0.20051205078125,-0.1317864306640625,1.094119541015625
-0.27418484375,-0.136198056640625,1.1602307568359376
-0.25935302734375,-0.13448242431640625,1.10837400390625
-0.23649744140625,-0.154824921875,0.99630443359375
-0.23528171875,-0.15801109619140624,0.854251337890625
-0.13948277343749999,-0.1239435400390625,0.7768348583984375
-0.14847912109375,-0.0376717431640625,0.7979707861328125
-0.1336473046875,-0.0562986083984375,0.886692529296875
-0.1735230078125,-0.05997496337890625,1.0506188525390625
-0.2843969140625,-0.051886982421875,1.1076367041015625
-0.29922873046875,-0.03546593017578125,1.078390478515625
-0.32597462890625,0.065756376953125,0.9395323486328125
-0.30141703125,0.06551128662109375,0.8476156396484374
-0.29047552734375,0.0123266845703125,0.8481071728515625
-0.3349709765625,0.0012976196289062499,0.856217470703125
-0.3189234375,-0.035711020507812496,0.7999369189453125
-0.2542469921875,-0.08546435791015625,0.7340714697265625
-0.24768208984375,-0.089140712890625,0.61290853515625
-0.20099833984375,-0.0768861962890625,0.5374581884765625
-0.13948277343749999,-0.02419177490234375,0.502313564453125
-0.14361623046875,-0.0013983740234375002,0.5507295849609375
-0.11638404296875,-0.004829638671875,0.689096181640625
-0.23114826171875,0.02972809814453125,0.908319990234375
-0.3437241796875,0.00791505859375,1.1054248046875
-0.3904079296875,0.0544822216796875,1.2334692041015625
-0.310170234375,0.09835339111328124,1.278936025390625
-0.3067662109375,0.1113431787109375,1.17325638671875
-0.24695265625,0.032424091796875,1.1223827001953124
-0.201241484375,0.0338946337890625,1.0503730859375
-0.3189234375,0.00717978759765625,1.0373474560546876
-0.26956509765625,-0.012672529296875,1.0083469970703125
-0.36293259765625,-0.098944326171875,1.0189149609375
-0.2289599609375,-0.14428603759765624,0.9075826904296875
-0.27053767578125,-0.1827652197265625,0.8333611767578125
-0.21655958984375,-0.21977385986328124,0.83311541015625
-0.16549923828125,-0.171491064453125,0.809030283203125
-0.1944334375,-0.21144078857421875,0.9233117529296875
-0.17230728515625,-0.14085477294921875,1.0727378466796875
-0.3476144921875,-0.09330724853515625,1.147205126953125
-0.39356880859375,-0.01830960693359375,1.16342572265625
-0.3320532421875,0.00178780029296875,1.0928907080078125
-0.32791978515625,0.03315936279296875,1.085271943359375
-0.2104809765625,0.07923634521484375,1.0840431103515624
-0.284883203125,-0.07811164794921875,1.1405694287109376
-0.36050115234375,-0.06095532470703125,1.185544716796875
-0.3515048046875,-0.060710234375,1.029237158203125
-0.3126016796875,-0.1298257080078125,0.886692529296875
-0.1920019921875,-0.08203309326171875,0.86359046875
-0.28026345703125,-0.1396293212890625,0.911269189453125
-0.15091056640625,-0.155805283203125,1.1110774365234375
-0.18154677734375,-0.10262068115234375,1.251410166015625
-0.26372962890625,-0.07566074462890625,1.3509456396484376
-0.23163455078125,-0.10286577148437501,1.4357351171875
-0.44365658203125,-0.09967959716796874,1.411649990234375
-0.4332013671875,-0.08619962890625,1.1700614208984375
-0.3437241796875,-0.04698517578125,1.05528841796875
-0.279047734375,-0.1739419677734375,1.021372626953125
-0.24768208984375,-0.195019736328125,1.09854333984375
-0.1988100390625,-0.12124754638671875,1.0953483740234375
-0.2955815625,-0.16854998046875,1.0275167919921875
-0.35126166015625,-0.09281706787109376,0.9257694189453125
-0.30919765625,-0.10409122314453124,0.804606484375
-0.286828359375,-0.07566074462890625,0.773148359375
-0.2912049609375,-0.14575657958984375,0.71907970703125
-0.273212265625,-0.11340465576171875,0.7316138037109375
-0.255705859375,-0.0582593310546875,0.7529954980468749
-0.315033125,-0.112669384765625,0.7262069384765625
-0.3291355078125,-0.05482806640625,0.793301220703125
-0.45873154296875,-0.050661530761718754,0.887675595703125
-0.42031470703125,-0.0180645166015625,0.9498545458984375
-0.38919220703125,-0.02860340087890625,0.9166760546875
-0.3291355078125,0.09418685546875,0.8608870361328125
-0.21169669921875,0.07531489990234375,0.89799779296875
-0.2746711328125,0.0907555908203125,0.897506259765625
-0.2805066015625,0.0672269189453125,0.9011927587890625
-0.31697828125,0.13952856689453125,0.91176072265625
-0.3680386328125,0.12286242431640625,0.82918314453125
-0.29509527343749997,0.0525214990234375,0.8328696435546875
-0.3320532421875,0.073599267578125,0.8530225048828125
-0.41496552734375003,-0.04183827880859375,0.9400238818359374
-0.39989056640625,0.03462990478515625,1.057746083984375
-0.4001337109375,-0.03889719482421875,0.9616513427734374
-0.35466568359375,-0.0268877685546875,0.89209939453125
-0.36050115234375,-0.01634888427734375,0.8549886376953125
-0.36585033203125,-0.04036773681640625,0.79575888671875
-0.22701480468750002,0.0476196923828125,0.7620888623046875
-0.30895451171875,0.04590406005859375,0.8481071728515625
-0.27418484375,0.024581201171875,0.9405154150390624
-0.49520322265625,0.0280124658203125,1.0211268603515624
-0.36585033203125,0.03119864013671875,0.98450763671875
-0.3495596484375,-0.0582593310546875,0.7812586572265625
-0.26227076171875,-0.05311243408203125,0.6981895458984375
-0.15917748046875,-0.04526954345703125,0.7896147216796875
-0.33278267578125,-0.0881603515625,0.979100771484375
-0.393811953125,-0.0724745703125,1.19390078125
-0.5907590234375,-0.124433720703125,1.2315030712890624
-0.46359443359375,-0.098944326171875,1.016457294921875
-0.21704587890625,-0.07468038330078125,0.8638362353515625
-0.12367837890625,-0.11585555908203125,0.8667854345703125
-0.08355953125,-0.006790361328125,1.036118623046875
-0.25740787109375,-0.12124754638671875,1.2000449462890626
-0.42517759765625,-0.13105115966796876,1.2423168017578126
-0.50590158203125,-0.05458297607421875,1.1302472314453125
-0.45168035156249997,-0.14036459228515624,0.962388642578125
-0.31430369140625003,-0.163648173828125,0.9144641552734375
-0.21655958984375,-0.08007237060546875,0.811979482421875
-0.2435486328125,-0.036201201171875,0.8584293701171875
-0.2892598046875,-0.118551552734375,0.9542783447265625
-0.39891798828125,-0.0268877685546875,1.177680185546875
-0.4900971875,-0.13987441162109376,1.2383845361328125
-0.28585578125,-0.10972830078125,1.195375380859375
-0.2260422265625,-0.104826494140625,1.1621968896484376
-0.18592337890625,-0.13448242431640625,1.13000146484375
-0.3096839453125,-0.1327667919921875,1.0584833837890626
-0.31673513671875,-0.12026718505859375,0.934862783203125
-0.25935302734375,-0.1053166748046875,0.859658203125
-0.298499296875,-0.10972830078125,0.8363103759765624
-0.34542619140624997,-0.00213364501953125,0.85867513671875
-0.30919765625,-0.07909200927734375,0.8422087744140625
-0.2022140625,-0.07909200927734375,0.9926179345703126
-0.1608794921875,-0.0788469189453125,1.0796193115234376
-0.27540056640625,-0.055073156738281254,1.2037314453125
-0.35806970703125,-0.1170810107421875,1.2548508984375
-0.47964197265624997,-0.0690433056640625,1.0923991748046875
-0.268349375,0.13854820556640626,1.0189149609375
-0.16355408203125,-0.03522083984375,0.9341254833984375
-0.17668388671875,0.04124734375,1.0879753759765625
-0.19613544921875,-0.029338671875,1.006626630859375
-0.28950294921874997,-0.1190417333984375,0.9238032861328125
-0.33813185546875,0.02972809814453125,0.8871840625
-0.29679728515625,0.07433453857421875,0.8544971044921875
-0.2338228515625,0.08560869384765625,1.0358728564453126
-0.1793584765625,-0.01046671630859375,1.213562109375
-0.30506419921875,0.03659062744140625,1.305478818359375
-0.2785614453125,-0.05482806640625,1.214053642578125
-0.4215304296875,-0.1484525732421875,0.968287041015625
-0.39405509765625,0.050070595703125,0.7542243310546874
-0.3544225390625,0.11845079833984375,0.6696806201171875
-0.23528171875,-0.0043394580078125,0.551466884765625
-0.1336473046875,-0.02370159423828125,0.5649840478515625
-0.1151683203125,-0.11585555908203125,0.624213798828125
-0.1813036328125,-0.13325697265625,0.694994580078125
-0.1083602734375,-0.0308092138671875,0.843929140625
-0.25157240234375,-0.183255400390625,1.0189149609375
-0.257651015625,-0.09967959716796874,1.240596435546875
-0.2367405859375,-0.0592396923828125,1.2044687451171874
-0.30068759765624997,0.015022678222656249,1.220935107421875
-0.23941517578125,0.07457962890625,1.207172177734375
-0.48742259765625,0.061834931640625,1.1651460888671874
-0.47332021484375,0.0789912548828125,1.0157199951171876
-0.1501811328125,-0.07051384765625,0.8220559130859375
-0.0927990234375,-0.05654369873046875,0.777080625
-0.107873984375,-0.05850442138671875,0.7974792529296875
-0.15042427734375,-0.134237333984375,0.80952181640625
-0.34639876953125,-0.18031431640625,0.8264797119140626
-0.253760703125,-0.18546121337890625,0.72104583984375
-0.10130908203125,-0.06389640869140625,0.7896147216796875
-0.15480087890625,-0.06193568603515625,1.0579918505859376
-0.27102396484375,-0.042083369140625,1.2221639404296876
-0.29485212890625,-0.11144393310546875,1.3416065087890625
-0.33035123046875,0.0005623486328125002,1.4079634912109376
-0.42128728515625,-0.02468195556640625,1.309411083984375
-0.2892598046875,-0.151883837890625,1.166374921875
-0.27296912109375,-0.04968116943359375,1.0235845263671874
-0.15480087890625,-0.076396015625,0.9407611816406249
-0.06970029296875,-0.1866866650390625,0.95108337890625
-0.03298546875,-0.04968116943359375,1.0447204541015624
-0.1851939453125,-0.06095532470703125,1.1346710302734375
-0.27685943359375,-0.15801109619140624,0.9913891015625
-0.15164,-0.05213207275390625,0.942727314453125
-0.16695810546875,-0.00801581298828125,0.880794130859375
-0.17619759765625,0.01453249755859375,0.9827872705078124
-0.23795630859375,0.01894412353515625,0.969270107421875
-0.37557611328125,0.0005623486328125002,1.021372626953125
-0.37314466796875,-0.1901179296875,0.881777197265625
-0.35563826171875,-0.16144236083984376,0.844420673828125
-0.22361078125,-0.19134338134765624,0.7082659765625
-0.0733474609375,-0.09404251953125001,0.708757509765625
-0.05170759765625,0.03757098876953125,0.819844013671875
-0.14847912109375,0.010611052246093749,0.912252255859375
-0.25594900390624997,0.0897752294921875,1.1027213720703124
-0.2620276171875,0.21256548583984375,1.2462490673828124
-0.43149935546875,0.2571719262695312,1.2919616552734374
-0.30311904296875003,0.19491898193359375,1.175714052734375
-0.1589343359375,0.03904153076171875,1.07888201171875
-0.1355924609375,-0.0778665576171875,1.0152284619140626
-0.13024328125,-0.1111988427734375,1.0570087841796876
-0.330594375,-0.076396015625,1.048406953125
-0.46116298828125,-0.0935523388671875,0.9075826904296875
-0.39405509765625,-0.1955099169921875,0.81148794921875
-0.1783858984375,-0.11536537841796875,0.91765912109375
-0.04878986328125,0.0451687890625,0.9646005419921875
-0.092312734375,0.177517568359375,1.1356540966796875
-0.25084296875,0.1387932958984375,1.2526389990234374
-0.346155625,-0.1004148681640625,1.2197062744140625
-0.25838044921875,-0.08423890625,1.079865078125
-0.392839375,-0.03448556884765625,0.9238032861328125
-0.252788125,-0.0411030078125,0.90389619140625
-0.1015522265625,0.06600146728515625,0.948625712890625
-0.33715927734375,-0.122472998046875,0.9370746826171875
-0.242089765625,-0.051886982421875,0.8569547705078124
-0.37898013671874997,-0.048455717773437504,0.8490902392578125
-0.34639876953125,0.02874773681640625,0.9827872705078124
-0.25351755859375,-0.08399381591796876,1.0761785791015626
-0.23795630859375,-0.07320984130859375,1.09854333984375
-0.3233000390625,-0.04183827880859375,1.0388220556640624
-0.2464663671875,-0.08448399658203125,0.8446664404296875
-0.1521262890625,-0.12369844970703125,0.6905707812499999
-0.18786853515625002,-0.042328459472656246,0.7940385205078125
-0.3262177734375,-0.03693647216796875,0.9267524853515625
-0.45630009765625,-0.18252012939453124,0.8274627783203125
-0.18738224609375,-0.11046357177734376,0.787402822265625
-0.14629082031250001,-0.0808076416015625,0.8677685009765626
-0.40621232421875,-0.163648173828125,0.969761640625
-0.4001337109375,-0.0254172265625,1.1621968896484376
-0.35855599609375,-0.06046514404296875,1.0938737744140625
-0.23917203125,-0.07713128662109375,1.0444746875
-0.14629082031250001,0.04149243408203125,1.0727378466796875
-0.09547361328125001,-0.1141399267578125,1.1789090185546875
-0.15431458984375,-0.2886442431640625,1.1926719482421875
-0.179844765625,-0.2450181640625,0.9611598095703124
-0.14993798828125,-0.222469853515625,0.8250051123046875
-0.12513724609375,-0.21781313720703124,0.7075286767578125
-0.125380390625,-0.2239403955078125,0.72497810546875
-0.18446451171875,-0.21536223388671874,0.8360646093749999
-0.3855450390625,-0.11389483642578124,0.8697346337890625
-0.36244630859375,0.0858537841796875,0.934862783203125
-0.1686601171875,0.04688442138671875,1.043983154296875
-0.34834392578125,0.06673673828125,1.294665087890625
-0.32694720703125,0.0789912548828125,1.4020650927734375
-0.24768208984375,0.16305723876953124,1.5421520556640624
-0.24306234375,0.11550971435546875,1.419514521484375
-0.3767918359375,0.0858537841796875,1.245020234375
-0.50201126953125,-0.059484782714843754,0.9990078662109375
-0.3135742578125,-0.0254172265625,0.7783094580078125
-0.13145900390625,-0.032279755859375,0.6706636865234374
0.0093216796875,-0.032279755859375,0.6075016699218749
-0.015235917968750002,-0.00850599365234375,0.73874103515625
-0.30700935546875,-0.1170810107421875,0.8638362353515625
-0.49374435546875,-0.12909043701171874,0.8672769677734375
-0.3111428125,-0.08203309326171875,0.7615973291015625
-0.11443888671875,-0.08056255126953125,0.7709364599609375
-0.08355953125,-0.11193411376953125,0.87931953125
-0.24306234375,-0.11340465576171875,1.0152284619140626
-0.34688505859375,-0.21389169189453125,1.0516019189453125
-0.252788125,-0.242077080078125,0.8884128955078126
-0.2386857421875,-0.0562986083984375,0.781012890625
-0.25789416015625,-0.0406128271484375,0.7144101416015625
-0.051464453125000004,-0.12320826904296875,0.779538291015625
-0.020341953125,-0.045024453125,1.047915419921875
-0.0840458203125,0.09835339111328124,1.233714970703125
-0.4468174609375,0.07972652587890625,1.4320486181640626
-0.54966759765625,0.0652661962890625,1.3548779052734374
-0.5100350390625,0.0005623486328125002,1.0226014599609374
-0.26713365234374997,-0.0857094482421875,0.804114951171875
-0.057543066406249996,-0.010711806640625,0.820335546875
-0.18786853515625002,-0.067572763671875,0.92552365234375
-0.28658521484375,-0.0724745703125,1.02579642578125
-0.4147223828125,-0.0259074072265625,1.01006736328125
-0.2503566796875,-0.161687451171875,0.8159117480468749
-0.097175625,-0.0386521044921875,0.8230389794921875
-0.14945169921875,0.03021827880859375,0.8962774267578125
-0.30068759765624997,0.05913893798828125,1.0078554638671875
-0.4118046484375,0.0584036669921875,1.1184504345703126
-0.33326896484375,-0.11536537841796875,0.9614055761718749
-0.1978374609375,-0.114630107421875,0.7751144921875
-0.179844765625,-0.104826494140625,0.7640549951171876
-0.044170117187499996,-0.118551552734375,0.9795923046875
-0.15091056640625,-0.0631611376953125,1.3470133740234376
-0.52049025390625,-0.08595453857421875,1.5851612109375
-0.40183572265625,-0.05360261474609375,1.4241840869140625
-0.391866796875,-0.18815720703125,1.029237158203125
-0.4263933203125,-0.11757119140625,0.86260740234375
-0.27515742187500003,-0.032279755859375,0.780521357421875
-0.17473873046875,0.02776737548828125,0.788385888671875
-0.1589343359375,-0.02321141357421875,0.78396208984375
-0.0011335351562500005,-0.04281864013671875,0.7950215869140624
-0.05219388671875,-0.04723026611328125,0.952557978515625
-0.1414279296875,0.0799716162109375,1.3071991845703126
-0.41885583984375,-0.08840544189453126,1.4472861474609375
-0.386031328125,-0.0161037939453125,1.3086737841796876
-0.51465478515625,-0.0239466845703125,1.0378389892578126
-0.32281375,-0.171491064453125,0.8132083154296875
-0.2561921484375,-0.2643803002929688,0.750046298828125
-0.30871136718750003,-0.2160975048828125,0.79969115234375
-0.27807515625,-0.079337099609375,0.8028861181640625
-0.3262177734375,-0.0553182470703125,0.756927763671875
-0.2221519140625,0.11599989501953126,0.782487490234375
-0.08526154296874999,-0.032279755859375,0.707774443359375
-0.04465640625,-0.16242272216796874,0.8387680419921875
-0.08477525390625,-0.13717841796875,0.861132802734375
-0.14410251953125,-0.13448242431640625,0.92552365234375
-0.22336763671875,-0.20948006591796875,0.897506259765625
-0.2955815625,-0.232273466796875,0.8500733056640625
-0.37898013671874997,-0.18399067138671876,0.8987350927734374
-0.32646091796875,-0.0121823486328125,0.87637033203125
-0.27929087890625,0.032424091796875,0.82721701171875
-0.2523018359375,0.0652661962890625,0.908319990234375
-0.15869119140625,-0.01144707763671875,1.11427240234375
-0.3077387890625,-0.1062970361328125,1.2676307617187499
-0.21461443359375,0.021885207519531248,1.30105501953125
-0.2386857421875,-0.057278969726562504,1.233714970703125
-0.392839375,-0.00948635498046875,0.95796484375
-0.4526529296875,0.04247279541015625,0.741690234375
-0.39818855468750003,0.023845930175781252,0.6451039599609375
-0.2552195703125,0.05521749267578125,0.6888504150390625
-0.34202216796875,0.12874459228515625,0.82721701171875
-0.39162365234375,0.14688127685546876,0.80165728515625
-0.4137498046875,0.01845394287109375,0.8082929833984375
-0.47186134765625,-0.12149263671875,0.8419630078125
-0.5401849609375,-0.10727739746093751,0.897506259765625
-0.439523125,-0.1925688330078125,0.9009469921875
-0.32840607421875,-0.14673694091796874,0.9577190771484375
-0.18470765625,0.009140510253906251,1.022355693359375
-0.24476435546875,-0.08448399658203125,0.9916348681640625
-0.44608802734374997,-0.0631611376953125,0.9759058056640625
-0.3223274609375,0.014777587890624999,0.85081060546875
-0.41253408203124997,0.028257556152343752,0.8117337158203125
-0.240144609375,-0.09183670654296874,0.7468513330078125
-0.18227621093750002,-0.08791526123046875,0.7842078564453125
-0.25497642578125,-0.23644000244140626,0.8603955029296875
-0.432715078125,-0.12026718505859375,1.0073639306640625
-0.54674986328125,-0.18104958740234375,0.8805483642578125
-0.40815748046875,-0.233253828125,0.6770536181640625
-0.131215859375,-0.11046357177734376,0.678773984375
-0.060460800781250004,-0.030319033203124998,0.8525309716796875
-0.06629626953125001,-0.0602200537109375,1.1562984912109375
-0.29363640625,-0.07173929931640625,1.46621017578125
-0.29509527343749997,0.09688284912109375,1.5566522851562499
-0.12708240234375,-0.14232531494140624,1.2737749267578125
-0.057056777343750004,-0.03056412353515625,1.1833328173828126
-0.1978374609375,0.0221302978515625,1.2786902587890625
-0.36487775390625,-0.0249270458984375,1.3430811083984375
-0.4589746875,-0.0494360791015625,1.266156162109375
-0.39454138671875,-0.01169216796875,0.9631259423828125
-0.17522501953125,-0.06659240234375,0.8918536279296875
-0.01037302734375,-0.06389640869140625,0.897506259765625
-0.0067258593750000005,-0.08644471923828125,1.0975602734375
-0.007698437500000002,-0.14036459228515624,1.229782705078125
-0.11881548828124999,-0.21144078857421875,1.331530078125
-0.17522501953125,-0.13644314697265625,1.1096028369140625
0.003729355468750001,-0.1543347412109375,0.959439443359375
0.008349101562499999,-0.14820748291015626,1.12410306640625
-0.17862904296875,-0.2540865063476562,1.1867735498046874
-0.1667149609375,-0.081297822265625,1.1558069580078125
-0.30652306640625,-0.1121792041015625,0.9473968798828125
-0.2571647265625,-0.05164189208984375,0.89406552734375
0.04992681640625,0.0280124658203125,0.9407611816406249
0.058193730468749996,0.04737460205078125,1.1368829296875
-0.08963814453125,-0.0759058349609375,1.4168110888671874
-0.24379177734375002,-0.18055940673828125,1.2614865966796875
-0.31284482421875,-0.12565917236328125,0.914218388671875
-0.29363640625,-0.11340465576171875,0.6785282177734375
-0.20051205078125,-0.08693489990234375,0.7178508740234375
-0.068970859375,0.024091020507812498,0.758893896484375
-0.30311904296875003,0.06011929931640625,0.85277673828125
-0.22385392578125,-0.11291447509765624,0.8702261669921875
-0.2450075,-0.08619962890625,1.0778989453125
-0.366579765625,0.04933532470703125,1.2133163427734375
-0.34639876953125,-0.00262382568359375,1.1705529541015625
-0.35661083984374997,-0.00311400634765625,1.1159927685546875
-0.407428046875,0.021885207519531248,1.0147369287109376
-0.4040240234375,-0.032279755859375,0.9183964208984375
-0.31187224609374997,-0.11364974609375,0.76626689453125
-0.203186640625,-0.09232688720703125,0.6711552197265624
-0.0577862109375,-0.0567887890625,0.5723570458984375
-0.0466015625,-0.12811007568359375,0.55982294921875
-0.17668388671875,-0.11830646240234374,0.6696806201171875
-0.33667298828125003,-0.00850599365234375,0.72104583984375
-0.42371873046874997,0.03217900146484375,0.8038691845703125
-0.41982841796875,0.10521592041015625,0.88423486328125
-0.41423609375,0.0780108935546875,0.97664310546875
-0.34299474609375,0.0838930615234375,0.9980247998046875
-0.28561263671875,-0.00801581298828125,0.9301932177734376
-0.3826273046875,-0.08301345458984374,0.8166490478515624
-0.335457265625,-0.02664267822265625,0.74857169921875
-0.3806821484375,-0.0474753564453125,0.63256986328125
-0.31965287109375,0.0446786083984375,0.5777639111328124
-0.232363984375,0.089285048828125,0.694994580078125
-0.154557734375,-0.023456503906250002,0.7920723876953125
-0.2231244921875,-0.02149578125,0.9051250244140625
-0.24476435546875,0.11894097900390625,0.9488714794921875
-0.2406308984375,-0.04183827880859375,0.9862280029296875
-0.15431458984375,0.0137972265625,1.1228742333984374
-0.29971501953125,0.0054641552734375,1.3519287060546874
-0.39867484375,-0.0724745703125,1.36986966796875
-0.4594609765625,-0.04379900146484375,1.269105361328125
-0.244034921875,-0.07075893798828126,1.0363643896484376
-0.26713365234374997,-0.10507158447265624,0.973202373046875
-0.19905318359375002,-0.0955130615234375,0.991880634765625
-0.2279873828125,-0.006790361328125,1.0058893310546875
-0.15966376953125,-0.045024453125,1.0329236572265625
-0.07359060546875,-0.042328459472656246,1.1486797265625
-0.1861665234375,-0.0680629443359375,1.277952958984375
-0.21753216796875,-0.22467566650390625,1.1386032958984376
-0.21607330078125,-0.2756544555664063,0.9972875
-0.17619759765625,-0.2415868994140625,0.89406552734375
-0.35977171875,-0.20359789794921876,0.8599039697265625
-0.21801845703125,-0.2945264111328125,0.8616243359375
-0.26907880859375,-0.26094903564453126,1.0402966552734374
-0.41934212890625,-0.085219267578125,1.0781447119140626
-0.3271903515625,-0.0229663232421875,1.03759322265625
-0.2464663671875,-0.02027032958984375,1.0329236572265625
-0.26616107421875,0.024581201171875,1.079373544921875
-0.097175625,0.02237538818359375,1.051847685546875
0.0003253320312500002,-0.044044091796875,1.1005094726562499
0.01491400390625,0.01404231689453125,1.321207880859375
-0.2347954296875,-0.042328459472656246,1.5421520556640624
-0.545534140625,-0.04477936279296875,1.4418792822265625
-0.56766029296875,-0.1239435400390625,1.0845346435546874
-0.48985404296875,-0.19967645263671874,0.90193005859375
-0.156502890625,-0.03497574951171875,0.802148818359375
-0.049762441406249996,0.0868341455078125,0.9164302880859375
-0.24622322265625,-0.0553182470703125,0.926998251953125
-0.26275705078125,-0.13938423095703126,1.0614325830078124
-0.3339983984375,-0.0376717431640625,1.2285538720703124
-0.292663828125,-0.14232531494140624,1.219952041015625
-0.2488978125,-0.09722869384765626,1.0712632470703125
-0.179844765625,-0.05482806640625,0.853268271484375
-0.0538958984375,-0.0651218603515625,0.8387680419921875
-0.20391607421875,-0.08693489990234375,0.9518206787109375
-0.33570041015625,0.028257556152343752,1.089204208984375
-0.3889490625,0.0486000537109375,1.14376439453125
-0.382141015625,-0.03938737548828125,1.0363643896484376
-0.44414287109375,0.0201695751953125,0.95698177734375
-0.2892598046875,-0.09428760986328125,0.77609755859375
-0.19759431640625,-0.06585713134765625,0.687130048828125
-0.14458880859375,0.021885207519531248,0.645841259765625
-0.096203046875,0.08634396484375,0.7394783349609375
-0.10325423828125,-0.0327699365234375,0.9115149560546875
-0.2309051171875,-0.193059013671875,1.104933271484375
-0.28804408203125,-0.2602137646484375,1.15949345703125
-0.31478998046875,-0.09845414550781251,1.057746083984375
-0.23649744140625,-0.00360418701171875,0.902913125
-0.3194097265625,0.055462583007812497,0.9095488232421876
-0.24719580078125,0.010856142578125,0.947642646484375
-0.3466419140625,0.05717821533203125,0.883743330078125
-0.38505875,-0.0180645166015625,0.8181236474609375
-0.3816547265625,-0.0651218603515625,0.7119524755859374
-0.21266927734375,-0.108747939453125,0.6696806201171875
-0.0986344921875,-0.1337471533203125,0.6500192919921874
-0.07869664062500001,-0.116590830078125,0.83114927734375
-0.28707150390625,-0.15261910888671876,0.899472392578125
-0.389921640625,-0.08497417724609375,0.9442019140625
-0.312115390625,-0.04821062744140625,0.97664310546875
-0.3991611328125,-0.1131595654296875,1.0058893310546875
-0.3126016796875,0.02335574951171875,1.0759328125
-0.33326896484375,0.093206494140625,1.070525947265625
-0.36876806640625,-0.02149578125,1.0343982568359376
-0.346155625,-0.0425735498046875,1.10444173828125
-0.3301080859375,-0.1587463671875,1.06905134765625
-0.13534931640625,-0.17026561279296876,0.9808211376953125
0.030232109375,-0.06046514404296875,1.0759328125
0.04117361328125,-0.0881603515625,1.3728188671875
-0.24938410156250002,-0.10899302978515625,1.669213388671875
-0.6184775,0.05325677001953125,1.6050683056640624
-0.615559765625,-0.014633251953124999,1.3268605126953126
-0.51076447265625,-0.20751934326171875,0.94518498046875
-0.2542469921875,-0.2317832861328125,0.63453599609375
-0.07602205078125,-0.15310928955078124,0.520991826171875
-0.04271125,-0.13399224365234375,0.4612705419921875
-0.02155767578125,-0.1327667919921875,0.67779091796875
-0.0179105078125,-0.2092349755859375,1.17129025390625
-0.294608984375,-0.3631517041015625,1.6999342138671876
-0.59829650390625,-0.29624204345703126,1.8938440625
-0.54285955078125,0.0897752294921875,1.508973564453125
-0.35466568359375,0.04590406005859375,1.0756870458984376
-0.286828359375,-0.0239466845703125,0.888658662109375
-0.33229638671875,-0.20310771728515625,0.7630719287109375
-0.21072412109375,-0.11634573974609375,0.6205272998046875
-0.117599765625,-0.09428760986328125,0.5502380517578125
-0.07650833984375,-0.16389326416015626,0.4730673388671875
-0.005996425781250002,-0.07370002197265625,0.6608330224609374
-0.28853037109375,-0.11487519775390626,0.935845849609375
-0.4356328125,-0.15016820556640625,1.263206962890625
-0.3456693359375,-0.08056255126953125,1.6099836376953125
-0.14799283203125,-0.13301188232421876,0.6986810791015625
-0.15674603515625,-0.05409279541015625,0.9048792578125
-0.28609892578125,0.0750698095703125,1.1499085595703125
-0.19953947265625,0.075559990234375,1.30695341796875
-0.2736985546875,-0.1082577587890625,1.241579501953125
-0.26761994140625,-0.015368522949218751,0.9650920751953125
-0.20440236328125,-0.0567887890625,0.643875126953125
-0.103983671875,-0.13497260498046876,0.583908076171875
-0.0354169140625,-0.11046357177734376,0.6033236376953125
-0.0782103515625,-0.0964934228515625,0.7043337109375
-0.21510072265625,-0.1038461328125,0.8476156396484374
-0.2075632421875,-0.267566474609375,0.9356000830078125
-0.210967265625,-0.24722397705078125,1.0398051220703124
-0.15164,0.081442158203125,1.0314490576171875
-0.17473873046875,-0.0210056005859375,0.926998251953125
-0.24622322265625,-0.0906112548828125,0.9591936767578125
-0.34493990234375,-0.09575815185546875,1.022355693359375
-0.23357970703125,-0.0690433056640625,0.946168046875
-0.024232265625,-0.10703230712890625,1.0535680517578125
-0.034930625,-0.0739451123046875,1.2870463232421876
-0.08428896484375001,-0.10752248779296875,1.4792358056640624
-0.2177753125,-0.15654055419921875,1.567466015625
-0.34056330078125,-0.0254172265625,1.5067616650390625
-0.4088869140625,-0.08546435791015625,1.227816572265625
-0.506631015625,-0.05409279541015625,1.1290183984375
-0.52292169921875,-0.0817880029296875,0.9407611816406249
-0.089395,-0.044534272460937496,0.7414444677734375
-0.29363640625,-0.0298288525390625,0.7276815380859375
-0.2318776953125,-0.1494329345703125,0.6716467529296875
-0.18835482421875,-0.142080224609375,0.8864467626953125
-0.17230728515625,-0.112669384765625,1.1843158837890626
-0.331566953125,-0.0013983740234375002,1.4900495361328125
-0.3583128515625,0.0309535498046875,1.420497587890625
-0.19127255859375,-0.10311086181640625,1.2880293896484374
-0.25862359375,-0.00752563232421875,1.2688595947265624
-0.4507077734375,-0.1102184814453125,1.268613828125
-0.45435494140625,-0.1979608203125,1.1562984912109375
-0.2143712890625,-0.25310614501953127,0.9031588916015625
-0.1978374609375,-0.19183356201171875,0.8608870361328125
-0.07577890625,-0.2572726806640625,0.903404658203125
-0.29387955078125,-0.3004085791015625,1.1504000927734375
-0.31624884765625,-0.16046199951171874,1.229291171875
-0.25643529296875,-0.1974706396484375,1.1356540966796875
-0.21193984375,-0.22761675048828126,1.008592763671875
-0.2853694921875,-0.15065838623046876,0.9901602685546875
-0.19832375,-0.10899302978515625,0.94125271484375
-0.2007551953125,-0.1866866650390625,0.8889044287109376
-0.1696326953125,-0.07468038330078125,0.839996875
-0.15431458984375,-0.00262382568359375,0.92159138671875
-0.197351171875,-0.2327636474609375,1.055779951171875
-0.244034921875,-0.18423576171875,1.270088427734375
-0.28901666015625,0.00472888427734375,1.143272861328125
-0.18543708984375,-0.08423890625,0.9960586669921875
-0.22920310546875,0.0044837939453125,0.924049052734375
-0.26275705078125,-0.10360104248046875,0.7613515625
-0.14799283203125,-0.12124754638671875,0.765283828125
-0.081614375,-0.2259011181640625,0.7593854296875
-0.25473328125,-0.11144393310546875,0.717605107421875
-0.23114826171875,-0.00948635498046875,0.6839350830078125
-0.0966893359375,0.01796376220703125,0.7645465283203124
-0.2581373046875,-0.06659240234375,0.922574453125
-0.28901666015625,-0.08595453857421875,0.96288017578125
-0.25838044921875,-0.02125069091796875,0.9641090087890625
-0.10957599609375,0.09100068115234375,1.0071181640625
-0.2980130078125,-0.1102184814453125,0.9414984814453125
-0.19832375,-0.1116890234375,0.9061080908203125
-0.18592337890625,-0.0543378857421875,0.852285205078125
-0.37144265625,-0.07468038330078125,0.8340984765625
-0.23017568359375,0.0427178857421875,0.768724560546875
-0.07748091796875001,-0.03840701416015625,0.7453767333984375
0.005674511718750001,0.04688442138671875,0.859166669921875
-0.10495625,-0.07468038330078125,0.970253173828125
-0.16914640625,-0.0249270458984375,1.0466865869140625
-0.33253953125,-0.12712971435546874,1.020389560546875
-0.2202067578125,-0.0857094482421875,1.01989802734375
-0.14556138671875,0.036345537109375,1.13786599609375
-0.384086171875,-0.0553182470703125,1.1882481494140624
-0.40475345703125,-0.0175743359375,1.081339677734375
-0.268349375,-0.083258544921875,0.9031588916015625
-0.05657048828125,0.0691876416015625,0.8992266259765624
-0.17814275390625,-0.09183670654296874,0.8510563720703125
-0.212912421875,-0.0621807763671875,0.80558955078125
-0.11054857421875,-0.028113220214843748,0.791335087890625
-0.0782103515625,-0.00311400634765625,0.913235322265625
-0.09887763671875,0.0574233056640625,1.064627548828125
-0.13923962890625,-0.02272123291015625,1.2172486083984375
-0.21193984375,0.0280124658203125,1.4069804248046875
-0.29776986328125,0.00178780029296875,1.3873190966796876
-0.33642984375,-0.0553182470703125,1.2786902587890625
-0.19419029296875,0.04100225341796875,1.266156162109375
-0.29728357421875,-0.28619333984375,1.154086591796875
-0.2177753125,-0.35310300048828125,1.1204165673828126
-0.30871136718750003,-0.3964839892578125,1.100017939453125
-0.271267109375,-0.361681162109375,0.9402696484374999
-0.17473873046875,-0.314623818359375,0.69548611328125
-0.05559791015625,-0.19845100097656249,0.6178238671875
-0.007698437500000002,-0.10556176513671875,0.59324720703125
0.004458789062499999,-0.13007079833984375,0.7436563671875001
0.024396640625,-0.060710234375,0.99040603515625
-0.25108611328125,-0.0567887890625,1.3042499853515626
-0.52194912109375,-0.19330410400390624,1.292207421875
-0.40621232421875,-0.17712814208984376,1.1700614208984375
-0.40669861328125,-0.1141399267578125,1.0127707958984375
-0.3952708203125,-0.01144707763671875,0.9021758251953125
-0.2892598046875,0.07237381591796875,0.841471474609375
-0.15723232421875,0.07237381591796875,0.963371708984375
-0.2163164453125,0.04786478271484375,1.10837400390625
-0.2221519140625,-0.0710040283203125,1.0584833837890626
-0.11298001953125,0.03462990478515625,1.100017939453125
-0.1540714453125,0.0922261328125,1.1528577587890625
-0.0762651953125,0.02874773681640625,1.0265337255859375
-0.129270703125,-0.0210056005859375,1.170798720703125
-0.33521412109375,0.04100225341796875,1.3057245849609376
-0.43490337890624997,-0.11291447509765624,1.2000449462890626
-0.387976484375,-0.17467723876953126,0.952557978515625
-0.22628537109375,-0.0602200537109375,0.769707626953125
-0.1813036328125,-0.16144236083984376,0.603569404296875
-0.1599069140625,-0.08938580322265625,0.6200357666015625
-0.3028758984375,-0.15114856689453124,0.6726298193359375
-0.3476144921875,0.02286556884765625,0.7979707861328125
-0.30700935546875,0.0633054736328125,0.8839890966796875
-0.07018658203125,-0.0072805419921875,0.954032578125
0.0307183984375,0.0054641552734375,1.124594599609375
-0.13729447265625,0.0201695751953125,1.323174013671875
-0.220693046875,0.091245771484375,1.2929447216796874
-0.2333365625,-0.09673851318359375,1.0582376171875
-0.26421591796875,-0.1131595654296875,0.881777197265625
-0.2756437109375,-0.18301031005859375,0.701876044921875
-0.29631099609375,-0.13448242431640625,0.64436666015625
-0.21583015625000002,-0.09722869384765626,0.611433935546875
-0.18689595703125,-0.01879978759765625,0.7370206689453125
-0.33108066406250003,-0.0680629443359375,0.863098935546875
-0.1278118359375,-0.1082577587890625,0.981066904296875
-0.18859796875,-0.106787216796875,1.1602307568359376
-0.12076064453125,-0.02321141357421875,1.1980788134765625
-0.15869119140625,-0.1043363134765625,1.181612451171875
-0.2678630859375,-0.048945898437499996,1.0860092431640624
-0.30871136718750003,-0.0200252392578125,0.9599309765625
-0.20002576171875,-0.03203466552734375,0.8078014501953125
-0.2036729296875,0.01551285888671875,0.8812856640625
-0.24670951171875,0.1123235400390625,0.9587021435546875
-0.3524773828125,-0.01291761962890625,0.8987350927734374
-0.1871391015625,-0.0033590966796874996,0.9245405859375
-0.2211793359375,0.0005623486328125002,1.051847685546875
-0.25473328125,0.0025230712890624996,1.1887396826171874
-0.1307295703125,-0.16585398681640626,1.2870463232421876
0.052115117187500004,-0.16242272216796874,1.3671662353515626
0.0287732421875,-0.2621744873046875,1.377242666015625
-0.06143337890625,-0.36682805908203125,1.3013007861328125
-0.36487775390625,-0.3013889404296875,1.0543053515625
-0.3933256640625,-0.2717330102539062,0.8913620947265625
-0.40183572265625,-0.2643803002929688,0.8181236474609375
-0.30117388671875,-0.2847227978515625,0.6893419482421875
-0.0383346484375,-0.01585870361328125,0.7645465283203124
-0.13632189453125,0.0309535498046875,0.6824604833984375
-0.27151025390625,-0.0011532836914062497,0.6441208935546875
-0.18495080078125,-0.06830803466796875,0.719571240234375
-0.13875333984375,-0.1268846240234375,0.860149736328125
-0.1569891796875,-0.03522083984375,1.0874838427734375
-0.1560166015625,-0.09526797119140624,1.2044687451171874
-0.2800203125,-0.07370002197265625,1.2752495263671875
-0.378250703125,-0.0857094482421875,1.0978060400390626
-0.31868029296875,-0.03301502685546875,0.85867513671875
-0.271267109375,0.0103659619140625,0.8891501953125
-0.27248283203125,-0.01169216796875,0.88620099609375
-0.1579617578125,-0.08840544189453126,0.9272440185546875
-0.0694571484375,-0.0680629443359375,0.993355234375
-0.263486484375,-0.06659240234375,1.094119541015625
-0.16598552734375,-0.07051384765625,1.217985908203125
-0.1949197265625,0.03928662109375,1.3047415185546876
-0.23406599609375,0.0064445166015625,1.17915478515625
-0.2834243359375,0.02923791748046875,1.019406494140625
-0.0431975390625,-0.0016434643554687498,0.896523193359375
-0.277102578125,0.05815857666015625,0.9277355517578125
-0.34421046875,-0.03914228515625,0.9537868115234375
-0.38432931640625,-0.0881603515625,0.914709921875
-0.11006228515625,-0.01732924560546875,0.907336923828125
-0.22044990234375,-0.12418863037109375,0.867031201171875
-0.221665625,-0.06144550537109375,0.890624794921875
-0.10106593750000001,-0.03154448486328125,0.8564632373046875
-0.24184662109375,0.030708459472656248,1.0343982568359376
-0.22239505859375,-0.06879821533203125,1.111814736328125
-0.29193439453125003,-0.00948635498046875,1.237155703125
-0.209022109375,-0.05801424072265625,1.2015195458984376
-0.26251390625,-0.15359947021484374,1.1302472314453125
-0.29096181640625,-0.10850284912109374,0.8397511083984375
-0.18470765625,-0.23349891845703125,0.6704179199218749
-0.05243703125,-0.20776443359375,0.7394783349609375
-0.18786853515625002,-0.05090662109375,1.022355693359375
-0.411318359375,-0.029338671875,1.174730986328125
-0.36098744140625,-0.0651218603515625,1.223884306640625
-0.34104958984375,0.07972652587890625,1.2487067333984374
-0.38530189453125,0.12629368896484375,1.12410306640625
-0.2250696484375,-0.1229631787109375,1.0142453955078126
-0.0006472460937500014,-0.14624676025390626,0.9407611816406249
-0.0626491015625,-0.16340308349609375,0.9638632421875
-0.12756869140625,-0.12369844970703125,0.9754142724609375
-0.3262177734375,-0.15752091552734376,0.9488714794921875
-0.2318776953125,-0.07615092529296875,1.0130165625
-0.29242068359375,-0.08693489990234375,1.1135351025390625
-0.31333111328125,-0.044534272460937496,1.2098756103515624
-0.337402421875,-0.0847290869140625,1.17522251953125
-0.30652306640625,-0.01978014892578125,1.0520934521484375
-0.24233291015625,-0.20555862060546876,0.805098017578125
-0.158448046875,-0.19967645263671874,0.67582478515625
-0.066053125,-0.149923115234375,0.6377309619140625
-0.053409609375,-0.20016663330078124,0.668451787109375
-0.08428896484375001,-0.23521455078125,0.746114033203125
-0.18835482421875,-0.2651155712890625,0.8419630078125
-0.30919765625,-0.13791368896484374,0.7743771923828124
-0.14969484375,-0.02468195556640625,0.801165751953125
-0.18835482421875,0.040266982421875,0.8097675830078125
-0.2756437109375,0.10815700439453126,0.802148818359375
-0.11541146484375,0.09443194580078125,0.8458952734375
-0.1161408984375,0.099088662109375,1.02579642578125
-0.22361078125,0.02972809814453125,1.1504000927734375
-0.2853694921875,-0.0028689160156250004,1.2644357958984376
-0.38627447265625,0.14099910888671874,1.3199790478515625
-0.419098984375,0.14418528320312501,1.25780009765625
-0.325731484375,0.10423555908203125,1.173747919921875
-0.20732009765625,0.026541923828125,1.0476696533203125
-0.1433730859375,0.14295983154296876,0.9070911572265625
-0.13340416015625,0.0378160791015625,0.852285205078125
-0.12246265625,-0.057278969726562504,0.79182662109375
-0.011345605468749999,-0.079337099609375,0.7947758203124999
-0.0052669921875,-0.1587463671875,0.93535431640625
-0.1229489453125,-0.2820268041992188,1.1774344189453125
-0.24427806640625,-0.4040817895507812,1.10837400390625
-0.25594900390624997,-0.37172986572265626,0.8481071728515625
-0.304334765625,-0.3102121923828125,0.71514744140625
-0.26664736328125,-0.2580079516601563,0.5772723779296876
-0.2668905078125,-0.006790361328125,0.6256883984375
-0.14361623046875,0.1152646240234375,0.710723642578125
-0.05413904296875,-0.00997653564453125,0.72497810546875
0.0394716015625,-0.03129939453125,0.9183964208984375
0.03704015625,0.017718671875,1.095102607421875
-0.07359060546875,0.019679394531249998,1.431311318359375
-0.49471693359375,-0.193059013671875,1.5691863818359375
-0.3033621875,-0.19085320068359374,1.4327859179687499
-0.4079143359375,-0.14330567626953125,1.3725731005859374
-0.39989056640625,-0.05017135009765625,1.2550966650390625
-0.4001337109375,-0.15678564453125,1.115747001953125
-0.4108320703125,-0.14502130859375,1.0162115283203126
-0.2688356640625,-0.122472998046875,0.876861865234375
-0.07845349609375,-0.098944326171875,0.6868842822265625
0.010294257812499999,-0.03522083984375,0.7539785644531249
-0.13607875,0.036345537109375,0.9400238818359374
-0.25838044921875,-0.0121823486328125,1.0771616455078126
-0.27734572265625,-0.0425735498046875,1.3253859130859376
-0.1929745703125,0.10668646240234375,1.4241840869140625
-0.07966921874999999,-0.0543378857421875,1.2671392285156249
-0.08331638671875,0.0201695751953125,1.2919616552734374
-0.3378887109375,0.07629526123046874,1.387073330078125
-0.3563676953125,-0.03056412353515625,1.4364724169921874
-0.5756840625,-0.12271808837890624,1.38363259765625
-0.6306347265625,-0.10605194580078126,1.218968974609375
-0.648627421875,-0.15016820556640625,1.0211268603515624
-0.4477900390625,-0.2670762939453125,0.65911265625
-0.13340416015625,-0.18448085205078124,0.474296171875
0.001784199218750001,-0.11928682373046876,0.4352192822265625
0.025612363281249998,-0.1562954638671875,0.564246748046875
0.045793359374999995,-0.17639287109375001,0.9284728515625
0.004458789062499999,-0.306780927734375,1.1567900244140625
-0.1871391015625,-0.391092001953125,1.2332234375
-0.24768208984375,-0.15899145751953125,1.1093570703125
-0.17279357421875,-0.07713128662109375,1.089204208984375
-0.1968648828125,-0.076396015625,1.026287958984375
-0.3028758984375,-0.051886982421875,0.9080742236328125
-0.32500205078125,-0.0602200537109375,0.847369873046875
-0.249870390625,-0.15408965087890625,0.6755790185546875
-0.22579908203125,-0.1229631787109375,0.5706366796875
-0.16404037109375,-0.0768861962890625,0.3816421630859375
-0.022530253906250002,-0.068553125,0.25728426269531246
0.056978007812499995,-0.044044091796875,0.319463212890625
0.054303417968750003,-0.02223105224609375,0.6190527001953126
0.1552083984375,0.0466393310546875,1.1835785839843749
0.25125048828125,0.2348687060546875,2.0875081445312498
-0.04854671875,0.6321601342773437,2.129718558349609
-0.2878009375,0.6015238427734375,2.129718558349609
-0.7079546875,0.248103583984375,1.680027119140625
-0.59926908203125,0.14050892822265626,1.248460966796875
-0.59148845703125,-0.049926259765625,0.9016842919921875
-0.41691068359375,-0.12933552734375,0.3437941064453125
-0.2878009375,-0.2455083447265625,0.0985190380859375
-0.05365275390625,-0.12663953369140624,0.08106960937499999
0.011023691406250001,-0.09012107421875,0.03289935546874999
-0.006239570312500001,-0.08742508056640624,0.301276484375
0.01685916015625,-0.1116890234375,0.651739658203125
0.088586796875,-0.2876638818359375,1.332021611328125
-0.3223274609375,-0.7246599438476562,2.129718558349609
-0.4711319140625,-0.7592176806640625,1.9137511572265624
-0.17376615234375,-0.5379011108398437,1.5534573193359376
0.14402375,-0.245998525390625,1.1051790380859374
-0.05219388671875,0.055952763671875,0.685163916015625
-0.19078626953125,0.03536517578125,0.41236298828125
-0.162338359375,-0.04575972412109375,0.3838540625
-0.14118478515625,-0.01953505859375,0.163155654296875
-0.210967265625,0.03659062744140625,0.4873218017578125
-0.28366748046875,0.14492055419921876,0.837539208984375
-0.31138595703125,0.28952385009765624,1.3371827099609375
-0.41545181640625,0.25128975830078126,1.6178481689453126
-0.63574076171875,0.18438009765625,1.7731726611328125
-0.5294866015625,-0.0210056005859375,1.4993886669921874
-0.46602587890625,-0.0690433056640625,1.1970957470703125
-0.43393080078125,0.12188206298828125,0.9660751416015625
-0.1686601171875,0.20570295654296875,0.8456495068359375
0.03387927734375,-0.01561361328125,0.996795966796875
-0.166228671875,-0.04428918212890625,1.2351895703125
-0.20026890625,-0.14624676025390626,1.1228742333984374
0.0156434375,-0.17712814208984376,1.0471781201171875
-0.04392697265625,-0.1494329345703125,0.98254150390625
0.0025136328124999996,-0.151883837890625,0.955507177734375
-0.02787943359375,-0.240116357421875,1.1071451708984374
-0.27296912109375,-0.233253828125,1.197833046875
-0.3874901953125,-0.2180582275390625,1.154578125
-0.41593810546875,-0.13325697265625,1.0778989453125
-0.47866939453125,-0.15997181884765624,1.088221142578125
-0.36098744140625,-0.14036459228515624,1.0425085546875
-0.38481560546875,-0.1621776318359375,0.9965502001953125
-0.358799140625,-0.12614935302734376,0.8913620947265625
-0.31697828125,-0.21389169189453125,0.76921609375
-0.044170117187499996,-0.19722554931640626,0.8377849755859375
-0.005753281249999999,-0.08007237060546875,0.943710380859375
-0.12465095703125,-0.09477779052734375,1.0889584423828125
-0.2552195703125,-0.06659240234375,1.0174403613281249
-0.28853037109375,-0.02860340087890625,0.8402426416015625
-0.129270703125,0.1623219677734375,0.8839890966796875
-0.199296328125,0.15766525146484375,0.9405154150390624
-0.30457791015625,0.00178780029296875,0.8677685009765626
-0.3339983984375,-0.07419020263671874,0.747097099609375
-0.267376796875,-0.175412509765625,0.6529684912109375
-0.15236943359375,-0.1665892578125,0.534754755859375
-0.12246265625,-0.128355166015625,0.459058642578125
-0.18835482421875,-0.14722712158203125,0.3845913623046875
-0.209022109375,-0.1357078759765625,0.34059914062499996
-0.17862904296875,-0.17418705810546875,0.38213369628906246
0.05187197265625,-0.09967959716796874,0.6436293603515625
0.193625234375,-0.05213207275390625,0.9965502001953125
0.27021576171875,0.19295825927734375,1.7274600732421874
0.11314439453125,-0.0567887890625,1.97543857421875
-0.38432931640625,0.03659062744140625,1.5608303173828124
-0.366579765625,-0.076396015625,1.231748837890625
-0.27102396484375,-0.01193725830078125,1.4040312255859375
0.0774021484375,0.42677443603515625,1.866318203125
-0.09912078125,-0.0023787353515625003,1.96560791015625
-0.3126016796875,-0.30359475341796877,1.201273779296875
-0.30141703125,-0.27369373291015625,0.80558955078125
-0.24622322265625,-0.2180582275390625,0.38262522949218747
-0.18300564453125,-0.1857063037109375,0.2587588623046875
-0.13243158203125,-0.195019736328125,0.3496925048828125
-0.1268392578125,-0.33839758056640623,0.8102591162109375
-0.30992708984375,-0.130315888671875,1.1683410546875
-0.5000661132812501,0.10276501708984374,1.378225732421875
-0.333512109375,0.17237067138671874,1.1823497509765626
-0.16890326171875,0.12384278564453124,1.178663251953125
-0.4059691796875,0.04541387939453125,1.241579501953125
-0.50760359375,-0.057769150390625,1.1499085595703125
-0.56911916015625,-0.011201987304687501,1.2668934619140626
-0.621395234375,-0.0631611376953125,1.1602307568359376
-0.52632572265625,-0.1935491943359375,0.8520394384765625
-0.11638404296875,0.0358553564453125,0.7301392041015625
-0.08428896484375001,0.07825598388671876,0.7227662060546876
-0.040279804687500004,-0.02909358154296875,0.6446124267578125
-0.1842213671875,-0.16536380615234375,0.937811982421875
-0.312115390625,-0.21536223388671874,1.14671359375
-0.1881116796875,-0.236194912109375,1.1287726318359375
-0.08331638671875,-0.2474690673828125,1.20471451171875
-0.02885201171875,-0.2543315966796875,1.12017080078125
-0.15625974609374998,-0.22957747314453125,1.030220224609375
-0.2843969140625,-0.1759026904296875,1.0653648486328124
-0.338375,-0.11046357177734376,1.1445016943359374
-0.41204779296875,-0.1121792041015625,1.092153408203125
-0.28609892578125,-0.037916833496093746,1.02776255859375
-0.23212083984375,-0.0719843896484375,0.98647376953125
-0.18446451171875,-0.01291761962890625,1.00416896484375
-0.17862904296875,-0.0710040283203125,1.0535680517578125
-0.14945169921875,-0.11364974609375,1.133442197265625
-0.19467658203125,-0.15801109619140624,1.1346710302734375
-0.16209521484375,-0.10948321044921874,1.053813818359375
-0.23163455078125,-0.134237333984375,0.93928658203125
-0.29679728515625,-0.092081796875,0.8970147265625
-0.28269490234375,-0.02174087158203125,0.912252255859375
-0.32889236328125,-0.0033590966796874996,0.8987350927734374
-0.23649744140625,-0.17124597412109374,0.89504859375
-0.29169125,-0.1719812451171875,1.09952640625
-0.22288134765625,-0.11634573974609375,1.1646545556640624
-0.29363640625,-0.122472998046875,1.1794005517578126
-0.29290697265625,-0.0641414990234375,1.14179826171875
-0.35101851562499997,0.00521906494140625,1.0545511181640626
-0.30117388671875,0.0231106591796875,0.886692529296875
-0.226528515625,0.00325834228515625,0.8058353173828126
-0.02933830078125,0.03904153076171875,0.70728291015625
-0.038577792968749997,0.004973974609375,0.626179931640625
-0.10908970703125,-0.04919098876953125,0.632078330078125
-0.16063634765625,-0.10948321044921874,0.7458682666015625
-0.22336763671875,-0.122472998046875,0.9921264013671875
-0.39210994140625,-0.159726728515625,1.257308564453125
-0.50444271484375,-0.10164031982421876,1.27549529296875
-0.477453671875,-0.01046671630859375,1.0599579833984376
-0.354908828125,-0.06487677001953125,0.8340984765625
-0.26664736328125,-0.10115013916015625,0.72891037109375
-0.23892888671875,-0.0415931884765625,0.6976980126953125
-0.15480087890625,-0.068553125,0.6038151708984375
-0.08769298828125,-0.028113220214843748,0.5413904541015625
-0.0067258593750000005,-0.00458454833984375,0.52836482421875
0.02147890625,0.00276816162109375,0.5595771826171875
0.02074947265625,-0.0190448779296875,0.7473428662109375
-0.06483740234375,-0.16830489013671876,0.9306847509765624
-0.04854671875,-0.1822750390625,1.09657720703125
-0.002106113281250002,-0.1788437744140625,1.23617263671875
-0.242089765625,-0.27369373291015625,1.2113502099609375
-0.38043900390625,-0.22467566650390625,0.961897109375
-0.31965287109375,-0.19673536865234376,0.775606025390625
-0.30506419921875,-0.18791211669921876,0.811979482421875
-0.29533841796875,-0.02517213623046875,1.0810939111328124
-0.22288134765625,0.04443351806640625,1.155069658203125
-0.16160892578125,0.128499501953125,1.2300284716796874
-0.20488865234375,0.21207530517578124,1.15359505859375
-0.04830357421875,0.0711483642578125,0.9886856689453125
-0.11638404296875,-0.06879821533203125,0.977134638671875
-0.30506419921875,-0.0023787353515625003,1.0339067236328126
-0.29047552734375,-0.068553125,1.011541962890625
-0.3904079296875,-0.02737794921875,1.10640787109375
-0.40378087890625003,0.0255615625,1.06315294921875
-0.36050115234375,0.0436982470703125,0.99433830078125
-0.3738741015625,0.08021670654296875,0.885709462890625
-0.30846822265625,0.14197947021484375,0.8220559130859375
-0.20464550781250002,0.18854663330078125,0.8775991650390624
-0.10665826171875001,0.1584005224609375,1.001711298828125
-0.13340416015625,-0.0006631030273437505,1.2732833935546874
-0.20804953125,-0.09012107421875,1.4399131494140625
-0.16185207031249998,-0.161687451171875,1.36200513671875
-0.21947732421875,-0.18815720703125,1.1155012353515625
-0.2552195703125,-0.08963089355468751,0.9867195361328125
-0.2931501171875,-0.1038461328125,0.9206083203125
-0.32013916015625,-0.14869766357421876,0.994829833984375
-0.27515742187500003,-0.20016663330078124,1.0653648486328124
-0.28415376953125,-0.13007079833984375,1.1408151953125
-0.30117388671875,-0.2259011181640625,1.0879753759765625
-0.3553951171875,-0.1259042626953125,0.988931435546875
-0.19370400390625,-0.20310771728515625,0.834590009765625
-0.12902755859375,-0.09796396484375,0.8879213623046875
-0.18008791015625,-0.051886982421875,1.0334151904296875
-0.1385101953125,-0.0876701708984375,1.2536220654296875
-0.290718671875,-0.07958218994140626,1.440158916015625
-0.3476144921875,0.011346323242187501,1.2973685205078125
-0.33472783203125,0.032424091796875,1.048406953125
-0.31381740234375,-0.0161037939453125,0.8952943603515625
-0.3271903515625,0.01796376220703125,0.92945591796875
-0.222638203125,-0.1523740185546875,0.8923451611328125
-0.2805066015625,-0.0768861962890625,0.9100403564453124
-0.26567478515625,-0.01487834228515625,0.8751414990234375
-0.17279357421875,-0.1288453466796875,0.934862783203125
-0.16914640625,-0.157766005859375,1.1356540966796875
-0.24719580078125,-0.14673694091796874,1.2863090234375
-0.27296912109375,-0.04306373046875,1.3022838525390625
-0.298499296875,-0.07566074462890625,1.175714052734375
-0.35758341796875,-0.09012107421875,1.11623853515625
-0.4156949609375,-0.1229631787109375,0.926998251953125
-0.29485212890625,-0.093062158203125,0.902421591796875
-0.14361623046875,-0.13301188232421876,0.8004284521484375
-0.1044699609375,-0.13595296630859374,0.7168678076171875
-0.14847912109375,-0.19207865234375,0.636993662109375
-0.18470765625,-0.2298225634765625,0.5939845068359375
-0.25254498046875,-0.218548408203125,0.510178095703125
-0.23406599609375,-0.2190385888671875,0.446278779296875
-0.1827625,-0.2327636474609375,0.39319319335937497
-0.08866556640625001,-0.23521455078125,0.406956123046875
-0.037848359375,-0.255802138671875,0.602586337890625
-0.21704587890625,-0.13252170166015625,0.7473428662109375
-0.23747001953125,-0.12663953369140624,0.9154472216796875
-0.18495080078125,-0.06046514404296875,1.1277895654296874
-0.222638203125,0.05889384765625,1.3067076513671876
-0.2736985546875,0.14099910888671874,1.3337419775390624
-0.20342978515625,0.1525183544921875,1.11034013671875
-0.18008791015625,0.161831787109375,1.0260421923828125
-0.17133470703125,0.0907555908203125,0.9459222802734375
-0.228473671875,0.0069346972656249995,1.0211268603515624
-0.360744296875,0.0848734228515625,1.0486527197265625
-0.43830740234375,0.06796218994140625,1.03661015625
-0.35466568359375,0.15864561279296874,1.08478041015625
-0.3111428125,0.16011615478515626,1.1715360205078125
-0.26154132812499997,-0.024436865234375,1.164900322265625
-0.107873984375,-0.07835673828125,1.1852989501953124
-0.1278118359375,-0.1141399267578125,1.212087509765625
-0.14021220703125,-0.15310928955078124,1.190460048828125
-0.245980078125,-0.255802138671875,1.2629611962890626
-0.374360390625,-0.136198056640625,1.26959689453125
-0.40669861328125,-0.12369844970703125,1.2285538720703124
-0.38287044921875,-0.05213207275390625,1.119679267578125
-0.33642984375,-0.106787216796875,0.9513291455078126
-0.25983931640625,-0.25114542236328125,0.785436689453125
-0.11200744140625,-0.25016506103515623,0.757419296875
-0.10811712890625,-0.2190385888671875,0.806081083984375
-0.19637859375,-0.21438187255859376,0.79969115234375
-0.22531279296875,-0.24036144775390625,0.8368019091796874
-0.174981875,-0.26781156494140623,0.9587021435546875
-0.2912049609375,-0.30604565673828127,1.1010010058593749
-0.39016478515624997,-0.23791054443359375,1.1744852197265625
-0.32475890625,-0.08963089355468751,1.2133163427734375
-0.36536404296875,0.00816014892578125,1.111814736328125
-0.3933256640625,-0.04134809814453125,1.0127707958984375
-0.29242068359375,-0.07860182861328124,0.7989538525390625
-0.251815546875,-0.02762303955078125,0.749554765625
-0.23309341796875,0.026051743164062502,0.7837163232421875
-0.28658521484375,0.07286399658203124,1.004660498046875
-0.3408064453125,0.09982393310546875,1.2241300732421876
-0.37922328125,0.08609887451171874,1.35119140625
-0.339347578125,0.14050892822265626,1.4482692138671875
-0.44292714843750003,0.028257556152343752,1.3175213818359375
-0.42469130859375,0.1289896826171875,1.2482152001953124
-0.35904228515625003,0.1314405859375,1.1794005517578126
-0.423961875,-0.02419177490234375,1.2595204638671875
-0.44851947265625003,0.02433611083984375,1.291715888671875
-0.25059982421875,-0.0239466845703125,1.05528841796875
-0.18981369140625,-0.0592396923828125,0.90193005859375
-0.16720125,-0.1278649853515625,0.8323781103515625
-0.28853037109375,-0.18153976806640626,0.728418837890625
-0.370470078125,-0.18644157470703124,0.6264256982421875
-0.34542619140624997,-0.21781313720703124,0.5723570458984375
-0.18738224609375,-0.2857031591796875,0.537212421875
-0.055354765624999996,-0.214626962890625,0.701876044921875
-0.13826705078125,-0.09673851318359375,0.8299204443359375
-0.21801845703125,-0.03644629150390625,0.9778719384765625
-0.417153828125,0.01575794921875,1.1164843017578125
-0.4526529296875,0.11943115966796874,1.24403716796875
-0.3330258203125,0.14541073486328124,1.220935107421875
-0.20488865234375,0.17874302001953124,1.1368829296875
-0.203186640625,0.1706550390625,1.06118681640625
-0.27151025390625,0.022620478515625,0.9223286865234375
-0.27880458984375,-0.063651318359375,0.7908435546875
-0.30214646484375,-0.049926259765625,0.63453599609375
-0.253760703125,-0.03154448486328125,0.513618828125
-0.1579617578125,-0.01389798095703125,0.49100830078125
-0.22920310546875,-0.0210056005859375,0.56375521484375
-0.3135742578125,-0.044044091796875,0.6244595654296875
-0.30871136718750003,-0.011201987304687501,0.6627991552734375
-0.2523018359375,0.0819323388671875,0.733825703125
-0.30360533203125,0.13854820556640626,0.8112421826171875
-0.31916658203125,0.1495772705078125,0.9464138134765625
-0.39794541015625,0.1392834765625,1.0530765185546875
-0.44365658203125,0.08903995849609375,1.05528841796875
-0.263486484375,0.05962911865234375,0.8984893261718749
-0.21607330078125,0.06257020263671875,0.79379275390625
-0.18397822265625,-0.037916833496093746,0.776589091796875
-0.18495080078125,-0.08252327392578125,0.9206083203125
-0.4040240234375,-0.0886505322265625,1.02088109375
-0.517329375,-0.1553151025390625,0.9488714794921875
-0.3699837890625,-0.146001669921875,0.776589091796875
-0.2571647265625,-0.042328459472656246,0.7694618603515625
-0.23649744140625,-0.0925719775390625,0.788877421875
-0.206104375,-0.14502130859375,0.9009469921875
-0.2007551953125,-0.15801109619140624,1.0525849853515625
-0.3145468359375,-0.1366882373046875,1.2305200048828124
-0.45532751953125,-0.140119501953125,1.2565712646484375
-0.389921640625,-0.0582593310546875,1.080356611328125
-0.3563676953125,0.0255615625,0.97664310546875
-0.29193439453125003,0.04247279541015625,0.97369390625
-0.32111173828125,0.0486000537109375,1.0417712548828124
-0.36244630859375,-0.004829638671875,1.085271943359375
-0.329621796875,-0.0298288525390625,1.1813666845703126
-0.4020788671875,-0.06046514404296875,1.1980788134765625
-0.3729015234375,-0.091101435546875,1.1705529541015625
-0.2824517578125,-0.0881603515625,1.12410306640625
-0.3797095703125,-0.10188541015625,1.0688055810546875
-0.40669861328125,-0.0249270458984375,1.0801108447265624
-0.4312562109375,-0.10605194580078126,1.034152490234375
-0.4088869140625,-0.179333955078125,1.02088109375
-0.4380642578125,-0.0955130615234375,1.0181776611328126
-0.405482890625,-0.107767578125,0.887675595703125
-0.3991611328125,-0.1239435400390625,0.722520439453125
-0.337402421875,-0.17271651611328126,0.62273919921875
-0.203186640625,-0.20653898193359374,0.5364751220703124
-0.16185207031249998,-0.240116357421875,0.64043439453125
-0.3233000390625,-0.1347275146484375,0.8242678125
-0.366579765625,-0.1239435400390625,0.9321593505859375
-0.34202216796875,-0.1896277490234375,1.0184234277343749
-0.37338781249999997,-0.13007079833984375,1.158018857421875
-0.43004048828125,-0.0670825830078125,1.2705799609375
-0.40694175781249997,-0.079337099609375,1.3509456396484376
-0.38335673828125,0.061834931640625,1.41509072265625
-0.44754689453125,0.091245771484375,1.2919616552734374
-0.36779548828124997,0.07188363525390624,1.084288876953125
-0.37144265625,0.09247122314453125,1.067576748046875
