ax,ay,az
-0.2756437109375,-0.11364974609375,0.8019030517578125
-0.26081189453125,-0.0317895751953125,0.9203625537109374
-0.21996361328125,0.05472731201171875,1.01596576171875
-0.271267109375,-0.00409436767578125,1.0786362451171876
-0.36682291015625,0.02041466552734375,0.991880634765625
-0.33424154296874997,-0.0435539111328125,0.92650671875
-0.32451576171875,0.0525214990234375,0.9402696484374999
-0.298499296875,-0.0013983740234375002,0.947642646484375
-0.29825615234375,-0.05262225341796875,0.9793465380859375
-0.290718671875,0.0044837939453125,1.0211268603515624
-0.2523018359375,-0.06732767333984375,0.9714820068359376
-0.40937320312500003,-0.08105273193359375,0.931913583984375
-0.27005138671875,-0.02125069091796875,0.942727314453125
-0.28974609375,-0.10507158447265624,0.8746499658203125
-0.31308796875,-0.03742665283203125,0.9744312060546875
-0.279047734375,-0.02615249755859375,0.9749227392578125
-0.33861814453125,-0.14869766357421876,0.9749227392578125
-0.29387955078125,0.0535018603515625,0.989914501953125
-0.43733482421875003,-0.08252327392578125,0.930930517578125
-0.29144810546875,0.019679394531249998,0.9405154150390624
-0.27272597656249997,0.0172284912109375,0.977134638671875
-0.37508982421875,0.04443351806640625,1.0658563818359374
-0.294608984375,0.004973974609375,1.0609410498046874
-0.4254207421875,-0.06487677001953125,0.9326508837890625
-0.25059982421875,0.0338946337890625,1.016457294921875
-0.36925435546875,-0.12271808837890624,0.8987350927734374
-0.34104958984375,-0.0994345068359375,0.8707177001953125
-0.36244630859375,-0.09281706787109376,0.7672499609375
-0.2878009375,-0.03938737548828125,0.8087845166015625
-0.36439146484375,-0.0366913818359375,0.8567090039062499
-0.310170234375,0.069677822265625,0.95894791015625
-0.36050115234375,0.1250682373046875,0.958456376953125
-0.2785614453125,0.050070595703125,1.003677431640625
-0.341292734375,0.04835496337890625,0.9793465380859375
-0.39891798828125,-0.0033590966796874996,0.9424815478515625
-0.27442798828125,0.0584036669921875,0.902913125
-0.38724705078125,-0.09379742919921875,0.89406552734375
-0.3048210546875,0.04100225341796875,1.091661875
-0.397702265625,-0.09575815185546875,1.1258234326171874
-0.376305546875,-0.0239466845703125,1.1408151953125
-0.3359435546875,-0.1116890234375,1.112797802734375
-0.37800755859375,-0.060710234375,1.0700344140625
-0.3855450390625,-0.06928839599609375,0.8707177001953125
-0.2177753125,-0.10286577148437501,0.7552073974609375
-0.1633109375,-0.0332601171875,0.8087845166015625
-0.34542619140624997,-0.1430605859375,0.98647376953125
-0.30627992187499997,-0.11561046875,1.124594599609375
-0.30409162109375,-0.051886982421875,1.0857634765625
-0.38724705078125,-0.077376376953125,0.9815584374999999
-0.3889490625,-0.042328459472656246,0.9813126708984374
-0.4458448828125,-0.27026246826171874,0.850319072265625
-0.2980130078125,-0.20727425292968749,0.7908435546875
-0.2416034765625,-0.17271651611328126,0.635027529296875
-0.20294349609375,-0.2464887060546875,0.6532142578125
-0.13413359375,-0.12712971435546874,0.7443936669921875
-0.209022109375,-0.09771887451171875,0.900455458984375
-0.34032015625,-0.03644629150390625,1.159984990234375
-0.4730770703125,-0.02370159423828125,1.271071494140625
-0.49812095703125,0.048109873046875,1.13393373046875
-0.4049966015625,0.07457962890625,0.902913125
-0.22239505859375,0.126538779296875,0.9331424169921875
-0.3388612890625,-0.011201987304687501,0.9542783447265625
-0.20415921875,-0.0016434643554687498,1.02088109375
-0.25205869140625,-0.00948635498046875,0.9277355517578125
-0.3291355078125,-0.020515419921875,0.8628531689453125
-0.36098744140625,-0.03840701416015625,0.8923451611328125
-0.40815748046875,-0.15801109619140624,0.8407341748046875
-0.35709712890625,-0.120512275390625,0.7964961865234375
-0.3495596484375,-0.15065838623046876,0.7443936669921875
-0.22434021484375,-0.15065838623046876,0.656654990234375
-0.146777109375,-0.19403937500000001,0.60897626953125
-0.07164544921875,-0.120512275390625,0.5654755810546875
-0.090367578125,-0.1680597998046875,0.5271359912109375
-0.12756869140625,-0.2200189501953125,0.6087305029296874
-0.26859251953125,-0.12712971435546874,0.786419755859375
-0.1890842578125,-0.02321141357421875,1.087729609375
-0.12635296875,0.2682009912109375,1.5259314599609375
-0.24573693359375,0.4662339794921875,1.855996005859375
-0.34226531250000003,0.5375552661132813,1.9958372021484374
-0.548451875,0.38608944091796876,1.7092733447265624
-0.5372672265625,0.35030625244140623,1.3017923193359375
-0.57057802734375,0.16501796142578126,0.890624794921875
-0.20294349609375,-0.05899460205078125,0.61880693359375
-0.1093328515625,-0.19134338134765624,0.43005818359375
-0.13340416015625,-0.1822750390625,0.4185071533203125
-0.10130908203125,-0.18423576171875,0.6256883984375
-0.16306779296875,-0.3158492700195312,1.06806828125
-0.4234755859375,-0.473442353515625,1.40526005859375
-0.60559083984375,-0.465599462890625,1.4475319140625
-0.66540439453125,-0.1131595654296875,1.333004677734375
-0.5212196875,0.11599989501953126,1.085271943359375
-0.158448046875,0.06551128662109375,0.832623876953125
0.03314984375,-0.04306373046875,0.8557259375
0.00956482421875,0.03536517578125,1.0157199951171876
-0.09085386718749999,-0.00409436767578125,1.062661416015625
-0.36390517578125,-0.124433720703125,1.17915478515625
-0.53216119140625,0.1000690234375,1.15752732421875
-0.33253953125,0.2074185888671875,1.0737209130859375
-0.23114826171875,-0.3719749560546875,1.01006736328125
-0.12756869140625,-0.38545492431640627,0.9793465380859375
-0.25157240234375,-0.3749160400390625,0.86064126953125
-0.286828359375,-0.3758964013671875,0.650756591796875
-0.3164919921875,-0.363641884765625,0.5045254638671874
-0.34737134765625,-0.33300559326171875,0.36910806640625
-0.35515197265625,-0.3398681225585938,0.337158408203125
-0.1871391015625,-0.03399538818359375,0.7593854296875
-0.23163455078125,0.2064382275390625,1.0638902490234374
-0.29387955078125,0.3277579418945312,1.277952958984375
-0.26056875,0.357904052734375,1.5229822607421875
-0.37557611328125,0.3228561352539063,1.252884765625
-0.46870046875,0.284376953125,1.0697886474609375
-0.5450478515625,0.2593777392578125,1.16342572265625
-0.5265688671875,0.2034971435546875,0.969761640625
-0.4900971875,0.226535634765625,0.832623876953125
-0.31235853515625,0.26207373291015623,0.8264797119140626
-0.19613544921875,0.13903838623046874,0.8535140380859375
-0.2124261328125,-0.091101435546875,0.7928096875
-0.298499296875,-0.15457983154296875,0.7099863427734375
-0.279047734375,0.0466393310546875,0.5148476611328126
-0.3388612890625,0.028257556152343752,0.25802156249999997
-0.25254498046875,-0.02149578125,0.2105886083984375
-0.16841697265625,-0.02737794921875,0.2248430712890625
-0.07869664062500001,0.026296833496093748,0.3634554345703125
-0.127325546875,0.13070531494140625,0.6736128857421875
-0.15042427734375,0.23364325439453126,1.2177401416015625
-0.0587587890625,0.3044743603515625,1.8916321630859374
-0.44171142578125,0.2142811181640625,2.129718558349609
-0.56328369140625,0.0427178857421875,2.122407001953125
-0.51222333984375,0.08511851318359374,1.3649543359375
-0.50249755859375,-0.02860340087890625,0.83213234375
-0.3339983984375,-0.075415654296875,0.6704179199218749
-0.1929745703125,-0.11830646240234374,0.4720842724609375
0.005431367187500001,-0.1602169091796875,0.5212375927734375
-0.11589775390625,-0.1366882373046875,0.5374581884765625
-0.4701593359375,-0.10997339111328125,0.4642197412109375
-0.473563359375,-0.16830489013671876,0.541636220703125
-0.1866528125,-0.02958376220703125,0.809030283203125
-0.16258150390625,0.10031411376953125,1.4163195556640624
-0.53848294921875,0.3387870068359375,1.8798353662109375
-0.73688888671875,0.38412871826171874,1.8063511523437499
-0.2892598046875,0.03512008544921875,1.2300284716796874
-0.27248283203125,0.00816014892578125,0.7866655224609375
-0.3894353515625,0.07065818359375,0.5568737500000001
-0.19419029296875,-0.1665892578125,0.5207460595703125
-0.1676875390625,-0.22369530517578126,0.402040791015625
-0.3281629296875,-0.12663953369140624,0.3437941064453125
-0.1064151171875,-0.11364974609375,0.31553094726562503
-0.031769746093749995,-0.13203152099609375,0.495432099609375
0.0890730859375,-0.08644471923828125,0.8643277685546875
0.08639849609375,-0.30065366943359373,1.4163195556640624
-0.2620276171875,-0.5947620678710938,2.1241273681640624
-0.69506802734375,-0.42466937744140626,1.966099443359375
-0.81226369140625,0.06551128662109375,1.5795085791015624
-0.16647181640625,-0.3798178466796875,1.3126060498046874
-0.003808124999999999,-0.134237333984375,1.93611591796875
-0.5606091015625,0.399079228515625,1.2162655419921875
-0.36244630859375,0.13756784423828125,0.5703909130859375
-0.282938046875,0.09051050048828126,0.22287693847656248
-0.181789921875,0.09002031982421875,0.05354374999999999
0.010537402343749998,-0.0876701708984375,0.2735048583984375
0.07667271484375,-0.12369844970703125,0.779538291015625
0.08396705078125,-0.12075736572265625,1.0958399072265625
-0.636956484375,0.012816865234374999,1.4934902685546876
-0.8402253125,0.0358553564453125,1.3919886621093749
-0.7857609375,-0.12614935302734376,1.208155244140625
-0.43247193359375,0.18952699462890624,1.2152824755859375
-0.423961875,0.281435869140625,0.95304951171875
-0.09061072265625,0.09639266845703125,0.6696806201171875
-0.068970859375,-0.00213364501953125,0.6632906884765625
-0.2571647265625,0.09100068115234375,0.782487490234375
-0.15747546875,-0.06267095703125,0.91077765625
-0.09547361328125001,-0.269527197265625,1.229291171875
-0.10471310546875,-0.06634731201171876,1.3956751611328124
-0.32402947265625,-0.1229631787109375,1.1685868212890624
-0.4079143359375,-0.07468038330078125,1.0044147314453125
-0.4808576953125,-0.13007079833984375,0.8712092333984375
-0.5212196875,-0.01291761962890625,0.75053783203125
-0.52972974609375,0.04198261474609375,0.741690234375
-0.5207333984375,0.03806116943359375,0.7556989306640625
-0.33229638671875,0.032424091796875,0.7861739892578125
-0.26616107421875,-0.071494208984375,0.8023945849609375
-0.24038775390625,0.05374695068359375,0.872929599609375
-0.31138595703125,0.12776423095703124,0.94518498046875
-0.24087404296875,0.16795904541015624,0.874895732421875
-0.18640966796875,0.1809488330078125,0.7498005322265625
-0.16841697265625,0.2020266015625,0.8313950439453125
-0.25643529296875,0.22776108642578125,1.0071181640625
-0.3578265625,0.13119549560546875,1.0594664501953126
-0.4711319140625,0.16011615478515626,1.055779951171875
-0.561095390625,0.042227705078125,0.8783364648437499
-0.47964197265624997,-0.06634731201171876,0.7335799365234374
-0.382141015625,-0.1170810107421875,0.6406801611328125
-0.37217208984375,-0.1092381201171875,0.6079932031249999
-0.26421591796875,-0.16291290283203125,0.7006472119140625
-0.327676640625,-0.1915884716796875,0.7869112890625
-0.189570546875,-0.044534272460937496,0.8245135791015625
-0.20148462890625,-0.042328459472656246,0.8422087744140625
-0.28269490234375,0.13854820556640626,0.8864467626953125
-0.158448046875,0.09933375244140626,0.814928681640625
-0.041738671875,0.02041466552734375,0.822793212890625
-0.2717533984375,-0.00581,0.910286123046875
-0.32451576171875,0.0289928271484375,1.1390948291015626
-0.50541529296875,0.0054641552734375,1.18505318359375
-0.55501677734375,0.12629368896484375,1.0683140478515625
-0.44657431640625,0.2152614794921875,0.890624794921875
-0.35588140625,0.19491898193359375,0.7989538525390625
-0.34639876953125,0.17384121337890626,0.8422087744140625
-0.2338228515625,0.07776580322265625,0.89406552734375
-0.1521262890625,0.053992041015625,0.8893959619140624
-0.14215736328125,-0.06732767333984375,0.838522275390625
-0.04344068359375,-0.07419020263671874,0.8132083154296875
-0.17862904296875,-0.1739419677734375,0.9238032861328125
-0.1268392578125,-0.10752248779296875,1.0820769775390624
-0.36876806640625,-0.16193254150390626,1.108865537109375
-0.38287044921875,0.1133039013671875,1.143272861328125
-0.45143720703125,0.1691844970703125,1.02776255859375
-0.5119801953125,0.1628121484375,0.9370746826171875
-0.35223423828125,0.13903838623046874,0.859166669921875
-0.24184662109375,0.12531332763671876,0.838522275390625
-0.22628537109375,0.11649007568359375,0.8544971044921875
-0.2396583203125,0.03021827880859375,0.8648193017578125
-0.2333365625,-0.042083369140625,0.8913620947265625
-0.19321771484375,-0.00507472900390625,0.9754142724609375
-0.28512634765625,-0.04085791748046875,1.103950205078125
-0.3515048046875,-0.06585713134765625,1.143272861328125
-0.25862359375,-0.07566074462890625,1.0009739990234374
-0.22288134765625,-0.015368522949218751,0.9316678173828125
-0.2824517578125,-0.02027032958984375,0.942727314453125
-0.4001337109375,-0.038161923828125,0.9913891015625
-0.42590703125,0.0211499365234375,1.0604495166015624
-0.33521412109375,0.0486000537109375,1.0840431103515624
-0.34785763671875003,0.03364954345703125,1.11034013671875
-0.34688505859375,0.022620478515625,1.0594664501953126
-0.42323244140625,-0.01879978759765625,0.930438984375
-0.29922873046875,0.1309504052734375,0.86457353515625
-0.18884111328125,-0.00581,0.763809228515625
-0.2377131640625,-0.00311400634765625,0.8839890966796875
-0.1355924609375,0.0010525292968750002,0.9955671337890625
-0.2775888671875,-0.00507472900390625,1.0068723974609375
-0.36050115234375,0.124578056640625,1.057746083984375
-0.23455228515625,0.08609887451171874,1.0594664501953126
-0.4823165625,-0.03448556884765625,1.041033955078125
-0.46456701171875,-0.05409279541015625,1.06315294921875
-0.3894353515625,0.0152677685546875,0.9896687353515625
-0.393811953125,0.00963069091796875,0.8662939013671875
-0.22920310546875,0.07923634521484375,0.9203625537109374
-0.3262177734375,0.12923477294921876,1.063644482421875
-0.32402947265625,0.0103659619140625,1.0928907080078125
-0.26372962890625,-0.0268877685546875,1.05332228515625
-0.09304216796875,0.08903995849609375,1.022355693359375
-0.247925234375,-0.13693332763671875,0.9048792578125
-0.3194097265625,-0.00948635498046875,1.0589749169921876
-0.3874901953125,0.0280124658203125,1.058729150390625
-0.419098984375,0.08413815185546875,0.9604225097656249
-0.26518849609375,0.06109966064453125,0.9532952783203125
-0.32937865234375,-0.10286577148437501,0.88816712890625
-0.31965287109375,0.057913486328125,0.8879213623046875
-0.286828359375,-0.01634888427734375,0.754961630859375
-0.37654869140625,0.08707923583984375,0.783470556640625
-0.37217208984375,0.07237381591796875,0.804114951171875
-0.30919765625,0.063795654296875,0.8299204443359375
-0.06289224609374999,-0.0337502978515625,0.9459222802734375
-0.06726884765625,-0.13252170166015625,1.1155012353515625
-0.314060546875,-0.0200252392578125,1.1975872802734375
-0.417153828125,-0.08546435791015625,1.1091113037109375
-0.430769921875,0.030708459472656248,1.020389560546875
-0.37533296875,0.0917359521484375,0.9213456201171875
-0.36147373046875,0.00521906494140625,0.7655295947265625
-0.20197091796875,0.01600303955078125,0.7281730712890625
-0.2736985546875,-0.1195319140625,0.7478343994140625
-0.27929087890625,-0.0837487255859375,0.8436833740234375
-0.31527626953125,-0.0455146337890625,0.9183964208984375
-0.30846822265625,-0.10507158447265624,0.996795966796875
-0.3797095703125,-0.0366913818359375,1.037101689453125
-0.317950859375,-0.04968116943359375,0.9547698779296875
-0.255705859375,0.03512008544921875,0.8242678125
-0.27734572265625,-0.0366913818359375,0.70335064453125
-0.13948277343749999,0.01600303955078125,0.697943779296875
-0.1910294140625,0.06600146728515625,0.8082929833984375
-0.29728357421875,0.073599267578125,0.9464138134765625
-0.32694720703125,0.13707766357421874,1.040542421875
-0.3797095703125,0.08462833251953125,1.112797802734375
-0.34250845703125,0.0613447509765625,1.14179826171875
-0.4195852734375,0.06281529296875,1.092153408203125
-0.35758341796875,0.08021670654296875,0.9665666748046875
-0.2318776953125,0.03021827880859375,0.871455
-0.18446451171875,0.01453249755859375,0.9341254833984375
-0.22823052734375,0.011346323242187501,1.01006736328125
-0.27880458984375,-0.0415931884765625,1.0781447119140626
-0.3427516015625,0.05889384765625,1.1371286962890625
-0.27588685546875,0.05962911865234375,1.052830751953125
-0.25084296875,-0.0259074072265625,1.009575830078125
-0.32451576171875,-0.011201987304687501,1.062661416015625
-0.3057936328125,-0.01095689697265625,1.08478041015625
-0.34493990234375,-0.0011532836914062497,1.13786599609375
-0.4108320703125,-0.00605509033203125,1.141306728515625
-0.40475345703125,-0.02713285888671875,1.0304659912109375
-0.24865466796875,-0.08742508056640624,0.900455458984375
-0.187625390625,-0.12933552734375,0.88423486328125
-0.23795630859375,-0.1288453466796875,0.9503460791015625
-0.29582470703125,-0.242077080078125,1.117713134765625
-0.18446451171875,-0.08252327392578125,0.7719195263671875
-0.35417939453125,-0.12712971435546874,0.92552365234375
-0.42225986328125,0.05178622802734375,1.0491442529296875
-0.39843169921875,0.0672269189453125,1.0284998583984375
-0.407428046875,0.071638544921875,1.010558896484375
-0.32646091796875,0.1652630517578125,0.9992536328125
-0.2571647265625,0.01453249755859375,0.96288017578125
-0.26616107421875,0.12972495361328126,1.0582376171875
-0.41934212890625,0.13707766357421874,1.061678349609375
-0.384086171875,-0.08938580322265625,0.951574912109375
-0.242089765625,-0.13717841796875,0.8569547705078124
-0.29242068359375,-0.0396324658203125,0.6932742138671875
-0.25983931640625,-0.091101435546875,0.5733401123046875
-0.1088465625,-0.09428760986328125,0.6156119677734375
-0.26324333984375,0.00865032958984375,0.7200627734375
-0.36366203125,0.03119864013671875,1.001711298828125
-0.42177357421875,0.04712951171875,1.2098756103515624
-0.448276328125,0.13609730224609376,1.189476982421875
-0.36974064453125,0.0985984814453125,0.9975332666015625
-0.35199109375,0.036345537109375,0.890624794921875
-0.28464005859375,0.01845394287109375,0.7635634619140625
-0.2464663671875,-0.0028689160156250004,0.694994580078125
-0.2231244921875,-0.0053198193359375,0.6573922900390625
-0.21461443359375,-0.04575972412109375,0.6686975537109375
-0.25886673828125,-0.02468195556640625,0.7905977880859375
-0.3077387890625,-0.0406128271484375,0.8775991650390624
-0.2095083984375,-0.059729873046875,0.922082919921875
-0.27345541015625,-0.00997653564453125,0.9990078662109375
-0.28585578125,-0.0332601171875,1.11623853515625
-0.26713365234374997,-0.04085791748046875,1.1808751513671876
-0.34810078125,-0.00752563232421875,1.2138078759765625
-0.366579765625,0.02335574951171875,1.22830810546875
-0.35417939453125,-0.05090662109375,1.19390078125
-0.34226531250000003,-0.08227818359375,1.079865078125
-0.31089966796875,-0.120512275390625,0.99433830078125
-0.22579908203125,-0.13399224365234375,0.9085657568359375
-0.24233291015625,-0.12933552734375,0.856217470703125
-0.22750109375,-0.18938265869140625,0.8223016796875
-0.259596171875,-0.07173929931640625,0.861132802734375
-0.3495596484375,-0.10580685546875,0.9075826904296875
-0.347128203125,-0.044044091796875,0.9134810888671875
-0.36196001953125,-0.01585870361328125,0.868014267578125
-0.21899103515625,-0.0254172265625,0.9852449365234375
-0.32889236328125,-0.06928839599609375,1.217002841796875
-0.37314466796875,0.0064445166015625,1.4239383203125
-0.56620142578125,0.00178780029296875,1.348733740234375
-0.477453671875,0.01453249755859375,1.0825685107421874
-0.42931105468749997,-0.0268877685546875,0.936828916015625
-0.33861814453125,-0.14820748291015626,0.84687833984375
-0.25205869140625,-0.0759058349609375,0.678773984375
-0.24670951171875,-0.161687451171875,0.6578838232421875
-0.206104375,-0.14698203125,0.6689433203125
-0.23892888671875,-0.1504132958984375,0.760860029296875
-0.37654869140625,-0.0729647509765625,0.910286123046875
-0.4215304296875,-0.028113220214843748,1.15752732421875
-0.47818310546875,0.01600303955078125,1.2727918603515624
-0.4195852734375,0.02139502685546875,1.2037314453125
-0.2668905078125,-0.06732767333984375,1.1430270947265626
-0.4001337109375,-0.083258544921875,1.0457035205078125
-0.41836955078125,-0.01487834228515625,0.8564632373046875
-0.315033125,-0.0945327001953125,0.6908165478515624
-0.1783858984375,-0.10016977783203125,0.5836623095703125
-0.08574783203125,-0.08423890625,0.7458682666015625
-0.26056875,-0.0817880029296875,0.901438525390625
-0.3281629296875,0.004973974609375,1.1005094726562499
-0.3690112109375,-0.00360418701171875,1.1032129052734374
-0.24087404296875,0.0976181201171875,1.056271484375
-0.24938410156250002,0.0446786083984375,0.9795923046875
-0.218747890625,-0.030319033203124998,1.02579642578125
-0.2639727734375,0.06109966064453125,1.1022298388671874
-0.3359435546875,-0.042083369140625,1.0700344140625
-0.36536404296875,0.019434304199218752,1.0486527197265625
-0.3690112109375,-0.092081796875,0.9127437890625
-0.31089966796875,-0.0411030078125,0.80853875
-0.1375376171875,-0.06340622802734375,0.8343442431640625
-0.25084296875,-0.05997496337890625,0.925032119140625
-0.25643529296875,-0.10850284912109374,0.98647376953125
-0.2678630859375,-0.057769150390625,0.963371708984375
-0.23990146484375,-0.1195319140625,0.8412257080078125
-0.29679728515625,-0.08644471923828125,0.754961630859375
-0.2095083984375,-0.1249239013671875,0.7384952685546875
-0.2649453515625,-0.0631611376953125,0.693028447265625
-0.27151025390625,0.03536517578125,0.7928096875
-0.3271903515625,0.04786478271484375,0.9115149560546875
-0.34007701171875,-0.00948635498046875,1.0958399072265625
-0.358799140625,0.1436951025390625,1.1700614208984375
-0.44608802734374997,0.127519140625,1.0530765185546875
-0.36487775390625,0.00227798095703125,0.9277355517578125
-0.2542469921875,-0.08252327392578125,0.814928681640625
-0.11006228515625,-0.17247142578125,0.7357918359375
-0.06751199218750001,-0.04330882080078125,0.669434853515625
-0.11298001953125,0.0231106591796875,0.7279273046875
-0.28609892578125,-0.1935491943359375,0.860149736328125
-0.1764407421875,0.0789912548828125,1.249444033203125
-0.44730375,0.0917359521484375,1.4748120068359376
-0.58030380859375,0.152028173828125,1.4413877490234375
-0.3291355078125,0.0740894482421875,1.2605035302734375
-0.4847480078125,0.04149243408203125,1.0860092431640624
-0.3787369921875,0.0476196923828125,0.9095488232421876
-0.25546271484375,-0.1092381201171875,0.6873758154296875
-0.19832375,-0.1092381201171875,0.6308494970703125
-0.1900568359375,-0.01169216796875,0.6608330224609374
-0.1842213671875,-0.05997496337890625,0.843437607421875
-0.33375525390625,0.02972809814453125,1.02972869140625
-0.413263515625,0.06257020263671875,1.06118681640625
-0.27199654296875,-0.0729647509765625,1.10640787109375
-0.38141158203125003,0.05668803466796875,1.1892312158203124
-0.35563826171875,0.030708459472656248,1.1518746923828125
-0.36390517578125,-0.104826494140625,1.103458671875
-0.43174250000000003,0.0338946337890625,1.18112091796875
-0.40767119140625,-0.0788469189453125,1.0683140478515625
-0.46164927734375,-0.09918941650390625,0.94911724609375
-0.2017277734375,-0.055808427734375,0.8898874951171875
-0.28585578125,-0.14085477294921875,0.8299204443359375
-0.35199109375,-0.10262068115234375,0.8989808593749999
-0.29728357421875,-0.09012107421875,0.9061080908203125
-0.2561921484375,0.01796376220703125,0.9139726220703125
-0.31673513671875,-0.06438658935546875,0.970253173828125
-0.36244630859375,0.03512008544921875,1.0071181640625
-0.29169125,-0.10507158447265624,0.9444476806640625
-0.3476144921875,-0.01683906494140625,0.993355234375
-0.29582470703125,0.042227705078125,1.0353813232421876
-0.46529644531250003,-0.10727739746093751,0.934862783203125
-0.3578265625,-0.02370159423828125,0.924049052734375
-0.27248283203125,-0.04428918212890625,0.8775991650390624
-0.21169669921875,0.05962911865234375,0.9886856689453125
-0.34202216796875,-0.122472998046875,1.0503730859375
-0.3656071875,-0.03399538818359375,1.1066536376953124
-0.26275705078125,-0.008751083984375,0.9793465380859375
-0.30919765625,-0.07370002197265625,0.80755568359375
-0.3660934765625,-0.04477936279296875,0.733825703125
-0.3145468359375,-0.02909358154296875,0.7529954980468749
-0.2921775390625,-0.11095375244140625,0.7439021337890624
-0.22190876953125,0.04492369873046875,0.847369873046875
-0.19467658203125,0.00521906494140625,0.8962774267578125
-0.2591098828125,0.06109966064453125,1.0250591259765625
-0.32937865234375,0.1314405859375,1.0103131298828125
-0.263486484375,0.05105095703125,0.9773804052734375
-0.31308796875,0.09982393310546875,0.949608779296875
-0.4225030078125,-0.04477936279296875,0.8549886376953125
-0.26275705078125,0.122617333984375,0.837539208984375
-0.42517759765625,0.00472888427734375,0.76233462890625
-0.20732009765625,0.0015427099609375003,0.875387265625
-0.12829812499999999,0.013552136230468751,0.85867513671875
-0.34810078125,-0.037916833496093746,0.9252778857421875
-0.32111173828125,-0.0425735498046875,0.8210728466796875
-0.0932853125,-0.1092381201171875,0.69351998046875
-0.1205175,0.0074248779296875,0.7935469873046875
-0.3223274609375,-0.06781785400390625,0.911269189453125
-0.44025255859375,0.06355056396484375,0.9410069482421874
-0.4468174609375,-0.02149578125,0.8038691845703125
-0.09523046875,-0.051886982421875,0.79379275390625
-0.1628246484375,0.019434304199218752,0.883251796875
-0.25400384765625,0.08560869384765625,1.1774344189453125
-0.35806970703125,0.05962911865234375,1.2939277880859374
-0.36463460937500003,0.04933532470703125,1.166374921875
-0.218747890625,0.22678072509765626,1.16342572265625
-0.2649453515625,-0.14502130859375,1.1703071875
-0.21315556640625,0.00816014892578125,1.180629384765625
-0.29509527343749997,0.0329142724609375,1.0181776611328126
-0.35344996093750003,-0.01291761962890625,0.979100771484375
-0.3656071875,0.0142874072265625,1.0024485986328124
-0.39648654296875,-0.1062970361328125,0.9616513427734374
-0.3111428125,-0.13742350830078126,0.9056165576171875
-0.30992708984375,-0.11879664306640625,0.882760263671875
-0.2133987109375,-0.1857063037109375,0.8220559130859375
-0.28318119140625,-0.10605194580078126,0.9454307470703125
-0.3889490625,-0.1386489599609375,0.955507177734375
-0.28220861328125,0.015022678222656249,1.00613509765625
-0.28707150390625,0.0378160791015625,0.9638632421875
-0.28391062499999997,-0.06659240234375,0.899472392578125
-0.1706052734375,-0.08497417724609375,0.9459222802734375
-0.34785763671875003,-0.16046199951171874,0.927981318359375
-0.32791978515625,-0.05213207275390625,0.9380577490234375
-0.3923530859375,-0.038161923828125,0.90193005859375
-0.33326896484375,0.0672269189453125,1.0019570654296874
-0.34834392578125,0.04100225341796875,0.9520664453125
-0.221665625,0.04198261474609375,1.07298361328125
-0.2095083984375,-0.068553125,1.0071181640625
-0.277102578125,-0.08693489990234375,1.06905134765625
-0.16793068359375,-0.09869923583984375,1.1093570703125
-0.3777644140625,-0.07835673828125,0.930930517578125
-0.38238416015625,-0.063651318359375,0.78396208984375
-0.352963671875,-0.05654369873046875,0.750046298828125
-0.24816837890625,-0.0072805419921875,0.624213798828125
-0.18057419921875,-0.09012107421875,0.51656802734375
-0.06410796875,-0.14918784423828124,0.47577077148437497
-0.054868476562500004,-0.12761989501953125,0.48314376953125
-0.045872128906250004,-0.1366882373046875,0.46594010742187497
-0.17279357421875,0.0037485229492187503,0.521974892578125
-0.22628537109375,0.11967625,0.606518603515625
-0.205131796875,0.1770273876953125,0.7660211279296875
-0.210967265625,0.2005560595703125,1.102967138671875
-0.2133987109375,0.15227326416015624,1.4502353466796876
-0.0811280859375,0.26256391357421877,1.50160056640625
-0.23406599609375,0.2610933715820313,1.5190499951171874
-0.46991619140625,-0.00703545166015625,1.3256316796875
-0.48596373046875,0.26795590087890625,1.195375380859375
-0.545534140625,0.19982078857421876,1.0717547802734375
-0.49179919921875,0.1956542529296875,0.8658023681640625
-0.49204234375,-0.04575972412109375,0.63650212890625
-0.166228671875,-0.17712814208984376,0.625196865234375
-0.1044699609375,-0.0386521044921875,0.68565544921875
-0.0621628125,-0.05213207275390625,0.984999169921875
-0.312115390625,-0.1386489599609375,1.5254399267578125
-0.49982296875,-0.04919098876953125,1.860911337890625
-0.50881931640625,0.11354899169921875,1.878606533203125
-0.5333769140625,0.0191892138671875,1.6517639599609375
-0.58662556640625,-0.044534272460937496,1.4121415234375
-0.584437265625,-0.1827652197265625,1.2236385400390626
-0.46456701171875,-0.334231044921875,1.1592476904296876
-0.356853984375,-0.36070080078125,0.9188879541015624
-0.25303126953125,-0.3197707153320313,0.7040879443359375
-0.22823052734375,-0.30653583740234375,0.5812046435546875
-0.2454937890625,-0.32124125732421877,0.613400068359375
-0.29776986328125,-0.3638869750976563,0.6844266162109375
-0.39405509765625,-0.43128681640625,0.7928096875
-0.5401849609375,-0.42270865478515623,0.8105048828125
-0.4487626171875,-0.1631579931640625,0.8183694140625
-0.2124261328125,0.00816014892578125,0.9611598095703124
-0.23649744140625,0.02752228515625,0.9953213671875
-0.3291355078125,-0.03546593017578125,1.083305810546875
-0.470645625,-0.1121792041015625,1.090187275390625
-0.37703498046875,0.0020328906249999995,1.03661015625
-0.439523125,-0.015368522949218751,0.9316678173828125
-0.36147373046875,-0.0009081933593750001,0.843929140625
-0.17765646484375,0.00178780029296875,0.751029365234375
-0.15869119140625,-0.03889719482421875,0.7556989306640625
-0.13948277343749999,-0.013162709960937501,0.765775361328125
-0.16501294921875,0.0037485229492187503,0.8026403515625
-0.29533841796875,0.05031568603515625,0.79772501953125
-0.245980078125,0.12335260498046875,0.9311762841796875
-0.35588140625,0.07776580322265625,1.0422627880859374
-0.45338236328125,0.05521749267578125,0.9906518017578125
-0.2736985546875,0.028502646484374998,0.7792925244140625
-0.24427806640625,-0.03129939453125,0.549500751953125
-0.26956509765625,-0.01634888427734375,0.4278462841796875
-0.2396583203125,-0.0464949951171875,0.3600147021484375
-0.185680234375,-0.1023755908203125,0.33371767578125
-0.21412814453125,0.008405239257812499,0.3462517724609375
-0.160393203125,0.04296297607421875,0.431532783203125
-0.10957599609375,0.09100068115234375,0.6067643701171875
-0.0879361328125,0.1436951025390625,0.9621428759765625
-0.06872771484375,0.20962440185546874,1.4463030810546875
-0.23163455078125,-0.2170778662109375,1.9545484130859374
-0.45581380859375,-0.29869294677734376,1.926776787109375
-0.41836955078125,-0.24771415771484376,1.3298097119140624
-0.37995271484375,-0.20653898193359374,0.8446664404296875
-0.329621796875,0.03757098876953125,0.7817501904296875
-0.300444453125,0.17580193603515626,0.8289373779296875
-0.3213548828125,-0.114630107421875,0.8766160986328125
-0.35028908203125,-0.12860025634765626,0.88030259765625
-0.6238266796875,-0.18742193603515625,0.7345630029296875
-0.2240970703125,-0.29232059814453126,0.5305767236328125
0.0005684765624999998,-0.1729616064453125,0.6052897705078125
0.09563798828125,-0.09771887451171875,1.07691587890625
0.104148046875,-0.0798272802734375,1.516838095703125
-0.4176401171875,-0.1210024560546875,1.6424248291015624
-0.65908263671875,-0.13644314697265625,1.495210634765625
-0.54091439453125,-0.1621776318359375,1.1744852197265625
-0.32986494140625,-0.2190385888671875,0.995812900390625
-0.26956509765625,-0.218548408203125,1.0044147314453125
-0.1744955859375,-0.3197707153320313,0.881777197265625
-0.4186126953125,-0.2602137646484375,1.0476696533203125
-0.23892888671875,-0.3776120336914062,1.146222060546875
-0.352963671875,-0.16291290283203125,1.171781787109375
-0.27199654296875,-0.01781942626953125,1.15949345703125
-0.19953947265625,0.14835181884765625,1.11427240234375
-0.33667298828125003,0.05864875732421875,1.1135351025390625
-0.422989296875,0.0255615625,1.0727378466796875
-0.4278521875,-0.21046042724609376,0.8309035107421875
-0.3889490625,-0.18497103271484375,0.65911265625
-0.2800203125,-0.275409365234375,0.606518603515625
-0.28998923828125,-0.2893795141601562,0.6844266162109375
-0.4351465234375,-0.2249207568359375,0.9670582080078125
-0.44706060546875,-0.2013920849609375,1.0845346435546874
-0.3991611328125,-0.06683749267578125,1.0810939111328124
-0.35101851562499997,-0.0229663232421875,1.0486527197265625
-0.20634751953125,0.108892275390625,1.0162115283203126
-0.11468203125,0.07923634521484375,1.1140266357421875
-0.27783201171875,-0.01953505859375,1.2020110791015626
-0.34883021484375,0.00399361328125,1.2231470068359376
-0.4127772265625,-0.05409279541015625,0.9547698779296875
-0.376305546875,-0.0724745703125,0.7876485888671875
-0.36536404296875,-0.13840386962890625,0.7409529345703125
-0.24281919921875,-0.132276611328125,0.763809228515625
-0.3787369921875,-0.11634573974609375,0.9247863525390625
-0.4497351953125,-0.16340308349609375,0.979100771484375
-0.436605390625,-0.06732767333984375,0.8783364648437499
-0.23503857421875,-0.16732452880859375,0.7298934375
-0.17765646484375,-0.0690433056640625,0.7493089990234375
-0.24330548828125,-0.144040947265625,0.920116787109375
-0.31673513671875,-0.1092381201171875,1.13196759765625
-0.31187224609374997,-0.04134809814453125,1.0963314404296876
-0.45484123046875,0.03315936279296875,0.8262339453125
-0.29096181640625,0.0495804150390625,0.745130966796875
-0.3500459375,-0.05164189208984375,0.6888504150390625
-0.28415376953125,0.02335574951171875,0.707774443359375
-0.1754681640625,0.062080021972656246,0.70924904296875
-0.2960678515625,0.00791505859375,0.725961171875
-0.3408064453125,0.0770305322265625,0.829674677734375
-0.2931501171875,0.00521906494140625,0.9090572900390625
-0.44268400390625,-0.09012107421875,0.85277673828125
-0.35588140625,0.0466393310546875,0.863098935546875
-0.3116291015625,-0.104826494140625,0.7139186083984375
-0.2746711328125,-0.03987755615234375,0.57555201171875
-0.18349193359375,-0.05458297607421875,0.528856357421875
-0.16841697265625,-0.11389483642578124,0.553433017578125
-0.20440236328125,-0.04772044677734375,0.68172318359375
-0.14969484375,-0.02149578125,0.8427003076171875
-0.22701480468750002,-0.06659240234375,0.9604225097656249
-0.19662173828125,-0.10972830078125,0.9965502001953125
-0.13583560546875,-0.09869923583984375,1.0053977978515625
-0.1696326953125,-0.12149263671875,1.049881552734375
-0.25692158203125,-0.0337502978515625,1.136391396484375
-0.34421046875,-0.03889719482421875,1.1700614208984375
-0.41302037109375,0.0074248779296875,1.1848074169921876
-0.44268400390625,0.030708459472656248,1.1931634814453125
-0.4278521875,0.016738310546875,1.031203291015625
-0.20634751953125,-0.05360261474609375,0.8117337158203125
-0.0966893359375,-0.11536537841796875,0.606518603515625
-0.06483740234375,0.00570924560546875,0.560806015625
-0.09887763671875,0.05276658935546875,0.6514938916015625
-0.1103054296875,0.06551128662109375,0.8908705615234375
-0.255705859375,0.12482314697265626,1.2781987255859375
-0.3612305859375,0.14688127685546876,1.4713712744140626
-0.38238416015625,0.08168724853515624,1.394937861328125
-0.38700390625000003,0.0682072802734375,1.379208798828125
-0.44535859375,0.140263837890625,1.35610673828125
-0.4896108984375,-0.087179990234375,1.327106279296875
-0.4584883984375,-0.03742665283203125,1.2216724072265626
-0.2250696484375,-0.0646316796875,0.9704989404296875
-0.24670951171875,-0.0906112548828125,0.7473428662109375
-0.08234380859375,-0.09232688720703125,0.76430076171875
-0.10106593750000001,-0.15212892822265625,0.9631259423828125
-0.308225078125,-0.09036616455078125,1.1159927685546875
-0.37119951171875,-0.00409436767578125,1.156052724609375
-0.44171142578125,-0.0347306591796875,1.131476064453125
-0.24865466796875,-0.04183827880859375,1.016948828125
-0.32305689453124997,-0.05090662109375,1.0815854443359374
-0.43441708984375,0.0123266845703125,1.2039772119140626
-0.49666208984375,-0.08840544189453126,1.12606919921875
-0.44900576171875,-0.0494360791015625,0.8982435595703124
-0.25862359375,0.0015427099609375003,0.8628531689453125
-0.3583128515625,-0.15408965087890625,0.8112421826171875
-0.0840458203125,-0.008996174316406251,0.8554801708984375
-0.27734572265625,-0.0876701708984375,0.7783094580078125
-0.11735662109375,-0.060710234375,0.9739396728515625
-0.16112263671875,-0.1043363134765625,1.0599579833984376
-0.3096839453125,-0.08546435791015625,1.132459130859375
-0.2279873828125,0.03659062744140625,1.088221142578125
-0.37800755859375,-0.1131595654296875,0.9513291455078126
-0.40086314453125,0.0299731884765625,0.92650671875
-0.331566953125,0.06306038330078124,0.883251796875
-0.249870390625,-0.04919098876953125,0.9390408154296875
-0.35272052734375,0.087324326171875,1.0373474560546876
-0.37363095703125,0.07384435791015626,0.8839890966796875
-0.2542469921875,0.11501953369140624,0.7871570556640625
-0.26518849609375,0.0456589697265625,0.7026133447265624
-0.18397822265625,0.0544822216796875,0.658621123046875
-0.08672041015625,-0.03203466552734375,0.66206185546875
-0.10495625,-0.0151234326171875,0.65812958984375
-0.170118984375,0.03364954345703125,0.6915538476562499
-0.26324333984375,-0.07909200927734375,0.838522275390625
-0.23819945312500002,0.12482314697265626,1.03661015625
-0.46481015625,0.15962597412109375,1.168832587890625
-0.47332021484375,0.18830154296875,1.2649273291015626
-0.3116291015625,0.10962754638671875,1.0825685107421874
-0.3651208984375,0.0044837939453125,0.9685328076171875
-0.2099946875,0.16624341308593749,0.97369390625
-0.33326896484375,0.05497240234375,0.9206083203125
-0.2231244921875,0.17653720703125,0.92945591796875
-0.25692158203125,0.05815857666015625,0.8972604931640625
-0.14556138671875,0.080461796875,0.9228202197265625
-0.20877896484375,-0.08154291259765625,0.8844806298828125
-0.2882872265625,-0.0371815625,0.9139726220703125
-0.30555048828125,-0.02321141357421875,0.96877857421875
-0.44025255859375,-0.04821062744140625,0.970253173828125
-0.4118046484375,-0.06928839599609375,1.0270252587890625
-0.37606240234375,-0.030319033203124998,1.00613509765625
-0.3797095703125,-0.02468195556640625,0.8419630078125
-0.23309341796875,0.0348749951171875,0.7955131201171874
-0.2610550390625,-0.044044091796875,0.7950215869140624
-0.31868029296875,0.0515411376953125,0.8662939013671875
-0.2970404296875,-0.044044091796875,0.912252255859375
-0.3242726171875,-0.037916833496093746,0.8210728466796875
-0.11103486328125,-0.0004180126953125,0.7266984716796875
-0.13948277343749999,-0.034240478515625,0.7016302783203126
-0.214857578125,0.04933532470703125,0.8746499658203125
-0.21072412109375,-0.05213207275390625,0.98057537109375
-0.23601115234375,0.12727405029296876,1.0982975732421876
-0.44803318359375,0.057913486328125,1.1651460888671874
-0.3816547265625,0.0593840283203125,1.1911973486328125
-0.321841171875,0.07825598388671876,1.1272980322265624
-0.47721052734375,0.032424091796875,1.0869923095703125
-0.370470078125,-0.04379900146484375,0.9095488232421876
-0.10568568359375,0.09296140380859375,0.840488408203125
-0.1968648828125,0.04712951171875,0.7856824560546875
-0.28585578125,-0.0009081933593750001,0.8259881787109375
-0.148722265625,0.12433296630859375,0.8741584326171875
-0.1589343359375,-0.04968116943359375,0.8741584326171875
-0.1399690625,0.079481435546875,1.1007552392578126
-0.1633109375,0.1387932958984375,1.1966042138671875
-0.3602580078125,0.021640117187500002,1.08871267578125
-0.41545181640625,0.049090234375,1.0422627880859374
-0.43538966796875,0.0456589697265625,1.0909245751953125
-0.486206875,0.018699033203125,0.9936010009765625
-0.2878009375,0.06355056396484375,0.8984893261718749
-0.292663828125,-0.0455146337890625,0.728418837890625
-0.29971501953125,-0.08252327392578125,0.65419732421875
-0.26032560546875,-0.15016820556640625,0.6598499560546875
-0.16209521484375,-0.1357078759765625,0.7419360009765625
-0.2095083984375,-0.03154448486328125,0.9164302880859375
-0.19248828125,-0.05017135009765625,1.0909245751953125
-0.21753216796875,-0.028113220214843748,1.1268064990234374
-0.323786328125,-0.008996174316406251,1.0766701123046876
-0.212912421875,0.03928662109375,1.043983154296875
-0.42712275390625,-0.012672529296875,0.9363373828125
-0.39989056640625,0.18266446533203126,0.9820499707031249
-0.2766162890625,0.11379408203125,0.9442019140625
-0.2785614453125,0.1157548046875,0.9518206787109375
-0.2367405859375,0.04296297607421875,1.0039231982421875
-0.37654869140625,-0.0053198193359375,1.0029401318359374
-0.23649744140625,0.05129604736328125,1.0575003173828126
-0.1579617578125,0.02139502685546875,1.038084755859375
-0.36390517578125,0.00816014892578125,1.1037044384765624
-0.1628246484375,0.095167216796875,1.17325638671875
-0.15771861328125,-0.02909358154296875,1.08281427734375
-0.3378887109375,0.0711483642578125,1.14573052734375
-0.27831830078124997,0.1878113623046875,1.0884669091796875
-0.3583128515625,0.038306259765625,0.904387724609375
-0.32864921874999997,0.04688442138671875,0.9734481396484375
-0.3719289453125,-0.0249270458984375,1.01006736328125
-0.30846822265625,-0.06683749267578125,0.9695158740234375
-0.29776986328125,0.008895419921875,0.91569298828125
-0.3835998828125,-0.02321141357421875,0.8358188427734374
-0.20099833984375,0.021640117187500002,0.868997333984375
-0.26129818359375,-0.05752406005859375,0.9439561474609375
-0.26567478515625,-0.0646316796875,1.0149826953125
-0.16720125,0.00717978759765625,1.04939001953125
-0.3145468359375,-0.03644629150390625,1.03169482421875
-0.35320681640625,0.009140510253906251,1.0044147314453125
-0.23066197265625,-0.01879978759765625,0.90389619140625
-0.3767918359375,0.05913893798828125,0.8638362353515625
-0.337402421875,-0.026397587890625,0.950591845703125
-0.302389609375,0.0008074389648437498,0.99040603515625
-0.22628537109375,0.0008074389648437498,0.92650671875
-0.40937320312500003,0.0368357177734375,1.002694365234375
-0.2980130078125,-0.01732924560546875,1.0550426513671876
-0.37654869140625,-0.0308092138671875,0.9316678173828125
-0.18495080078125,0.08953013916015624,0.993846767578125
-0.18689595703125,-0.0170841552734375,0.9016842919921875
-0.33326896484375,0.03610044677734375,0.961897109375
-0.12076064453125,-0.02076051025390625,0.908319990234375
-0.3446967578125,0.03904153076171875,0.840488408203125
-0.304334765625,0.0878145068359375,0.8068183837890625
-0.1861665234375,0.00227798095703125,0.7355460693359375
-0.224583359375,0.10766682373046875,0.8515479052734375
-0.37265837890625,0.028257556152343752,0.8962774267578125
-0.19127255859375,-0.0219859619140625,1.011541962890625
-0.356853984375,0.14835181884765625,1.056271484375
-0.30141703125,0.07678544189453125,1.153103525390625
-0.25205869140625,0.02752228515625,1.0879753759765625
-0.421044140625,0.00423870361328125,0.990897568359375
-0.24038775390625,0.01012087158203125,0.8893959619140624
-0.2328502734375,-0.01732924560546875,0.7222746728515625
-0.224583359375,-0.05605351806640625,0.703842177734375
-0.17084841796875,-0.048455717773437504,0.6937657470703125
-0.27394169921875,-0.06046514404296875,0.7082659765625
-0.251815546875,0.06281529296875,0.779538291015625
-0.21655958984375,0.0005623486328125002,0.861132802734375
-0.3690112109375,0.065756376953125,0.8771076318359375
-0.24136033203125,0.0995788427734375,0.9842618701171875
-0.29339326171875,0.06109966064453125,1.103458671875
-0.405482890625,-0.011201987304687501,1.1263149658203124
-0.352963671875,0.09492212646484376,1.16244265625
-0.3690112109375,0.148106728515625,1.073475146484375
-0.29363640625,0.06747200927734374,0.976151572265625
-0.2644590625,0.0123266845703125,0.9582106103515625
-0.19832375,-0.0935523388671875,1.0678225146484375
-0.2756437109375,-0.02737794921875,1.1282810986328125
-0.24476435546875,-0.0092412646484375,0.9670582080078125
-0.22288134765625,-0.042328459472656246,0.875387265625
-0.22725794921875,0.03757098876953125,0.9375662158203125
-0.391866796875,-0.0033590966796874996,0.9911433349609375
-0.230418828125,0.010611052246093749,0.9906518017578125
-0.20537494140625,0.04492369873046875,1.024321826171875
-0.40378087890625003,0.059874208984374996,1.156052724609375
-0.338375,-0.0254172265625,1.265173095703125
-0.333512109375,-0.0249270458984375,1.1051790380859374
-0.3048210546875,-0.0724745703125,0.988931435546875
-0.2036729296875,-0.00262382568359375,0.9926179345703126
-0.08428896484375001,-0.10850284912109374,1.026287958984375
-0.44754689453125,-0.20359789794921876,0.9356000830078125
-0.327676640625,-0.0724745703125,0.9508376123046876
-0.17619759765625,-0.00654527099609375,0.8380307421875
-0.38384302734375,-0.0435539111328125,0.8471241064453126
-0.26810623046875,0.18266446533203126,0.92355751953125
-0.2882872265625,0.1549692578125,0.845403740234375
-0.39089421875,0.09100068115234375,0.830657744140625
-0.2814791796875,0.009140510253906251,0.808047216796875
-0.25059982421875,0.0691876416015625,0.71121517578125
-0.2955815625,-0.052867343750000004,0.7109694091796875
-0.20197091796875,0.022620478515625,0.7989538525390625
-0.3865176171875,0.023845930175781252,0.8195982470703125
-0.31916658203125,0.0897752294921875,0.97369390625
-0.384086171875,0.11060790771484375,1.0707717138671875
-0.24719580078125,0.103010107421875,1.099034873046875
-0.19637859375,0.07188363525390624,1.170798720703125
-0.156502890625,-0.01193725830078125,1.2187232080078125
-0.24476435546875,-0.018554697265625,1.191443115234375
-0.232363984375,0.10521592041015625,1.1395863623046876
-0.4828028515625,0.13168567626953126,1.010558896484375
-0.39454138671875,0.04002189208984375,1.0117877294921875
-0.3349709765625,0.02727719482421875,1.01203349609375
-0.35417939453125,0.023845930175781252,1.0245675927734375
-0.255705859375,-0.12761989501953125,0.9272440185546875
-0.199296328125,-0.01879978759765625,0.814928681640625
-0.1968648828125,-0.008751083984375,0.8289373779296875
-0.1647698046875,-0.076396015625,0.947642646484375
-0.32646091796875,-0.08154291259765625,1.156052724609375
-0.49957982421875,-0.03889719482421875,1.175714052734375
-0.25546271484375,-0.091101435546875,1.0904330419921875
-0.24695265625,-0.0494360791015625,0.904387724609375
-0.140941640625,0.0819323388671875,0.928964384765625
-0.24865466796875,-0.020515419921875,0.9677955078125
-0.39065107421875,-0.00997653564453125,1.0024485986328124
-0.23163455078125,0.08707923583984375,0.990897568359375
-0.197351171875,0.03561026611328125,0.9872110693359375
-0.43684853515625,-0.05311243408203125,0.9238032861328125
-0.2450075,-0.0009081933593750001,0.922574453125
-0.25303126953125,-0.030073942871093752,0.9009469921875
-0.2445212109375,-0.08105273193359375,0.95108337890625
-0.33983386718749997,-0.0435539111328125,1.00220283203125
-0.413263515625,-0.0567887890625,1.051847685546875
-0.26810623046875,-0.01978014892578125,0.9835245703125
-0.154557734375,-0.044534272460937496,0.986965302734375
-0.1321884375,-0.0043394580078125,1.006626630859375
-0.35344996093750003,-0.02370159423828125,0.972219306640625
-0.3690112109375,0.16305723876953124,0.9960586669921875
-0.26032560546875,0.02580665283203125,1.022355693359375
-0.3874901953125,0.19148771728515626,1.1794005517578126
-0.50638787109375,-0.0016434643554687498,1.243545634765625
-0.387976484375,0.08119706787109375,1.0058893310546875
-0.30919765625,0.030463369140625002,0.72891037109375
-0.19248828125,0.02041466552734375,0.628146064453125
-0.2231244921875,-0.09330724853515625,0.696960712890625
-0.221665625,-0.0999246875,0.985490703125
-0.33983386718749997,-0.12418863037109375,1.19095158203125
-0.32500205078125,-0.0646316796875,1.2310115380859374
-0.41058892578125,-0.00654527099609375,1.1292641650390625
-0.4137498046875,-0.015368522949218751,1.01203349609375
-0.31284482421875,0.12384278564453124,0.89603166015625
-0.2882872265625,0.05080586669921875,0.7802755908203125
-0.181789921875,0.08560869384765625,0.85081060546875
-0.19662173828125,0.004973974609375,1.0275167919921875
-0.3806821484375,0.03364954345703125,1.1892312158203124
-0.3203823046875,-0.08227818359375,1.2118417431640625
-0.44900576171875,-0.035711020507812496,1.0904330419921875
-0.30214646484375,0.01992448486328125,0.966320908203125
-0.3072525,-0.12467881103515625,0.791335087890625
-0.22385392578125,-0.01389798095703125,0.8171405810546875
-0.25157240234375,-0.0915916162109375,0.8441749072265625
-0.31770771484375,-0.13252170166015625,0.9562444775390625
-0.237226875,-0.11046357177734376,1.02088109375
-0.3164919921875,-0.12222790771484375,0.8918536279296875
-0.24330548828125,-0.030319033203124998,0.79772501953125
-0.30530734375,0.0407571630859375,0.7547158642578125
-0.32475890625,-0.0621807763671875,0.8498275390625
-0.33570041015625,0.10325519775390625,1.0417712548828124
-0.37460353515625,0.0020328906249999995,1.00220283203125
-0.330594375,0.14050892822265626,0.94715111328125
-0.20537494140625,0.1314405859375,0.9041419580078125
-0.27442798828125,0.1270289599609375,0.906353857421875
-0.31965287109375,0.10521592041015625,1.0265337255859375
-0.4322287890625,-0.01389798095703125,0.9936010009765625
-0.2095083984375,-0.015368522949218751,0.9247863525390625
-0.23139140625,-0.04698517578125,0.7822417236328125
-0.21510072265625,-0.046004814453125,0.9513291455078126
-0.33375525390625,-0.13791368896484374,1.0594664501953126
-0.4623787109375,-0.0006631030273437505,1.0427543212890624
-0.40183572265625,0.10276501708984374,0.941744248046875
-0.31284482421875,0.1260485986328125,0.8407341748046875
-0.22944625,-0.036201201171875,0.8136998486328125
-0.18397822265625,0.00963069091796875,0.8368019091796874
-0.1686601171875,-0.130315888671875,0.83508154296875
-0.2289599609375,0.0103659619140625,0.9783634716796875
-0.30992708984375,-0.09428760986328125,0.9567360107421875
-0.37265837890625,-0.02468195556640625,1.043000087890625
-0.37168580078125,0.04124734375,1.0992806396484376
-0.39745912109375,-0.061690595703125004,1.0621698828125
-0.284883203125,0.030463369140625002,1.0412797216796874
-0.14507509765624998,-0.07271966064453125,0.95501564453125
-0.115654609375,-0.14379585693359376,0.7910893212890625
-0.20829267578125,-0.042328459472656246,0.707774443359375
-0.14580453125,-0.092081796875,0.6303579638671875
-0.1958923046875,-0.0494360791015625,0.8490902392578125
-0.242089765625,0.07457962890625,1.1012467724609376
-0.2736985546875,0.1838899169921875,1.3327589111328124
-0.1550440234375,0.31697396728515626,1.5303552587890625
-0.386031328125,0.25962282958984373,1.514871962890625
-0.37460353515625,0.20178151123046875,1.423446787109375
-0.43830740234375,0.1691844970703125,1.1567900244140625
-0.39818855468750003,0.0544822216796875,1.003677431640625
-0.20099833984375,0.04737460205078125,0.8358188427734374
-0.1336473046875,-0.075415654296875,0.702367578125
-0.05243703125,-0.09012107421875,0.730384970703125
-0.1355924609375,-0.1273748046875,0.893573994140625
-0.16938955078125,-0.12614935302734376,1.0786362451171876
-0.24962724609375,-0.0415931884765625,1.322190947265625
-0.477453671875,-0.01389798095703125,1.423446787109375
-0.5985396484375,0.05815857666015625,1.3996074267578125
-0.4511940625,0.04590406005859375,1.132459130859375
-0.33472783203125,-0.0710040283203125,0.8304119775390625
-0.19564916015625,-0.06879821533203125,0.681231650390625
-0.138996484375,-0.12026718505859375,0.5531872509765625
-0.05948822265625,-0.14673694091796874,0.51460189453125
-0.02593427734375,-0.16683434814453124,0.5443396533203125
-0.15577345703125,-0.13497260498046876,0.7311222705078125
-0.32281375,-0.0092412646484375,0.989914501953125
-0.37119951171875,-0.02664267822265625,1.1848074169921876
-0.38530189453125,0.10668646240234375,1.266156162109375
-0.40062,0.1510478125,1.2737749267578125
-0.446331171875,0.0711483642578125,1.0818312109375
-0.34980279296875,0.13217585693359374,0.9717277734375
-0.34250845703125,0.08413815185546875,0.9498545458984375
-0.41156150390625,0.14001874755859375,0.8692431005859375
-0.1676875390625,0.120656611328125,0.837539208984375
-0.30311904296875003,0.07972652587890625,0.8746499658203125
-0.35272052734375,0.09810830078125,0.9670582080078125
-0.22336763671875,-0.04968116943359375,0.889641728515625
-0.2644590625,-0.12026718505859375,0.841471474609375
-0.339347578125,-0.075415654296875,0.805098017578125
-0.25862359375,-0.051886982421875,0.7203085400390625
-0.2843969140625,-0.07811164794921875,0.646824326171875
-0.3164919921875,-0.04330882080078125,0.632078330078125
-0.26956509765625,-0.08056255126953125,0.5777639111328124
-0.28974609375,-0.05409279541015625,0.6082389697265624
-0.1569891796875,-0.011201987304687501,0.7384952685546875
-0.21169669921875,-0.04968116943359375,1.0520934521484375
-0.13729447265625,0.0373258984375,1.3806833984375
-0.1034973828125,0.1299700439453125,1.5505081201171875
-0.24914095703125,0.1907524462890625,1.58024587890625
-0.34542619140624997,0.16844922607421875,1.4404046826171875
-0.426879609375,0.0515411376953125,1.1164843017578125
-0.35417939453125,-0.00262382568359375,1.1164843017578125
-0.3777644140625,-0.0641414990234375,1.2108586767578124
-0.27394169921875,-0.08007237060546875,0.9587021435546875
-0.33570041015625,-0.02615249755859375,0.692045380859375
-0.36390517578125,-0.063651318359375,0.643875126953125
-0.22288134765625,-0.1033559521484375,0.618315400390625
-0.1881116796875,-0.0837487255859375,0.883743330078125
-0.31624884765625,0.08953013916015624,1.060695283203125
-0.265431640625,0.03364954345703125,1.1513831591796875
-0.3437241796875,0.01110123291015625,0.99827056640625
-0.290718671875,-0.0141430712890625,0.9031588916015625
-0.2912049609375,-0.01193725830078125,0.851302138671875
-0.40232201171875,-0.13399224365234375,0.95501564453125
-0.23260712890625002,-0.07271966064453125,0.94321884765625
-0.3495596484375,-0.1396293212890625,0.77216529296875
-0.06191966796875,-0.09036616455078125,0.9179048876953125
-0.39016478515624997,-0.16536380615234375,1.0108046630859375
-0.4973915234375,0.02874773681640625,1.17129025390625
-0.4818302734375,-0.1592365478515625,1.0152284619140626
-0.2591098828125,-0.027868129882812502,0.894557060546875
-0.1326747265625,-0.0455146337890625,0.779538291015625
-0.16112263671875,-0.16340308349609375,0.8608870361328125
-0.18884111328125,-0.03693647216796875,1.0407881884765624
-0.413263515625,0.00399361328125,1.179646318359375
-0.3699837890625,-0.03301502685546875,1.217002841796875
-0.36293259765625,0.01404231689453125,1.2978600537109375
-0.3835998828125,0.04590406005859375,1.1946380810546875
-0.29922873046875,-0.08154291259765625,1.008592763671875
-0.2192341796875,0.01698340087890625,0.92552365234375
-0.27005138671875,-0.05360261474609375,0.7768348583984375
-0.226528515625,-0.1190417333984375,0.7763433251953125
-0.32889236328125,-0.05311243408203125,0.9061080908203125
-0.42225986328125,0.0711483642578125,0.98647376953125
-0.28123603515625,-0.08227818359375,0.7443936669921875
-0.164283515625,0.0608545703125,0.736283369140625
-0.0859909765625,0.032424091796875,0.8957858935546875
-0.33132380859375,0.038306259765625,1.1172216015625
-0.37606240234375,0.1250682373046875,1.2280623388671874
-0.3096839453125,0.1035002880859375,1.14179826171875
-0.2678630859375,0.15031254150390624,1.0727378466796875
-0.2785614453125,0.063795654296875,1.0393135888671874
-0.26129818359375,0.0530116796875,1.052830751953125
-0.3456693359375,0.081442158203125,1.10837400390625
-0.286828359375,-0.0347306591796875,1.0653648486328124
-0.27807515625,-0.046004814453125,0.9434646142578125
-0.24768208984375,-0.0533575244140625,0.9277355517578125
-0.1929745703125,-0.0317895751953125,0.9754142724609375
-0.25594900390624997,-0.06732767333984375,0.9365831494140625
-0.3155194140625,-0.0298288525390625,1.090187275390625
-0.24184662109375,0.108892275390625,1.1400778955078126
-0.26810623046875,-0.0239466845703125,1.0447204541015624
-0.30166017578125,0.08511851318359374,1.1179589013671876
-0.26616107421875,-0.03301502685546875,1.1179589013671876
-0.3057936328125,-0.020515419921875,1.0766701123046876
-0.3164919921875,0.01894412353515625,1.011541962890625
-0.1501811328125,-0.07370002197265625,0.993355234375
-0.2834243359375,-0.0533575244140625,1.009575830078125
-0.2406308984375,-0.02076051025390625,1.1621968896484376
-0.38189787109375,-0.06144550537109375,1.087729609375
-0.3967296875,-0.050661530761718754,0.98057537109375
-0.24136033203125,0.02139502685546875,0.9228202197265625
-0.23917203125,-0.05164189208984375,0.83508154296875
-0.3485870703125,-0.02076051025390625,0.8761245654296875
-0.19516287109375,-0.01291761962890625,0.8557259375
-0.2853694921875,0.0672269189453125,0.814928681640625
-0.33910443359375,0.055462583007812497,0.80853875
-0.2552195703125,0.12947986328125,0.8751414990234375
-0.27783201171875,0.09688284912109375,0.9292101513671875
-0.2805066015625,0.110852998046875,1.0963314404296876
-0.31916658203125,0.13805802490234376,1.1661291552734374
-0.327676640625,0.19197789794921874,1.0722463134765625
-0.23552486328125,0.0780108935546875,0.9488714794921875
-0.2878009375,0.02972809814453125,0.921099853515625
-0.25011353515625,0.11354899169921875,0.945676513671875
-0.24938410156250002,0.01796376220703125,0.8930824609375
-0.1774133203125,0.09247122314453125,0.9442019140625
-0.2688356640625,-0.11928682373046876,0.7979707861328125
-0.25351755859375,-0.01830960693359375,0.8997181591796874
-0.23017568359375,0.09345158447265625,0.9704989404296875
-0.38578818359375,0.01159141357421875,0.9803296044921875
-0.2552195703125,0.13707766357421874,1.0545511181640626
-0.2435486328125,0.1079119140625,1.0130165625
-0.24427806640625,0.10276501708984374,1.0801108447265624
-0.14896541015625,0.12237224365234375,1.0280083251953125
-0.29096181640625,0.0848734228515625,0.912252255859375
-0.28634207031250003,0.127519140625,0.9638632421875
-0.1900568359375,0.079481435546875,0.9400238818359374
-0.16647181640625,-0.020515419921875,0.9105318896484375
-0.31965287109375,-0.01683906494140625,1.0388220556640624
-0.25059982421875,-0.011201987304687501,1.138357529296875
-0.3359435546875,-0.1474722119140625,1.001711298828125
-0.34834392578125,0.13658748291015624,1.0589749169921876
-0.179844765625,-0.006790361328125,0.9292101513671875
-0.28074974609375003,-0.09673851318359375,0.9007012255859375
-0.2027003515625,-0.05213207275390625,0.9992536328125
-0.232363984375,-0.08742508056640624,0.95304951171875
-0.19419029296875,-0.03522083984375,0.9874568359375
-0.38092529296875,-0.05017135009765625,0.9282270849609375
-0.29144810546875,0.02286556884765625,1.07494974609375
-0.15869119140625,0.034384814453125,1.0112961962890625
-0.39065107421875,-0.0876701708984375,0.9051250244140625
-0.20026890625,0.06673673828125,0.920116787109375
-0.1628246484375,0.009140510253906251,0.8707177001953125
-0.2921775390625,0.0686974609375,0.87637033203125
-0.21972046875,0.13511694091796875,0.902421591796875
-0.082586953125,0.07384435791015626,0.8913620947265625
-0.13291787109375,0.21207530517578124,1.0122792626953125
-0.23260712890625002,0.11747043701171875,1.1464678271484374
-0.23406599609375,0.14345001220703124,1.154086591796875
-0.3077387890625,0.0162481298828125,1.0196522607421874
-0.20804953125,0.04786478271484375,1.00416896484375
-0.17376615234375,-0.12811007568359375,1.0110504296875
-0.16015005859375,-0.18055940673828125,1.2069264111328124
-0.3301080859375,-0.295016591796875,1.1474508935546874
-0.3690112109375,-0.11561046875,0.8176321142578125
-0.38578818359375,-0.15016820556640625,0.56375521484375
-0.20197091796875,-0.20163717529296876,0.427108984375
-0.10082279296875,0.017718671875,0.4362023486328125
-0.01474962890625,0.0103659619140625,0.5463057861328124
-0.08720669921875,-0.030073942871093752,0.7507835986328125
-0.20342978515625,-0.0906112548828125,0.8682600341796876
-0.17084841796875,0.07580508056640625,0.9228202197265625
-0.2970404296875,0.13168567626953126,1.0810939111328124
-0.42469130859375,0.18609572998046875,1.2253589062499999
-0.45095091796875,0.2152614794921875,1.238630302734375
-0.29339326171875,0.14246965087890626,1.233714970703125
-0.4900971875,0.22923162841796874,1.106899404296875
-0.24914095703125,0.22334946044921875,1.0481611865234375
-0.19710802734375,0.04149243408203125,0.9665666748046875
-0.18786853515625002,0.11649007568359375,0.92945591796875
-0.2085358203125,0.014777587890624999,0.900455458984375
-0.2124261328125,0.040266982421875,0.8761245654296875
-0.21972046875,0.12923477294921876,0.87440419921875
-0.1803310546875,-0.01928996826171875,0.8933282275390625
-0.34737134765625,0.0486000537109375,1.0835515771484374
-0.21801845703125,0.03364954345703125,1.1093570703125
-0.32694720703125,0.0358553564453125,1.156052724609375
-0.345183046875,0.0211499365234375,1.2079094775390624
-0.44049570312499997,-0.0097314453125,1.1258234326171874
-0.31746457031249997,-0.03522083984375,1.1135351025390625
-0.329621796875,0.0133070458984375,0.96484630859375
-0.257651015625,-0.055073156738281254,0.811979482421875
-0.17814275390625,-0.0259074072265625,0.8498275390625
-0.25862359375,-0.01830960693359375,0.7950215869140624
-0.2318776953125,0.0010525292968750002,0.724486572265625
-0.2065906640625,-0.03693647216796875,0.687130048828125
-0.15091056640625,-0.03644629150390625,0.578992744140625
-0.13389044921874999,0.0740894482421875,0.6185611669921875
-0.19029998046875,0.0495804150390625,0.69745224609375
-0.23139140625,0.04345315673828125,0.783470556640625
-0.3213548828125,0.06673673828125,0.8161575146484374
-0.21850474609375,-0.06193568603515625,0.8783364648437499
-0.1229489453125,-0.27222319091796876,0.99040603515625
0.008835390624999998,-0.14771730224609375,1.3416065087890625
-0.08526154296874999,-0.03350520751953125,1.62939919921875
-0.64692541015625,0.11992134033203125,1.5772966796875
-0.4234755859375,0.11354899169921875,1.2713172607421874
-0.448276328125,-0.19403937500000001,1.1604765234375
-0.34810078125,-0.04428918212890625,1.0933822412109375
-0.01280447265625,0.0030132519531249997,0.9501003125
-0.15066742187499998,0.06453092529296875,0.8633447021484375
-0.33667298828125003,0.19786006591796876,0.80558955078125
-0.30846822265625,0.19687970458984375,0.65223119140625
-0.25011353515625,0.23143744140625,0.6755790185546875
-0.20732009765625,0.08413815185546875,0.975168505859375
0.002756777343749999,0.03168882080078125,1.220935107421875
-0.32354318359375,-0.01144707763671875,1.465718642578125
-0.52194912109375,0.04002189208984375,1.47800697265625
-0.30944080078125,0.15031254150390624,1.221426640625
-0.46651216796875,0.15227326416015624,1.06708521484375
-0.2552195703125,0.1280093212890625,1.083305810546875
-0.0850183984375,-0.00409436767578125,1.161951123046875
-0.109819140625,0.07482471923828125,1.2745122265625
-0.26616107421875,0.01894412353515625,1.244528701171875
-0.13048642578125,-0.093062158203125,1.090187275390625
-0.30117388671875,0.0633054736328125,0.9940925341796875
-0.19613544921875,0.0008074389648437498,1.0973145068359376
-0.22701480468750002,-0.1273748046875,1.1828412841796876
-0.25740787109375,-0.10311086181640625,1.260749296875
-0.2450075,-0.112669384765625,0.9798380712890625
-0.3189234375,-0.0239466845703125,0.7394783349609375
-0.24719580078125,-0.014633251953124999,0.59521333984375
-0.27807515625,-0.09232688720703125,0.60307787109375
-0.1093328515625,0.04712951171875,0.6905707812499999
-0.1375376171875,-0.04772044677734375,0.7200627734375
-0.23406599609375,-0.00777072265625,0.844420673828125
-0.1715778515625,-0.00605509033203125,0.975168505859375
-0.2532744140625,-0.01634888427734375,1.02579642578125
-0.2513292578125,0.14099910888671874,0.9835245703125
-0.22725794921875,0.14982236083984374,1.0707717138671875
-0.21996361328125,0.2177123828125,1.1833328173828126
-0.2221519140625,0.1554594384765625,1.137374462890625
-0.21193984375,0.08903995849609375,1.0742124462890625
-0.2202067578125,0.0037485229492187503,1.0621698828125
-0.14993798828125,-0.13056097900390626,1.10640787109375
-0.22968939453125,0.00276816162109375,1.2138078759765625
-0.33521412109375,-0.08227818359375,1.137374462890625
-0.28464005859375,-0.138158779296875,1.087238076171875
-0.2172890234375,0.04345315673828125,1.13196759765625
-0.37363095703125,-0.144040947265625,0.9532952783203125
-0.10325423828125,0.03610044677734375,1.0304659912109375
-0.21704587890625,0.1035002880859375,0.9768888720703125
-0.1560166015625,0.18609572998046875,0.9638632421875
-0.13680818359375,0.13315621826171875,1.0019570654296874
-0.23066197265625,0.14050892822265626,1.1302472314453125
-0.13340416015625,0.205948046875,1.18603625
-0.22750109375,0.103010107421875,1.1415524951171876
-0.14312994140625,0.1691844970703125,1.1346710302734375
-0.19029998046875,0.09737302978515625,1.016948828125
-0.038091503906250004,0.056933125,0.97074470703125
-0.218747890625,-0.3312899609375,0.9036504248046875
-0.1200312109375,-0.35212263916015624,0.93928658203125
-0.20197091796875,-0.38790582763671877,0.7571735302734375
-0.23552486328125,-0.371484775390625,0.5202545263671875
-0.2785614453125,-0.35555390380859375,0.3836082958984375
-0.3106565234375,-0.36829860107421875,0.384345595703125
-0.218747890625,-0.277370087890625,0.29734421875
-0.11832919921875,-0.2553119580078125,0.66402798828125
-0.008184726562500001,-0.100905048828125,1.052830751953125
-0.1034973828125,0.050070595703125,1.2285538720703124
-0.1025248046875,0.17040994873046875,1.42688751953125
-0.35320681640625,0.28070059814453124,1.470633974609375
-0.6379290625,0.18413500732421875,1.295648154296875
-0.5469930078125,0.15423398681640624,0.979100771484375
-0.331566953125,0.12825441162109374,0.8267254785156251
-0.2240970703125,0.1858506396484375,0.7144101416015625
-0.24306234375,0.2748184301757812,1.0791277783203126
-0.2333365625,0.29736674072265623,1.2076637109375
-0.25351755859375,0.02727719482421875,1.159984990234375
-0.15091056640625,0.07776580322265625,1.047915419921875
-0.197351171875,0.14786163818359374,0.8780906982421874
-0.1813036328125,0.05178622802734375,0.8289373779296875
-0.06410796875,-0.029338671875,0.88423486328125
-0.240144609375,-0.05115171142578125,0.9975332666015625
-0.1861665234375,-0.04428918212890625,1.0692971142578125
-0.40815748046875,-0.1626678125,1.0530765185546875
-0.38505875,-0.14109986328125,1.0280083251953125
-0.37752126953125,-0.07051384765625,0.929947451171875
-0.15747546875,0.12090170166015625,0.67484171875
0.04992681640625,-0.046004814453125,0.8655566015625
0.14572576171875,-0.01978014892578125,1.189968515625
0.074970703125,-0.25506686767578124,1.571889814453125
-0.74418322265625,-0.1386489599609375,1.674128720703125
-0.40183572265625,-0.15899145751953125,1.0157199951171876
-0.2075632421875,-0.03644629150390625,0.9011927587890625
0.067190078125,-0.17467723876953126,0.99237216796875
0.1736873828125,-0.2572726806640625,1.4745662402343749
-0.28755779296875,0.18217428466796876,1.769486162109375
-0.56522884765625,0.2137909375,1.318258681640625
-0.39502767578125,0.1878113623046875,0.704825244140625
-0.2678630859375,0.13560712158203125,0.4052357568359375
-0.2328502734375,0.13070531494140625,0.362718134765625
0.036797011718749995,-0.0298288525390625,0.50182203125
0.0307183984375,-0.20972515625,0.989914501953125
-0.4925286328125,-0.03203466552734375,1.3435726416015625
-0.675859609375,-0.02615249755859375,1.272054560546875
-0.68145193359375,-0.10605194580078126,1.16735798828125
-0.17473873046875,0.0152677685546875,0.9972875
0.01491400390625,-0.06095532470703125,1.0692971142578125
-0.05948822265625,0.071638544921875,0.9252778857421875
-0.1944334375,-0.0038492773437499997,0.8176321142578125
-0.156502890625,-0.1935491943359375,0.7613515625
-0.26956509765625,-0.03056412353515625,1.0457035205078125
-0.30311904296875003,-0.0523771630859375,1.4187772216796875
-0.284883203125,-0.06046514404296875,1.581720478515625
-0.34931650390625,0.03168882080078125,1.466701708984375
-0.31478998046875,0.03413972412109375,1.0818312109375
-0.3690112109375,-0.10262068115234375,0.8579378369140624
-0.356853984375,-0.06585713134765625,0.786419755859375
-0.345183046875,0.04443351806640625,0.8019030517578125
-0.259596171875,0.0829127001953125,0.80558955078125
-0.16890326171875,0.05864875732421875,0.91765912109375
-0.24962724609375,0.008895419921875,0.93437125
-0.216802734375,-0.1288453466796875,1.0582376171875
-0.23990146484375,-0.05458297607421875,1.2088925439453124
-0.30749564453125,-0.03399538818359375,1.2791817919921875
-0.40961634765625,0.05325677001953125,1.224867373046875
-0.2795340234375,0.10227483642578125,1.0948568408203125
-0.34931650390625,-0.0337502978515625,0.9591936767578125
-0.2970404296875,0.03855135009765625,1.009575830078125
-0.24962724609375,-0.01144707763671875,1.0196522607421874
-0.170118984375,-0.00801581298828125,1.00023669921875
-0.25400384765625,0.02360083984375,1.0034316650390624
-0.23844259765625,-0.12320826904296875,0.926998251953125
-0.2581373046875,-0.13644314697265625,0.8299204443359375
-0.28512634765625,-0.0798272802734375,0.8048522509765625
-0.26616107421875,-0.14232531494140624,0.820335546875
-0.19078626953125,-0.12026718505859375,0.83901380859375
-0.18932740234375,-0.06438658935546875,0.8938197607421875
-0.2299325390625,-0.1111988427734375,0.9464138134765625
-0.2357680078125,-0.16928525146484374,0.9292101513671875
-0.20342978515625,-0.11928682373046876,0.96681244140625
-0.31478998046875,-0.13105115966796876,1.0009739990234374
-0.24136033203125,-0.12320826904296875,1.05725455078125
-0.2333365625,-0.1131595654296875,0.9975332666015625
-0.2785614453125,-0.06659240234375,0.9532952783203125
-0.17571130859375,-0.0288484912109375,0.9061080908203125
-0.14556138671875,-0.1719812451171875,0.8392595751953125
-0.18251935546875,0.00399361328125,0.9257694189453125
-0.2027003515625,-0.038161923828125,1.000728232421875
-0.19759431640625,-0.01193725830078125,1.0112961962890625
-0.25935302734375,0.03168882080078125,1.0818312109375
-0.24670951171875,0.04394333740234375,1.10837400390625
-0.21461443359375,0.063795654296875,1.13196759765625
-0.2260422265625,0.05178622802734375,1.1130435693359375
-0.25351755859375,0.0819323388671875,1.087238076171875
-0.26567478515625,0.10227483642578125,1.0778989453125
-0.3048210546875,0.04933532470703125,1.0117877294921875
-0.29533841796875,0.0162481298828125,0.973202373046875
-0.299471875,-0.02958376220703125,0.935845849609375
-0.19321771484375,-0.02664267822265625,0.904387724609375
-0.20148462890625,-0.02664267822265625,0.8852179296875
-0.17571130859375,0.01845394287109375,0.9547698779296875
-0.1910294140625,-0.0562986083984375,0.9690243408203125
-0.27199654296875,-0.0229663232421875,1.0771616455078126
-0.25497642578125,-0.06389640869140625,1.112797802734375
-0.32791978515625,-0.13203152099609375,1.0759328125
-0.2532744140625,-0.12663953369140624,1.08281427734375
-0.21704587890625,-0.167569619140625,0.9778719384765625
-0.2338228515625,-0.154824921875,1.0078554638671875
-0.21412814453125,-0.110708662109375,1.07494974609375
-0.33472783203125,-0.14575657958984375,1.0019570654296874
-0.330594375,-0.10188541015625,0.925032119140625
-0.251815546875,-0.06389640869140625,0.8215643798828125
-0.2027003515625,-0.128355166015625,0.743164833984375
-0.2542469921875,-0.11977700439453125,0.7316138037109375
-0.18446451171875,-0.11977700439453125,0.7741314257812499
-0.22531279296875,-0.10065995849609374,0.859166669921875
-0.27880458984375,-0.046740085449218746,0.9331424169921875
-0.26664736328125,-0.0016434643554687498,0.973202373046875
-0.27394169921875,0.02678701416015625,0.97664310546875
-0.34591248046875,0.01159141357421875,0.9886856689453125
-0.35904228515625003,-0.0028689160156250004,0.9714820068359376
-0.34493990234375,0.02972809814453125,0.926998251953125
-0.26956509765625,-0.032279755859375,0.9100403564453124
-0.27199654296875,-0.0881603515625,0.8498275390625
-0.197351171875,-0.00703545166015625,0.8441749072265625
-0.19564916015625,-0.01830960693359375,0.853268271484375
-0.30652306640625,-0.01291761962890625,0.9149556884765625
-0.27613,0.03315936279296875,1.0329236572265625
-0.282938046875,0.1338914892578125,1.086255009765625
-0.27345541015625,0.13340130859375,1.056763017578125
-0.269321953125,0.06747200927734374,1.075441279296875
-0.2279873828125,0.05962911865234375,1.138357529296875
-0.30166017578125,-0.015368522949218751,1.103950205078125
-0.2445212109375,-0.044534272460937496,1.1499085595703125
-0.2688356640625,0.02531647216796875,1.0609410498046874
-0.34250845703125,-0.05213207275390625,1.002694365234375
-0.329621796875,-0.0347306591796875,0.9709904736328125
-0.27199654296875,-0.0999246875,0.8780906982421874
-0.19759431640625,-0.04870080810546875,0.7869112890625
-0.140941640625,-0.07835673828125,0.739232568359375
-0.14896541015625,-0.14379585693359376,0.7741314257812499
-0.1842213671875,-0.13129625,0.8984893261718749
-0.2192341796875,-0.14428603759765624,0.9609140429687499
-0.25983931640625,-0.11536537841796875,0.938303515625
-0.210967265625,-0.0999246875,0.8908705615234375
-0.2445212109375,-0.144040947265625,0.80558955078125
-0.19175884765625,-0.16291290283203125,0.845403740234375
-0.2255559375,-0.15850127685546875,0.8884128955078126
-0.22531279296875,-0.11683592041015625,0.9621428759765625
-0.2722396875,-0.09036616455078125,0.963371708984375
-0.2124261328125,-0.04821062744140625,0.8918536279296875
-0.19856689453125,0.0211499365234375,0.8323781103515625
-0.20148462890625,-0.01561361328125,0.8235305126953125
-0.16549923828125,0.0309535498046875,0.8825144970703125
-0.13826705078125,0.1000690234375,0.9972875
-0.15625974609374998,0.09884357177734375,1.17129025390625
-0.21121041015625,0.06624655761718751,1.297614287109375
-0.28974609375,0.11967625,1.3779799658203125
-0.3408064453125,0.13658748291015624,1.264190029296875
-0.34980279296875,0.09418685546875,1.1553154248046875
-0.29679728515625,0.11599989501953126,1.1553154248046875
-0.20586123046875,0.05325677001953125,1.1268064990234374
-0.20415921875,0.03953171142578125,1.1132893359375
-0.24816837890625,-0.01193725830078125,1.1646545556640624
-0.1501811328125,-0.03987755615234375,1.097068740234375
-0.1988100390625,-0.1425704052734375,0.97467697265625
-0.28464005859375,-0.1651187158203125,0.9950756005859375
-0.26713365234374997,-0.1886473876953125,0.98843990234375
-0.36050115234375,-0.2102153369140625,0.9419900146484375
-0.346155625,-0.13717841796875,0.9301932177734376
-0.27394169921875,-0.18252012939453124,0.8254966455078125
-0.18057419921875,-0.00605509033203125,0.8033776513671875
-0.1190586328125,-0.0092412646484375,0.8019030517578125
-0.143859375,-0.10311086181640625,0.957473310546875
-0.1637972265625,-0.06144550537109375,1.1966042138671875
-0.39867484375,-0.06291604736328126,1.26959689453125
-0.3145468359375,-0.069533486328125,1.166374921875
-0.2892598046875,-0.023456503906250002,0.969270107421875
-0.2377131640625,0.0152677685546875,0.9149556884765625
-0.20002576171875,-0.03301502685546875,1.0196522607421874
-0.240144609375,0.00570924560546875,1.1184504345703126
-0.2211793359375,-0.032279755859375,1.050864619140625
-0.23990146484375,-0.04085791748046875,0.9822957373046874
-0.25497642578125,-0.09771887451171875,0.911269189453125
-0.19321771484375,-0.06046514404296875,0.918150654296875
-0.14799283203125,-0.0170841552734375,0.9267524853515625
-0.15480087890625,-0.0621807763671875,0.9501003125
-0.22142248046875002,-0.08644471923828125,1.02776255859375
-0.33983386718749997,0.05031568603515625,1.1164843017578125
-0.19516287109375,0.0995788427734375,1.034152490234375
-0.29485212890625,0.108892275390625,0.829674677734375
-0.0772377734375,0.0789912548828125,0.827708544921875
-0.2445212109375,-0.0621807763671875,0.79772501953125
-0.0869635546875,0.021640117187500002,0.9095488232421876
-0.17765646484375,-0.0016434643554687498,0.8648193017578125
-0.269321953125,0.01183650390625,0.977626171875
-0.2425760546875,0.01747358154296875,1.07494974609375
-0.3500459375,-0.00507472900390625,1.06708521484375
-0.17327986328125,0.15227326416015624,1.0211268603515624
-0.2824517578125,0.0010525292968750002,0.906353857421875
-0.2309051171875,-0.01879978759765625,0.9749227392578125
-0.13826705078125,0.0059543359375,1.0425085546875
-0.17692703125,-0.09673851318359375,0.925032119140625
-0.28318119140625,-0.046740085449218746,0.8589209033203125
-0.09109701171875,-0.05605351806640625,0.80952181640625
-0.220693046875,0.0152677685546875,0.81148794921875
-0.13000013671875,0.0025230712890624996,1.1408151953125
-0.3865176171875,-0.0562986083984375,1.3489795068359376
-0.36828177734375,-0.060710234375,1.4610490771484375
-0.2746711328125,-0.24281235107421875,1.2201978076171875
-0.19248828125,-0.19085320068359374,0.8903790283203125
-0.14969484375,-0.17663796142578125,0.7456225
-0.33642984375,-0.1621776318359375,0.7129355419921874
-0.21850474609375,-0.065612041015625,0.7065456103515625
-0.23649744140625,-0.037916833496093746,0.6726298193359375
-0.10519939453125,0.07433453857421875,0.7620888623046875
-0.11298001953125,0.04982550537109375,0.7984623193359375
-0.10276794921875,-0.0945327001953125,0.914218388671875
-0.1219763671875,-0.0739451123046875,1.0260421923828125
-0.22677166015625,-0.09183670654296874,1.1120605029296875
-0.28804408203125,0.064776015625,1.1494170263671875
-0.2955815625,0.0270321044921875,1.1253318994140624
-0.26081189453125,0.0584036669921875,1.141306728515625
-0.3408064453125,0.1652630517578125,1.16342572265625
-0.25692158203125,0.07972652587890625,1.1100943701171875
-0.14993798828125,-0.00752563232421875,1.0697886474609375
-0.12829812499999999,0.08364797119140625,1.1774344189453125
-0.067025703125,-0.05017135009765625,1.113780869140625
-0.156502890625,-0.010221625976562499,1.1105859033203125
-0.2902323828125,0.057913486328125,1.0545511181640626
-0.22190876953125,0.03144373046875,0.9095488232421876
-0.28026345703125,0.0358553564453125,0.76430076171875
-0.0777240625,0.016738310546875,0.669434853515625
-0.009886738281250002,-0.10997339111328125,0.7684787939453125
-0.15188314453125001,-0.10065995849609374,1.00613509765625
-0.3339983984375,-0.0661022216796875,1.2351895703125
-0.30068759765624997,-0.022476142578125,1.28335982421875
-0.33715927734375,0.17237067138671874,1.2074179443359374
-0.2581373046875,0.05619785400390625,1.0034316650390624
0.001784199218750001,-0.038161923828125,1.054796884765625
-0.1307295703125,0.1789881103515625,1.3106399169921874
-0.23795630859375,-0.02321141357421875,1.2801648583984375
-0.22190876953125,-0.024436865234375,1.1435186279296874
-0.39113736328125,-0.04379900146484375,1.015474228515625
-0.292663828125,-0.12516899169921875,0.9756600390625
-0.21972046875,-0.2719781005859375,0.781504423828125
-0.19662173828125,-0.1043363134765625,0.6571465234375
0.032420410156249996,-0.06879821533203125,0.7335799365234374
-0.076751484375,-0.08350363525390625,1.0181776611328126
-0.337402421875,-0.00850599365234375,1.300071953125
-0.2075632421875,-0.0749254736328125,1.3440641748046875
-0.1511537109375,-0.05311243408203125,1.33841154296875
-0.49763466796875,0.08364797119140625,1.12213693359375
-0.3729015234375,-0.08889562255859375,0.9129895556640625
-0.23309341796875,-0.0210056005859375,0.7316138037109375
-0.158448046875,0.01845394287109375,0.6043067041015625
-0.005996425781250002,-0.08350363525390625,0.6492819921874999
-0.043683828125000004,-0.08154291259765625,0.8599039697265625
-0.12221951171875,0.028502646484374998,1.032186357421875
-0.195406015625,0.0883046875,1.028254091796875
-0.2736985546875,0.10031411376953125,1.009084296875
-0.21510072265625,0.10080429443359375,1.0661021484375
-0.19029998046875,-0.01169216796875,1.119187734375
-0.21704587890625,-0.05262225341796875,1.123611533203125
-0.09547361328125001,-0.02517213623046875,1.13786599609375
-0.22871681640625,0.0897752294921875,0.9739396728515625
-0.21899103515625,0.093206494140625,0.897506259765625
-0.21655958984375,0.1157548046875,0.8687515673828125
-0.3033621875,0.03757098876953125,0.8849721630859375
-0.18884111328125,0.0936966748046875,1.070525947265625
-0.18884111328125,-0.03595611083984375,1.106899404296875
-0.12173322265625,-0.07370002197265625,1.0189149609375
-0.0509781640625,-0.05654369873046875,0.883251796875
-0.03760521484375,0.03462990478515625,0.8707177001953125
-0.22628537109375,-0.11487519775390626,0.914218388671875
-0.2766162890625,0.0995788427734375,1.079865078125
-0.22725794921875,0.0020328906249999995,1.128526865234375
-0.2853694921875,-0.0808076416015625,1.1469593603515624
-0.28561263671875,-0.0249270458984375,1.0975602734375
-0.10325423828125,-0.2523708740234375,0.994829833984375
0.046522792968750004,-0.1626678125,0.9940925341796875
0.0394716015625,-0.17957904541015626,1.134425263671875
-0.308225078125,-0.212666240234375,1.214053642578125
-0.18640966796875,-0.1131595654296875,1.11230626953125
-0.19710802734375,-0.0602200537109375,1.237647236328125
-0.2289599609375,0.12286242431640625,1.2388760693359375
-0.22336763671875,-0.19036302001953126,1.2025026123046876
-0.25449013671875,-0.0141430712890625,1.003677431640625
-0.224583359375,0.0505607763671875,0.87243806640625
-0.1005796484375,-0.1317864306640625,0.7812586572265625
-0.07310431640625001,-0.03522083984375,0.845403740234375
-0.2036729296875,-0.01046671630859375,0.8984893261718749
-0.244034921875,0.085363603515625,1.089204208984375
-0.2912049609375,0.1319307666015625,1.1027213720703124
-0.3164919921875,0.04345315673828125,1.0294829248046875
-0.1375376171875,0.1142842626953125,0.9972875
-0.14191421875,-0.034240478515625,0.8694888671875
-0.14847912109375,-0.02468195556640625,0.855234404296875
-0.12951384765625001,0.019679394531249998,0.893573994140625
-0.21704587890625,0.04124734375,0.9316678173828125
-0.36220316406249997,-0.01683906494140625,0.981066904296875
-0.2805066015625,0.01453249755859375,0.91765912109375
-0.0840458203125,0.18021356201171876,0.9292101513671875
-0.18495080078125,-0.0425735498046875,0.853268271484375
-0.06848457031249999,-0.0097314453125,0.87931953125
-0.1477496875,-0.0396324658203125,0.9614055761718749
-0.3067662109375,-0.1660990771484375,1.050864619140625
-0.34737134765625,-0.0023787353515625003,1.0501273193359375
-0.30919765625,-0.08227818359375,0.803131884765625
-0.1633109375,-0.02223105224609375,0.7611057958984375
-0.06799828125,-0.0259074072265625,0.6795112841796875
-0.06751199218750001,-0.016593974609375,0.7532412646484374
-0.12854126953125,0.0819323388671875,0.98254150390625
