ax,ay,az
-0.1579617578125,0.075559990234375,0.9614055761718749
-0.18251935546875,0.09810830078125,1.0747039794921875
-0.15285572265625,0.02972809814453125,1.0835515771484374
-0.008671015625,0.09786321044921875,1.1037044384765624
-0.12124693359375,0.064776015625,1.0228472265625
-0.14021220703125,0.0378160791015625,1.0098215966796875
-0.25011353515625,0.01183650390625,1.0071181640625
-0.15723232421875,-0.011201987304687501,0.9857364697265625
-0.16793068359375,0.05570767333984375,1.0621698828125
-0.1550440234375,-0.0259074072265625,1.0933822412109375
-0.1540714453125,-0.040122646484374996,1.0919076416015625
-0.1696326953125,-0.00581,1.15556119140625
-0.226528515625,0.02752228515625,1.166866455078125
-0.23844259765625,-0.03129939453125,1.1046875048828124
-0.17571130859375,-0.037916833496093746,1.0226014599609374
-0.12416466796875,0.00423870361328125,0.9675497412109375
-0.04100923828125,-0.01487834228515625,1.1014925390624999
-0.13389044921874999,-0.051886982421875,1.2138078759765625
-0.148722265625,-0.02419177490234375,1.2659103955078126
-0.17522501953125,0.026051743164062502,1.1395863623046876
-0.19637859375,0.01208159423828125,1.0181776611328126
-0.28609892578125,0.08413815185546875,0.950591845703125
-0.33035123046875,0.0133070458984375,0.899472392578125
-0.1803310546875,-0.010221625976562499,0.869980400390625
-0.16938955078125,0.02972809814453125,0.9238032861328125
-0.12270580078125,-0.09918941650390625,0.8783364648437499
-0.032012890625,-0.09183670654296874,0.812962548828125
0.035338144531250004,-0.01879978759765625,0.8318865771484375
-0.013533906250000002,0.09100068115234375,0.9749227392578125
-0.15747546875,0.096147578125,1.203239912109375
-0.3155194140625,-0.0371815625,1.3514371728515624
-0.2644590625,0.01747358154296875,1.3059703515625
-0.2153438671875,0.10962754638671875,1.1184504345703126
-0.1258666796875,0.13315621826171875,0.9660751416015625
-0.050491875000000006,0.095167216796875,0.911269189453125
-0.1560166015625,0.21256548583984375,0.9837703369140625
-0.1433730859375,0.1603612451171875,1.0638902490234374
-0.07018658203125,0.1868310009765625,1.236664169921875
-0.09255587890625,0.21011458251953125,1.286800556640625
-0.026177421875,0.1868310009765625,1.2541135986328125
-0.09304216796875,0.13756784423828125,1.106899404296875
-0.1803310546875,0.1191860693359375,1.0147369287109376
-0.190543125,0.075559990234375,0.925032119140625
-0.1842213671875,0.067717099609375,0.899472392578125
-0.1774133203125,0.14933218017578126,0.90193005859375
-0.0490330078125,0.157910341796875,0.9174133544921875
-0.04344068359375,0.18119392333984374,1.0599579833984376
-0.089395,0.0280124658203125,1.17718865234375
-0.08720669921875,0.1231075146484375,1.211104443359375
-0.06921400390625,0.16477287109375,1.0806023779296874
-0.20488865234375,0.16624341308593749,0.9704989404296875
-0.2250696484375,0.0995788427734375,0.8766160986328125
-0.21850474609375,0.11599989501953126,0.837539208984375
-0.20415921875,0.11992134033203125,0.8063268505859374
-0.174981875,0.17972338134765625,0.7711822265625
-0.0714023046875,0.1819291943359375,0.74463943359375
-0.07383375,0.18805645263671875,0.771673759765625
-0.031769746093749995,0.21893783447265625,0.802148818359375
-0.049519296875,0.22482000244140626,0.922082919921875
-0.10374052734375,0.232417802734375,1.0368559228515626
-0.17668388671875,0.2748184301757812,1.063644482421875
-0.20926525390625,0.2603581005859375,1.0560257177734376
-0.2552195703125,0.21967310546875,0.9714820068359376
-0.14021220703125,0.22825126708984375,0.8761245654296875
-0.14312994140625,0.24540759033203124,0.9051250244140625
-0.11881548828124999,0.11845079833984375,0.8721922998046875
-0.01231818359375,0.142224560546875,0.9100403564453124
-0.12343523437500001,0.21109494384765626,0.986965302734375
-0.111764296875,0.17727247802734375,1.00613509765625
-0.20197091796875,0.175556845703125,1.0395593554687501
-0.18203306640625,0.044188427734375,0.9815584374999999
-0.174009296875,0.20325205322265624,0.9793465380859375
-0.15382830078125,0.10423555908203125,0.8594124365234375
-0.04854671875,0.108892275390625,0.8564632373046875
-0.14799283203125,0.14050892822265626,0.872929599609375
-0.164283515625,0.13217585693359374,0.9036504248046875
-0.14021220703125,0.205948046875,0.9601767431640625
-0.15188314453125001,0.19442880126953124,1.04742388671875
-0.10617197265625,0.16403760009765625,1.0850261767578124
-0.0996070703125,0.09051050048828126,1.196358447265625
-0.070916015625,0.138303115234375,1.2354353369140625
-0.15334201171875,0.11967625,1.2064348779296874
-0.19905318359375002,-0.057278969726562504,1.0471781201171875
-0.11103486328125,0.0035034326171875,0.96681244140625
-0.174981875,0.0069346972656249995,0.935845849609375
-0.19564916015625,-0.04306373046875,0.9193794873046874
-0.23114826171875,0.080461796875,0.95698177734375
-0.206104375,0.05276658935546875,0.9493630126953125
-0.25740787109375,0.07923634521484375,1.0179318945312499
-0.121490078125,0.0946770361328125,1.0201437939453124
-0.1180860546875,0.165753232421875,1.135408330078125
-0.11395259765625,0.08266760986328126,1.0747039794921875
-0.212912421875,0.20472259521484376,1.1381117626953126
-0.28123603515625,0.13511694091796875,1.0589749169921876
-0.31235853515625,0.0868341455078125,0.96484630859375
-0.29169125,0.183399736328125,0.968287041015625
-0.32475890625,0.16795904541015624,1.0019570654296874
-0.337402421875,0.1515379931640625,0.999745166015625
-0.2843969140625,0.12286242431640625,1.0103131298828125
-0.2542469921875,0.05276658935546875,0.9729566064453125
-0.28755779296875,0.03021827880859375,0.89603166015625
-0.24938410156250002,0.06453092529296875,0.8623616357421875
-0.26421591796875,0.08168724853515624,0.8535140380859375
-0.18689595703125,0.00987578125,0.8441749072265625
-0.21972046875,0.08168724853515624,0.93437125
-0.20464550781250002,0.0633054736328125,0.9100403564453124
-0.20026890625,0.0211499365234375,0.9272440185546875
-0.13972591796875,0.05105095703125,0.9488714794921875
-0.17182099609375,0.07531489990234375,0.9931094677734374
-0.1725504296875,0.15962597412109375,1.0717547802734375
-0.315033125,0.1231075146484375,1.0444746875
-0.16598552734375,0.093206494140625,1.034152490234375
-0.16549923828125,0.14197947021484375,1.0889584423828125
-0.25643529296875,0.096147578125,1.0865007763671874
-0.252788125,0.093206494140625,1.035135556640625
-0.29825615234375,0.04443351806640625,0.9901602685546875
-0.1676875390625,0.04884514404296875,0.9614055761718749
-0.25303126953125,0.01698340087890625,1.0108046630859375
-0.16938955078125,0.026541923828125,0.94125271484375
-0.2124261328125,0.1064413720703125,0.9144641552734375
-0.2177753125,-0.0175743359375,0.9041419580078125
-0.1832487890625,0.0740894482421875,1.0385762890625
-0.23455228515625,0.1250682373046875,1.1621968896484376
-0.26372962890625,0.11379408203125,1.1744852197265625
-0.19224513671875,0.108892275390625,1.20274837890625
-0.247925234375,0.116735166015625,1.20962984375
-0.24622322265625,0.13511694091796875,1.129509931640625
-0.26616107421875,0.06281529296875,0.9795923046875
-0.18203306640625,0.15913579345703124,0.973202373046875
-0.24427806640625,0.1260485986328125,0.992863701171875
-0.222638203125,0.1770273876953125,1.12312
-0.3106565234375,0.052031318359375,1.095102607421875
-0.2338228515625,0.0887948681640625,0.89504859375
-0.17960162109375,0.02041466552734375,0.8117337158203125
-0.1210037890625,-0.05115171142578125,0.7488174658203125
-0.19029998046875,0.0858537841796875,0.78592822265625
-0.22482650390625,0.12090170166015625,0.8790737646484375
-0.2435486328125,0.09982393310546875,0.980083837890625
-0.26227076171875,0.069677822265625,1.03169482421875
-0.29971501953125,0.1368325732421875,0.9636174755859375
-0.19248828125,0.128499501953125,0.796741953125
-0.1414279296875,0.1633023291015625,0.761843095703125
-0.18835482421875,0.17653720703125,0.7212916064453125
-0.082586953125,0.026296833496093748,0.7001556787109375
-0.0500055859375,0.19222298828125,0.8225474462890625
-0.07115916015625,0.1348718505859375,0.81148794921875
-0.28755779296875,0.12335260498046875,0.96484630859375
-0.31138595703125,0.03315936279296875,1.056271484375
-0.26761994140625,0.12972495361328126,0.9704989404296875
-0.25594900390624997,0.1936935302734375,0.8250051123046875
-0.26616107421875,0.14786163818359374,0.796741953125
-0.3048210546875,0.1682041357421875,0.7542243310546874
-0.10860341796875,0.222614189453125,0.7930554541015625
-0.0626491015625,0.24320177734375,0.8662939013671875
-0.07577890625,0.1211467919921875,0.8338527099609375
-0.19370400390625,0.22359455078125,0.87440419921875
-0.263486484375,0.19835024658203124,0.9680412744140625
-0.247925234375,0.2485937646484375,1.08871267578125
-0.23212083984375,0.261828642578125,1.18112091796875
-0.27588685546875,0.23217271240234374,1.2678765283203126
-0.35393625,0.16550814208984374,1.2177401416015625
-0.2318776953125,0.1270289599609375,0.994829833984375
-0.2722396875,0.0686974609375,0.8889044287109376
-0.29339326171875,0.10129447509765625,0.76036849609375
-0.25862359375,0.104970830078125,0.729401904296875
-0.16063634765625,0.08168724853515624,0.82328474609375
-0.18859796875,0.1280093212890625,0.901438525390625
-0.09547361328125001,0.134381669921875,0.9424815478515625
-0.18786853515625002,0.148106728515625,1.014491162109375
-0.23114826171875,0.1270289599609375,0.9867195361328125
-0.26518849609375,0.099088662109375,0.93142205078125
-0.20051205078125,0.20031096923828126,1.1032129052734374
-0.268349375,0.0250713818359375,1.181612451171875
-0.232363984375,0.0515411376953125,1.2391218359375
-0.29631099609375,0.1456558251953125,1.1720275537109375
-0.23844259765625,0.0530116796875,1.0112961962890625
-0.2843969140625,0.0133070458984375,0.941744248046875
-0.3320532421875,0.0642858349609375,0.9808211376953125
-0.3223274609375,0.09492212646484376,0.902913125
-0.31989601562500003,0.08658905517578125,0.8458952734375
-0.09061072265625,0.06109966064453125,0.7905977880859375
-0.12246265625,0.2201632861328125,0.9051250244140625
-0.12343523437500001,0.20619313720703125,1.0496357861328125
-0.1774133203125,0.13854820556640626,1.229782705078125
-0.1608794921875,0.1544790771484375,1.358564404296875
-0.224583359375,0.1103628173828125,1.3610220703125
-0.25084296875,0.03928662109375,1.264190029296875
-0.22701480468750002,-0.048455717773437504,1.1469593603515624
-0.27442798828125,0.05962911865234375,1.201273779296875
-0.28172232421875,-0.05997496337890625,1.2037314453125
-0.26178447265625,-0.1038461328125,1.2850801904296876
-0.224583359375,-0.08889562255859375,1.2359268701171875
-0.15358515625,0.077520712890625,1.2270792724609374
-0.08234380859375,0.0623251123046875,1.29319048828125
-0.15747546875,0.05570767333984375,1.3720815673828124
-0.16987583984375,0.05178622802734375,1.3165383154296875
-0.20415921875,0.1211467919921875,1.313343349609375
-0.323786328125,0.23707451904296875,1.3352165771484374
-0.4565432421875,0.00570924560546875,1.3216994140625
-0.45921783203125,0.021640117187500002,1.324157080078125
-0.30141703125,0.15472416748046874,1.2236385400390626
-0.3505322265625,0.06747200927734374,1.150154326171875
-0.37411724609375,-0.0592396923828125,1.1351625634765625
-0.28804408203125,-0.13987441162109376,1.0545511181640626
-0.17960162109375,-0.0749254736328125,1.0884669091796875
-0.26640421875,-0.04379900146484375,1.1617053564453126
-0.12562353515625,-0.053847705078125,1.1907058154296875
-0.16160892578125,-0.035711020507812496,1.18603625
-0.286828359375,0.0074248779296875,1.0869923095703125
-0.30627992187499997,-0.067572763671875,0.97860923828125
-0.3189234375,-0.09477779052734375,0.88620099609375
-0.362689453125,-0.04919098876953125,0.7960046533203124
-0.29631099609375,0.0373258984375,0.7119524755859374
-0.17303671874999998,0.1142842626953125,0.697943779296875
-0.037848359375,0.11649007568359375,0.75250396484375
0.04603650390625,0.16501796142578126,0.920116787109375
-0.07748091796875001,0.2098694921875,1.1961126806640625
-0.15966376953125,0.257907197265625,1.3135891162109374
-0.08137123046875,0.2270258154296875,1.3327589111328124
-0.2172890234375,0.1838899169921875,1.141306728515625
-0.249870390625,0.237319609375,0.9680412744140625
-0.2260422265625,0.21795747314453126,0.9324051171875
-0.25546271484375,0.1995756982421875,0.9537868115234375
-0.30919765625,0.16060633544921876,0.9048792578125
-0.2756437109375,0.15227326416015624,0.7748687255859374
-0.185680234375,0.143204921875,0.6279002978515625
-0.133161015625,0.1152646240234375,0.5192714599609375
-0.09595990234375,0.12090170166015625,0.4622536083984375
-0.07359060546875,0.12433296630859375,0.4735588720703125
-0.08769298828125,0.14099910888671874,0.5664586474609374
-0.14191421875,0.18168410400390625,0.71318130859375
-0.1890842578125,0.22776108642578125,0.791335087890625
-0.20804953125,0.2231043701171875,0.8333611767578125
-0.26664736328125,0.24246650634765626,0.8485987060546875
-0.284883203125,0.19810515625,0.6898334814453125
-0.31819400390625,0.19614443359375,0.661570322265625
-0.27588685546875,0.2378097900390625,0.6652568212890625
-0.28074974609375003,0.2610933715820313,0.76823302734375
-0.23406599609375,0.3093761669921875,0.7419360009765625
-0.18592337890625,0.30986634765625,0.863098935546875
-0.18495080078125,0.3338852001953125,0.97860923828125
-0.32743349609375,0.2961412890625,1.1336879638671875
-0.358799140625,0.26158355224609375,1.1125520361328125
-0.2357680078125,0.25521120361328126,1.043000087890625
-0.25473328125,0.18364482666015625,0.977134638671875
-0.166228671875,0.052031318359375,0.875878798828125
-0.23309341796875,0.10815700439453126,0.8210728466796875
-0.172064140625,0.085363603515625,0.6534600244140625
-0.174981875,-0.0327699365234375,0.6883588818359375
-0.209022109375,-0.0925719775390625,0.6795112841796875
-0.224583359375,-0.06267095703125,0.642892060546875
-0.0025924023437500013,-0.0386521044921875,0.6401886279296874
0.00421564453125,-0.09967959716796874,0.6178238671875
0.01588658203125,-0.0298288525390625,0.6972064794921875
-0.05511162109375,-0.07468038330078125,0.8242678125
-0.23455228515625,0.13364639892578126,1.109848603515625
-0.41058892578125,0.2848671337890625,1.2133163427734375
-0.44851947265625003,0.29295511474609376,1.179646318359375
-0.42225986328125,0.265750087890625,0.9783634716796875
-0.31478998046875,0.2726126171875,0.9129895556640625
-0.232363984375,0.28707294677734374,0.8033776513671875
-0.23260712890625002,0.25325048095703123,0.6804943505859375
-0.20586123046875,0.25177993896484374,0.736283369140625
-0.2581373046875,0.25030939697265625,0.788877421875
-0.32548833984375003,0.26697553955078124,0.8658023681640625
-0.30846822265625,0.3015332763671875,0.931913583984375
-0.30895451171875,0.34834552978515626,1.0555341845703126
-0.338375,0.371629111328125,1.1356540966796875
-0.24379177734375002,0.39221669921875,1.0919076416015625
-0.16890326171875,0.3505513427734375,1.0801108447265624
-0.25351755859375,0.2780046044921875,1.069542880859375
-0.25157240234375,0.2485937646484375,1.0584833837890626
-0.25838044921875,0.3378066455078125,1.0412797216796874
-0.32354318359375,0.27383806884765627,1.0697886474609375
-0.2678630859375,0.24981921630859374,1.051847685546875
-0.17765646484375,0.2936903857421875,1.0343982568359376
-0.2912049609375,0.24246650634765626,0.9547698779296875
-0.14069849609375001,0.1907524462890625,0.913235322265625
-0.1482359765625,0.08070688720703124,0.9881941357421875
-0.29436583984375,0.1397736572265625,1.1297556982421875
-0.3476144921875,0.12286242431640625,1.094119541015625
-0.21266927734375,0.13168567626953126,1.064136015625
-0.1832487890625,0.1314405859375,1.1145181689453125
-0.17522501953125,0.01575794921875,1.1459762939453124
-0.14361623046875,0.00325834228515625,1.1975872802734375
0.007133378906249998,0.11354899169921875,1.23420650390625
-0.12951384765625001,0.026296833496093748,1.4443369482421875
-0.31430369140625003,0.03659062744140625,1.3846156640625
-0.2464663671875,0.11379408203125,1.2147909423828125
-0.15358515625,0.10962754638671875,1.1282810986328125
-0.3203823046875,0.093206494140625,1.162934189453125
-0.25789416015625,0.189281904296875,1.134425263671875
-0.1881116796875,0.19736988525390625,1.0584833837890626
-0.2124261328125,0.2564366552734375,0.965829375
-0.183735078125,0.2583973779296875,0.9002096923828125
-0.0286088671875,0.2547210229492187,0.9985163330078125
-0.14604767578125,0.297121650390625,1.2752495263671875
-0.2955815625,0.30618999267578123,1.417548388671875
-0.21072412109375,0.0623251123046875,0.82525087890625
-0.127325546875,0.0319339111328125,0.8065726171875
-0.00696900390625,0.03315936279296875,0.7456225
-0.06775513671875,0.08707923583984375,0.856217470703125
-0.06872771484375,0.065756376953125,0.9070911572265625
-0.1968648828125,0.09639266845703125,0.99237216796875
-0.28998923828125,0.25374066162109377,0.993355234375
-0.2882872265625,0.246142861328125,0.9193794873046874
-0.30919765625,0.23462361572265625,0.97074470703125
-0.34250845703125,0.16305723876953124,0.9196252539062499
-0.19613544921875,0.2571719262695312,0.8603955029296875
-0.220693046875,0.10668646240234375,0.812471015625
-0.18835482421875,0.103010107421875,0.829674677734375
-0.10690140625,0.19222298828125,0.8136998486328125
-0.12343523437500001,0.26942644287109374,0.87440419921875
-0.213885,0.271632255859375,0.883251796875
-0.23114826171875,0.285357314453125,0.9218371533203125
-0.24768208984375,0.3113368896484375,1.0162115283203126
-0.39356880859375,0.31942487060546876,1.0919076416015625
-0.46019041015625,0.29393547607421877,1.076424345703125
-0.33326896484375,0.3005529150390625,0.99237216796875
-0.2007551953125,0.3140328833007813,0.99040603515625
-0.12465095703125,0.2809456884765625,1.045949287109375
-0.15285572265625,0.159871064453125,1.190460048828125
-0.21704587890625,0.16354741943359374,1.2570627978515625
-0.27831830078124997,0.13756784423828125,1.1789090185546875
-0.23260712890625002,0.12286242431640625,1.0766701123046876
-0.26129818359375,0.2299668994140625,1.1071451708984374
-0.28561263671875,0.15472416748046874,1.12017080078125
-0.17133470703125,0.2162418408203125,1.1931634814453125
-0.271267109375,0.22972180908203124,1.2671392285156249
-0.27029453125,0.2240847314453125,1.1926719482421875
-0.4127772265625,0.1387932958984375,1.0801108447265624
-0.290718671875,0.1642826904296875,0.9945840673828125
-0.33910443359375,0.1510478125,1.004660498046875
-0.2143712890625,0.09590248779296875,1.0476696533203125
-0.2333365625,0.04884514404296875,1.117713134765625
-0.1832487890625,0.12384278564453124,1.0103131298828125
-0.16987583984375,0.06747200927734374,0.9783634716796875
-0.0777240625,0.16942958740234376,1.1184504345703126
-0.1501811328125,0.19835024658203124,1.3189959814453125
-0.265431640625,0.2456526806640625,1.53699095703125
-0.2892598046875,0.3164837866210938,1.60580560546875
-0.4409819921875,0.33118920654296874,1.38363259765625
-0.33521412109375,0.2652599072265625,1.1749767529296875
-0.354908828125,0.2635442749023438,1.11230626953125
-0.3417790234375,0.2554562939453125,1.0879753759765625
-0.34737134765625,0.3140328833007813,1.1361456298828125
-0.20415921875,0.31599360595703124,1.1100943701171875
-0.2133987109375,0.21697711181640625,1.0633987158203124
-0.15771861328125,0.22776108642578125,0.978117705078125
-0.1813036328125,0.12874459228515625,0.8930824609375
-0.16136578125,0.04712951171875,0.86850580078125
-0.14580453125,0.096147578125,0.9120064892578125
-0.28269490234375,0.11796061767578125,0.9606682763671874
-0.3729015234375,0.1211467919921875,0.9591936767578125
-0.36730919921875,0.028257556152343752,0.9267524853515625
-0.247925234375,0.0765403515625,0.973202373046875
-0.337402421875,0.20227169189453126,0.9896687353515625
-0.24525064453125,0.08854977783203125,0.8891501953125
-0.18592337890625,0.07433453857421875,0.8820229638671875
-0.15285572265625,0.0917359521484375,0.908319990234375
-0.21266927734375,0.13511694091796875,0.9921264013671875
-0.16063634765625,0.13756784423828125,1.0221099267578124
-0.24281919921875,0.06992291259765625,1.044966220703125
-0.29387955078125,0.03659062744140625,1.1061621044921874
-0.345183046875,0.02237538818359375,1.1449932275390624
-0.356853984375,-0.00360418701171875,1.0464408203125
-0.35101851562499997,0.00178780029296875,0.9670582080078125
-0.2056180859375,-0.03546593017578125,0.9191337207031249
-0.23601115234375,0.01796376220703125,1.0093300634765625
-0.20440236328125,0.030708459472656248,1.0112961962890625
-0.2211793359375,0.0682072802734375,0.9523122119140625
-0.24865466796875,0.038306259765625,0.86457353515625
-0.152612578125,-0.040122646484374996,0.8313950439453125
-0.1433730859375,0.010611052246093749,0.94715111328125
-0.1725504296875,0.0280124658203125,1.0167030615234376
-0.20975154296875,0.03610044677734375,1.0830600439453124
-0.29582470703125,0.021640117187500002,0.9542783447265625
-0.23455228515625,0.0731090869140625,0.8773533984374999
-0.133161015625,0.023845930175781252,0.8751414990234375
-0.24914095703125,0.02874773681640625,0.9783634716796875
-0.22579908203125,0.01992448486328125,0.9714820068359376
-0.21266927734375,0.06649164794921875,0.9419900146484375
-0.30871136718750003,0.05815857666015625,0.916184521484375
-0.166228671875,-0.03595611083984375,0.814928681640625
-0.18592337890625,0.09492212646484376,0.8225474462890625
-0.156502890625,0.171635400390625,0.8053437841796875
-0.1550440234375,0.14099910888671874,0.871455
-0.2085358203125,0.18021356201171876,0.9577190771484375
-0.2163164453125,0.2748184301757812,0.98450763671875
-0.19953947265625,0.26501481689453127,1.0255506591796875
-0.1871391015625,0.2966314697265625,1.0806023779296874
-0.2766162890625,0.2995725537109375,1.106899404296875
-0.23406599609375,0.303003818359375,1.0688055810546875
-0.23260712890625002,0.30815071533203126,1.07298361328125
-0.107873984375,0.29025912109375,1.0592206835937499
-0.04733099609375,0.285357314453125,1.182595517578125
-0.113709453125,0.331434296875,1.242562568359375
-0.28974609375,0.2652599072265625,1.1150097021484375
-0.1949197265625,0.19197789794921874,1.0191607275390624
-0.29679728515625,0.2726126171875,0.9395323486328125
-0.2931501171875,0.20472259521484376,0.8984893261718749
-0.20780638671875,0.17580193603515626,0.914218388671875
-0.1599069140625,0.27187734619140624,0.9011927587890625
-0.1608794921875,0.2613384619140625,0.89799779296875
-0.1278118359375,0.2613384619140625,0.964354775390625
-0.13024328125,0.2701617138671875,0.9808211376953125
-0.11249373046875,0.2613384619140625,1.0442289208984374
-0.286828359375,0.15472416748046874,1.119187734375
-0.30700935546875,0.1946738916015625,1.1017383056640626
-0.26907880859375,0.16844922607421875,1.0329236572265625
-0.29728357421875,0.20864404052734375,0.9390408154296875
-0.2571647265625,0.195164072265625,0.8726838330078125
-0.29679728515625,0.17653720703125,0.950591845703125
-0.23260712890625002,0.15129290283203126,0.97664310546875
-0.105928828125,0.14443037353515625,0.94715111328125
-0.0500055859375,0.12580350830078124,0.9056165576171875
-0.159420625,0.12188206298828125,0.859658203125
-0.17036212890625,0.05472731201171875,0.8014115185546875
-0.17911533203125,0.024091020507812498,0.7679872607421875
-0.21510072265625,0.12090170166015625,0.8073099169921875
-0.30457791015625,0.0515411376953125,0.8028861181640625
-0.25303126953125,0.0936966748046875,0.9011927587890625
-0.28366748046875,0.18658591064453126,0.96681244140625
-0.2377131640625,0.2378097900390625,0.96877857421875
-0.2513292578125,0.2093793115234375,0.9478884130859375
-0.26640421875,0.23707451904296875,0.9085657568359375
-0.19078626953125,0.17384121337890626,0.855234404296875
-0.146777109375,0.153988896484375,0.9459222802734375
-0.245980078125,0.19344843994140626,1.083305810546875
-0.2795340234375,0.1240878759765625,1.1250861328125
-0.26567478515625,0.14884199951171875,1.06511908203125
-0.34810078125,0.18413500732421875,0.942727314453125
-0.19953947265625,0.1329111279296875,0.863098935546875
-0.2970404296875,0.17261576171875,0.930930517578125
-0.3446967578125,0.13658748291015624,0.958456376953125
-0.29533841796875,0.062080021972656246,0.888658662109375
-0.2542469921875,0.12090170166015625,0.8984893261718749
-0.249870390625,0.05276658935546875,0.84786140625
-0.195406015625,-0.02125069091796875,0.8019030517578125
-0.2124261328125,-0.028113220214843748,0.8205813134765625
-0.2668905078125,0.0069346972656249995,0.7952673535156249
-0.3048210546875,0.0191892138671875,0.751029365234375
-0.28220861328125,0.0642858349609375,0.7714279931640625
-0.26178447265625,0.04786478271484375,0.7596311962890625
-0.30020130859375,0.0368357177734375,0.811979482421875
-0.32475890625,0.04198261474609375,0.805098017578125
-0.3330258203125,0.0294830078125,0.7257154052734375
-0.331566953125,0.07286399658203124,0.715638974609375
-0.34591248046875,0.057668395996093746,0.7026133447265624
-0.3427516015625,0.0133070458984375,0.7237492724609375
-0.3194097265625,0.00987578125,0.7935469873046875
-0.24427806640625,-0.01732924560546875,0.75840236328125
-0.1832487890625,-0.01879978759765625,0.7512751318359375
-0.191515703125,0.0255615625,0.8498275390625
-0.3524773828125,0.0789912548828125,0.851302138671875
-0.3680386328125,0.138303115234375,0.861132802734375
-0.34250845703125,0.183399736328125,0.8618701025390625
-0.221665625,0.244182138671875,0.9282270849609375
-0.16258150390625,0.26697553955078124,1.06118681640625
-0.1793584765625,0.2476134033203125,1.221918173828125
-0.2766162890625,0.2044775048828125,1.331530078125
-0.36682291015625,0.199085517578125,1.3765053662109374
-0.37946642578125,0.11109808837890625,1.2526389990234374
-0.4108320703125,0.11207844970703125,1.1390948291015626
-0.41058892578125,0.15913579345703124,1.0771616455078126
-0.28391062499999997,0.118695888671875,0.9154472216796875
-0.25108611328125,0.0887948681640625,0.890624794921875
-0.29509527343749997,0.00521906494140625,0.9442019140625
-0.3339983984375,0.04394333740234375,1.01399962890625
-0.22579908203125,0.09345158447265625,1.1835785839843749
-0.28220861328125,0.0789912548828125,1.2961396875
-0.34007701171875,0.081442158203125,1.3529117724609374
-0.3320532421875,0.15031254150390624,1.2187232080078125
-0.35952857421875,0.197124794921875,1.2076637109375
-0.39600025390625,0.14590091552734374,1.2231470068359376
-0.430769921875,0.19393862060546874,1.2855717236328126
-0.3656071875,0.193203349609375,1.318258681640625
-0.35806970703125,0.10080429443359375,1.41509072265625
-0.3524773828125,0.18658591064453126,1.44065044921875
-0.3476144921875,0.15521434814453125,1.3755222998046874
-0.32402947265625,0.16011615478515626,1.31088568359375
-0.3466419140625,0.17090012939453125,1.3258774462890626
-0.3563676953125,0.15913579345703124,1.430328251953125
-0.37363095703125,0.22825126708984375,1.50946509765625
-0.3797095703125,0.253005390625,1.5151177294921876
-0.4721044921875,0.23560397705078126,1.4630152099609375
-0.50444271484375,0.273592978515625,1.374785
-0.50298384765625,0.26746572021484377,1.3497168066406249
-0.46359443359375,0.27579879150390624,1.28335982421875
-0.40669861328125,0.236339248046875,1.1880023828125
-0.2882872265625,0.25521120361328126,1.1120605029296875
-0.33618669921875,0.19222298828125,1.0476696533203125
-0.2532744140625,0.14933218017578126,1.016948828125
-0.28196546875,0.17286085205078125,1.0638902490234374
-0.36390517578125,0.11452935302734375,1.0727378466796875
-0.34883021484375,0.11992134033203125,1.073475146484375
-0.39745912109375,0.116735166015625,1.054796884765625
-0.392839375,0.10766682373046875,1.0137538623046876
-0.352963671875,0.1015395654296875,0.9233117529296875
-0.32281375,0.07629526123046874,0.8616243359375
-0.31965287109375,0.12727405029296876,0.8141913818359375
-0.28707150390625,0.09982393310546875,0.8004284521484375
-0.25789416015625,0.07850107421875,0.8262339453125
-0.29047552734375,0.063795654296875,0.8852179296875
-0.26275705078125,0.05717821533203125,0.871946533203125
-0.2153438671875,0.0603643896484375,0.8557259375
-0.20804953125,0.1191860693359375,0.89209939453125
-0.27102396484375,0.0917359521484375,0.952557978515625
-0.29776986328125,0.046149150390625,1.001711298828125
-0.3213548828125,0.099088662109375,1.039067822265625
-0.3164919921875,0.12531332763671876,1.084288876953125
-0.36244630859375,0.1770273876953125,1.103458671875
-0.40183572265625,0.17482157470703125,1.0570087841796876
-0.35126166015625,0.21207530517578124,0.9444476806640625
-0.36585033203125,0.2015364208984375,0.87047193359375
-0.31965287109375,0.1848702783203125,0.8328696435546875
-0.3106565234375,0.18805645263671875,0.8043607177734375
-0.3116291015625,0.18952699462890624,0.76036849609375
-0.30919765625,0.17090012939453125,0.679265517578125
-0.317950859375,0.1740863037109375,0.642892060546875
-0.343237890625,0.17482157470703125,0.660587255859375
-0.3699837890625,0.18511536865234374,0.708757509765625
-0.40426716796875,0.189281904296875,0.74070716796875
-0.42371873046874997,0.18119392333984374,0.7869112890625
-0.408400625,0.1848702783203125,0.7404614013671875
-0.40621232421875,0.1966346142578125,0.6991726123046875
-0.39016478515624997,0.22972180908203124,0.6785282177734375
-0.3466419140625,0.253985751953125,0.70629984375
-0.30068759765624997,0.2348687060546875,0.7139186083984375
-0.29096181640625,0.11649007568359375,0.7790467578125
-0.30992708984375,0.0221302978515625,0.78199595703125
-0.26275705078125,0.04124734375,0.771673759765625
-0.3028758984375,0.07776580322265625,0.8038691845703125
-0.31819400390625,0.0652661962890625,0.7394783349609375
-0.3962433984375,0.0623251123046875,0.7085117431640625
-0.41010263671875,0.10276501708984374,0.7117067089843749
-0.3991611328125,0.0922261328125,0.68565544921875
-0.3889490625,0.09002031982421875,0.646824326171875
-0.22579908203125,0.17040994873046875,0.666485654296875
-0.251815546875,0.1201664306640625,0.6416632275390625
-0.30457791015625,0.08242251953125,0.7139186083984375
-0.3515048046875,0.15300853515625001,0.7955131201171874
-0.36390517578125,0.20129133056640625,0.789368955078125
-0.35588140625,0.183399736328125,0.783470556640625
-0.3106565234375,0.0966377587890625,0.7679872607421875
-0.3028758984375,0.1721255810546875,0.8195982470703125
-0.40961634765625,0.18854663330078125,0.880794130859375
-0.4721044921875,0.14394019287109375,0.8112421826171875
-0.44073884765625,0.11060790771484375,0.718588173828125
-0.3748466796875,0.0927163134765625,0.65026505859375
-0.27029453125,0.06355056396484375,0.655671923828125
-0.24962724609375,0.069677822265625,0.6863927490234375
-0.32646091796875,0.019434304199218752,0.740215634765625
-0.36050115234375,0.03266918212890625,0.733334169921875
-0.39551396484375,0.04786478271484375,0.674350185546875
-0.36098744140625,0.09247122314453125,0.659604189453125
-0.40767119140625,0.12555841796875,0.6650110546875
-0.39478453125,0.16550814208984374,0.667468720703125
-0.39308251953125,0.189281904296875,0.6976980126953125
-0.3408064453125,0.22187891845703125,0.7370206689453125
-0.41593810546875,0.01110123291015625,0.803131884765625
-0.450221484375,0.019434304199218752,0.773148359375
-0.43247193359375,-0.04183827880859375,0.70728291015625
-0.45095091796875,-0.02149578125,0.6571465234375
-0.43198564453125,0.0037485229492187503,0.5974252392578125
-0.38092529296875,-0.0180645166015625,0.5694078466796875
-0.2800203125,-0.04281864013671875,0.6613245556640625
-0.34226531250000003,0.0074248779296875,0.7915808544921875
-0.372415234375,-0.0494360791015625,0.8343442431640625
-0.4623787109375,-0.048945898437499996,0.935845849609375
-0.5207333984375,-0.08227818359375,0.97271083984375
-0.55112646484375,-0.08742508056640624,0.974185439453125
-0.44949205078125,0.0309535498046875,1.004660498046875
-0.341292734375,0.09541230712890625,0.938303515625
-0.30117388671875,0.14001874755859375,0.9360916162109375
-0.33229638671875,0.08021670654296875,0.9196252539062499
-0.3904079296875,0.0035034326171875,0.94715111328125
-0.50152498046875,0.055952763671875,0.98254150390625
-0.4667553125,0.112813720703125,0.920116787109375
-0.4108320703125,0.08021670654296875,0.8466325732421875
-0.30263275390625,0.0897752294921875,0.8702261669921875
-0.43295822265625,0.02286556884765625,0.9129895556640625
-0.41812640624999997,-0.02321141357421875,0.9405154150390624
-0.4351465234375,0.0294830078125,0.9714820068359376
-0.34591248046875,-0.03129939453125,0.880794130859375
-0.3145468359375,-0.00507472900390625,0.8358188427734374
-0.2630001953125,0.008405239257812499,0.813945615234375
-0.28172232421875,-0.04919098876953125,0.8485987060546875
-0.38773333984375,0.00178780029296875,0.9166760546875
-0.27248283203125,0.02727719482421875,0.9837703369140625
-0.37071322265625,0.026541923828125,1.02383029296875
-0.3656071875,0.03928662109375,1.0103131298828125
-0.4176401171875,0.1035002880859375,0.97860923828125
-0.3388612890625,0.080461796875,0.9208540869140625
-0.43101306640625,0.10987263671875,1.013508095703125
-0.4020788671875,0.132420947265625,1.0432458544921874
-0.43198564453125,0.11747043701171875,1.0629071826171874
-0.341292734375,0.118695888671875,1.0722463134765625
-0.39502767578125,0.13266603759765624,1.00613509765625
-0.347128203125,0.10178465576171875,0.937811982421875
-0.333512109375,0.1113431787109375,0.9356000830078125
-0.41156150390625,0.10987263671875,0.9739396728515625
-0.4565432421875,0.09100068115234375,1.0088385302734375
-0.422989296875,0.13364639892578126,0.989914501953125
-0.41788326171875,0.11109808837890625,0.930438984375
-0.397702265625,0.09541230712890625,0.8746499658203125
-0.42225986328125,0.101049384765625,0.8655566015625
-0.360744296875,0.06796218994140625,0.8309035107421875
-0.3894353515625,0.040266982421875,0.861132802734375
-0.35126166015625,0.12678386962890625,0.844420673828125
-0.296554140625,0.10202974609375,0.865065068359375
-0.36463460937500003,0.0417375244140625,0.92355751953125
-0.3359435546875,0.11158826904296874,0.938795048828125
-0.3631757421875,0.08634396484375,0.920116787109375
-0.3301080859375,0.06649164794921875,0.946659580078125
-0.46310814453125,0.0584036669921875,0.951574912109375
-0.36244630859375,0.07237381591796875,0.8215643798828125
-0.38530189453125,0.07457962890625,0.7846993896484376
-0.24573693359375,0.079481435546875,0.7434106005859376
-0.26251390625,0.064776015625,0.7822417236328125
-0.1827625,0.08315779052734375,0.8943112939453125
-0.26567478515625,0.11256863037109376,1.067576748046875
-0.33472783203125,-0.08227818359375,1.182103984375
-0.3699837890625,0.0446786083984375,1.233714970703125
-0.37654869140625,0.0789912548828125,1.0973145068359376
-0.37922328125,0.046149150390625,1.0058893310546875
-0.39818855468750003,0.07139345458984375,1.0963314404296876
-0.41447923828125,0.0995788427734375,1.0179318945312499
-0.46602587890625,0.1368325732421875,0.903404658203125
-0.44706060546875,0.1005592041015625,0.747097099609375
-0.42760904296875,0.0887948681640625,0.672384052734375
-0.30311904296875003,0.152028173828125,0.6569007568359375
-0.3680386328125,0.1623219677734375,0.6657483544921875
-0.3301080859375,0.19933060791015625,0.668451787109375
-0.39551396484375,0.18609572998046875,0.7581565966796875
-0.44997833984375,0.19884042724609374,0.8579378369140624
-0.50638787109375,0.208889130859375,0.944693447265625
-0.54261640625,0.23364325439453126,0.975168505859375
-0.55793451171875,0.2485937646484375,1.0228472265625
-0.53313376953125,0.23266289306640625,1.00613509765625
-0.48061455078125,0.1740863037109375,0.9009469921875
-0.32086859375,0.02139502685546875,0.7736398925781249
-0.28415376953125,0.0035034326171875,0.828200078125
-0.35466568359375,0.06894255126953125,1.0142453955078126
-0.3301080859375,-0.0631611376953125,1.1680952880859374
-0.323786328125,-0.13717841796875,1.3155552490234375
-0.3417790234375,-0.18791211669921876,1.3519287060546874
-0.35952857421875,-0.10507158447265624,1.264190029296875
-0.29339326171875,-0.085219267578125,1.0865007763671874
-0.38700390625000003,-0.08423890625,1.0348897900390626
-0.4079143359375,-0.048945898437499996,0.99237216796875
-0.493014921875,-0.04870080810546875,0.9695158740234375
-0.50979189453125,-0.037916833496093746,0.905370791015625
-0.4545980859375,0.0348749951171875,0.874895732421875
-0.45484123046875,0.0750698095703125,0.7960046533203124
-0.3680386328125,0.049090234375,0.7842078564453125
-0.315033125,0.099088662109375,0.8889044287109376
-0.33642984375,0.024091020507812498,0.873912666015625
-0.38481560546875,-0.02958376220703125,0.951574912109375
-0.3709563671875,-0.03105430419921875,1.0267794921875
-0.39356880859375,-0.05850442138671875,1.0417712548828124
-0.43927998046875,-0.04919098876953125,1.0053977978515625
-0.38311359375,-0.0210056005859375,1.00810123046875
-0.46408072265625,0.02678701416015625,0.9616513427734374
-0.4400094140625,0.08070688720703124,0.9051250244140625
-0.36196001953125,0.08070688720703124,0.84097994140625
-0.37265837890625,0.1510478125,0.9105318896484375
-0.38287044921875,0.1025199267578125,0.947642646484375
-0.2644590625,0.07580508056640625,0.9913891015625
-0.36876806640625,0.1485969091796875,1.0550426513671876
-0.470645625,0.010856142578125,1.1056705712890624
-0.45824525390625,0.12531332763671876,1.137374462890625
-0.5469930078125,0.1348718505859375,1.08674654296875
-0.4905834765625,0.10962754638671875,0.9940925341796875
-0.45411179687500003,0.16403760009765625,0.988931435546875
-0.48037140625,0.1392834765625,0.9985163330078125
-0.38043900390625,0.11207844970703125,1.050864619140625
-0.44924890625,0.093206494140625,0.9832788037109375
-0.3738741015625,0.05472731201171875,0.96681244140625
-0.296554140625,-0.04575972412109375,1.0108046630859375
-0.33229638671875,-0.08840544189453126,1.0339067236328126
-0.41010263671875,0.023845930175781252,1.034152490234375
-0.34250845703125,-0.08546435791015625,0.930930517578125
-0.32281375,-0.0602200537109375,0.9048792578125
-0.3262177734375,-0.05164189208984375,0.9174133544921875
-0.37071322265625,-0.11389483642578124,0.954032578125
-0.34737134765625,-0.10016977783203125,0.959439443359375
-0.448276328125,-0.0455146337890625,0.888658662109375
-0.38384302734375,-0.03840701416015625,0.82721701171875
-0.38773333984375,-0.1430605859375,0.7714279931640625
-0.337402421875,0.010611052246093749,0.7355460693359375
-0.2386857421875,0.10423555908203125,0.6534600244140625
-0.23309341796875,0.11305881103515625,0.637976728515625
-0.33764556640625,0.120656611328125,0.657638056640625
-0.42080099609375,0.1549692578125,0.6873758154296875
-0.44171142578125,0.1378129345703125,0.7296476708984375
-0.43976626953125,0.20276187255859374,0.779538291015625
-0.42517759765625,0.242221416015625,0.8191067138671875
-0.4302836328125,0.2574170166015625,0.865065068359375
-0.4458448828125,0.2466330419921875,0.8982435595703124
-0.4507077734375,0.27824969482421874,0.9587021435546875
-0.39210994140625,0.3103565283203125,1.0191607275390624
-0.37606240234375,0.1770273876953125,1.1159927685546875
-0.31041337890625,0.08707923583984375,1.159984990234375
-0.28950294921874997,0.05521749267578125,1.2550966650390625
-0.428824765625,-0.02149578125,1.2256046728515626
-0.46894361328125,-0.0082609033203125,0.999745166015625
-0.485234296875,0.01404231689453125,0.8584293701171875
-0.35417939453125,-0.06536695068359374,0.765775361328125
-0.31187224609374997,-0.04919098876953125,0.733825703125
-0.335457265625,-0.03889719482421875,0.7458682666015625
-0.3223274609375,-0.0317895751953125,0.84884447265625
-0.29387955078125,-0.061690595703125004,0.95108337890625
-0.26713365234374997,-0.006790361328125,1.0845346435546874
-0.31868029296875,-0.022476142578125,1.14573052734375
-0.3699837890625,-0.051886982421875,1.127543798828125
-0.377278125,-0.03546593017578125,1.09461107421875
-0.421044140625,-0.0082609033203125,1.072000546875
-0.56231111328125,0.063795654296875,1.0461950537109375
-0.54237326171875,-0.010221625976562499,0.9444476806640625
-0.4434134375,0.05497240234375,0.82918314453125
-0.45581380859375,0.07531489990234375,0.73874103515625
-0.417153828125,0.13364639892578126,0.7539785644531249
-0.32062544921875,0.12041152099609376,0.8387680419921875
-0.35369310546875,0.11354899169921875,1.0457035205078125
-0.4118046484375,0.15423398681640624,1.251410166015625
-0.40767119140625,-0.0082609033203125,1.3307927783203124
-0.42858162109375,0.11207844970703125,1.456871044921875
-0.57787236328125,0.12163697265625,1.4443369482421875
-0.6296621484375,0.06600146728515625,1.3728188671875
-0.61385775390625,0.00987578125,1.2526389990234374
-0.506631015625,-0.028113220214843748,1.02579642578125
-0.3378887109375,-0.06781785400390625,0.8274627783203125
-0.37168580078125,-0.10065995849609374,0.7016302783203126
-0.4370916796875,-0.073454931640625,0.675333251953125
-0.45435494140625,-0.01438816162109375,0.7670041943359375
-0.4779399609375,0.0069346972656249995,0.844420673828125
-0.50249755859375,0.0348749951171875,0.8567090039062499
-0.317950859375,-0.0999246875,0.875387265625
-0.386031328125,-0.11757119140625,0.951574912109375
-0.423961875,-0.0011532836914062497,1.0648733154296874
-0.45775896484375,-0.0288484912109375,1.1427813281249999
-0.547479296875,-0.03252484619140625,1.1951296142578125
-0.4818302734375,0.0721287255859375,1.1877566162109374
-0.46651216796875,-0.05360261474609375,1.0904330419921875
-0.33035123046875,-0.02149578125,1.0309575244140625
-0.4001337109375,-0.00213364501953125,0.9213456201171875
-0.35393625,-0.02272123291015625,0.793301220703125
-0.31430369140625003,0.033404453125,0.8694888671875
-0.41545181640625,0.014777587890624999,0.8891501953125
-0.4278521875,0.010611052246093749,0.901438525390625
-0.354908828125,0.0407571630859375,0.98843990234375
-0.50152498046875,0.1270289599609375,1.1329506640625
-0.4798851171875,0.0819323388671875,1.2152824755859375
-0.444386015625,0.110852998046875,1.191443115234375
-0.48499115234375,0.07482471923828125,1.0928907080078125
-0.4759948046875,0.05619785400390625,1.0265337255859375
-0.40037685546875,0.07457962890625,0.920116787109375
-0.32840607421875,-0.0053198193359375,0.822793212890625
-0.29971501953125,-0.0729647509765625,0.7753602587890625
-0.32451576171875,0.01183650390625,0.74267330078125
-0.37898013671874997,-0.05997496337890625,0.7434106005859376
-0.40937320312500003,-0.0396324658203125,0.7950215869140624
-0.3923530859375,0.0133070458984375,0.8879213623046875
-0.45824525390625,0.04051207275390625,1.0560257177734376
-0.52000396484375,0.07237381591796875,1.1076367041015625
-0.58176267578125,0.05031568603515625,1.101984072265625
-0.49228548828125,0.01894412353515625,1.014491162109375
-0.407428046875,-0.0072805419921875,0.9218371533203125
-0.288773515625,-0.0582593310546875,0.802148818359375
-0.28585578125,-0.052867343750000004,0.7149016748046875
-0.2464663671875,0.0162481298828125,0.72301197265625
-0.35466568359375,-0.02762303955078125,0.884726396484375
-0.53118861328125,0.03855135009765625,1.043983154296875
-0.5606091015625,0.08707923583984375,1.0697886474609375
-0.51027818359375,0.09149086181640625,1.12803533203125
-0.531918046875,0.15300853515625001,1.14966279296875
-0.479398828125,0.16305723876953124,1.08379734375
-0.520247109375,-0.006790361328125,0.98647376953125
-0.40086314453125,0.06624655761718751,0.87637033203125
-0.37898013671874997,0.0294830078125,0.799199619140625
-0.2668905078125,0.0476196923828125,0.8259881787109375
-0.4098594921875,0.026541923828125,0.8662939013671875
-0.45921783203125,0.0348749951171875,0.870963466796875
-0.42055785156250003,0.03561026611328125,0.8144371484375
-0.44073884765625,-0.02027032958984375,0.7483259326171875
-0.3553951171875,-0.02076051025390625,0.6913080810546874
-0.38238416015625,-0.057278969726562504,0.7121982421874999
-0.4507077734375,-0.0411030078125,0.7183424072265625
-0.44900576171875,-0.055808427734375,0.80165728515625
-0.4098594921875,-0.05654369873046875,0.8407341748046875
-0.42323244140625,-0.02027032958984375,0.858183603515625
-0.329621796875,-0.04085791748046875,0.85867513671875
-0.36244630859375,-0.05556333740234375,0.9518206787109375
-0.39818855468750003,0.01845394287109375,0.992863701171875
-0.43004048828125,-0.0817880029296875,0.9191337207031249
-0.44073884765625,-0.04698517578125,0.8456495068359375
-0.3544225390625,0.0003172583007812497,0.8225474462890625
-0.424934453125,0.0201695751953125,0.8087845166015625
-0.46067669921875,-0.08889562255859375,0.810996416015625
-0.39308251953125,0.0515411376953125,0.9238032861328125
-0.329621796875,0.05864875732421875,1.01596576171875
-0.47964197265624997,0.0015427099609375003,1.13098453125
-0.46942990234375,-0.00458454833984375,1.1843158837890626
-0.33861814453125,-0.0553182470703125,1.1464678271484374
-0.333512109375,0.05668803466796875,1.1361456298828125
-0.37265837890625,0.1319307666015625,1.181612451171875
-0.47575166015625,0.0525214990234375,1.104933271484375
-0.43782111328125,0.0417375244140625,1.0167030615234376
-0.47915568359375,0.0525214990234375,0.908319990234375
-0.36390517578125,-0.045024453125,0.80952181640625
-0.35369310546875,0.0044837939453125,1.0098215966796875
-0.52778458984375,-0.04772044677734375,1.1882481494140624
-0.4458448828125,-0.0055649096679687505,1.10444173828125
-0.391866796875,0.03757098876953125,0.9675497412109375
-0.39794541015625,-0.07762146728515625,0.941744248046875
-0.41350666015625,-0.013652890625,0.9139726220703125
-0.3962433984375,0.0280124658203125,0.86064126953125
-0.41545181640625,0.0672269189453125,0.8112421826171875
-0.284883203125,0.02531647216796875,0.859658203125
-0.28804408203125,0.01649322021484375,1.0189149609375
-0.49423064453125,0.1093824560546875,1.2300284716796874
-0.55817765625,-0.012672529296875,1.194392314453125
-0.54674986328125,0.12090170166015625,1.1626884228515626
-0.50371328125,0.0642858349609375,1.0226014599609374
-0.4059691796875,0.03757098876953125,0.934862783203125
-0.46845732421874997,0.08634396484375,0.944693447265625
-0.31868029296875,-0.0788469189453125,0.7952673535156249
-0.2085358203125,-0.09845414550781251,0.8633447021484375
-0.35758341796875,-0.18423576171875,0.8382765087890625
-0.34250845703125,-0.10752248779296875,1.0444746875
-0.3417790234375,-0.05654369873046875,1.2784444921875
-0.6452233984375,-0.03938737548828125,1.3452930078125
-0.48450486328125,-0.00752563232421875,1.19390078125
-0.2707808203125,-0.04821062744140625,0.981066904296875
-0.06921400390625,-0.0249270458984375,0.894557060546875
-0.22190876953125,0.0152677685546875,1.0597122167968749
-0.504685859375,-0.09845414550781251,1.1897227490234374
-0.3417790234375,-0.2278618408203125,1.127052265625
-0.49982296875,-0.14820748291015626,1.1420440283203126
-0.45313921875,-0.12933552734375,0.8812856640625
-0.32159802734375,-0.0386521044921875,0.8984893261718749
-0.40621232421875,-0.07762146728515625,0.87931953125
-0.42663646484375,0.0985984814453125,0.981066904296875
-0.45411179687500003,0.1995756982421875,0.9650920751953125
-0.45775896484375,0.20521277587890624,0.996795966796875
-0.37946642578125,0.21648693115234374,0.87637033203125
-0.30895451171875,0.18952699462890624,0.871455
-0.28415376953125,0.2387901513671875,0.92748978515625
-0.3495596484375,0.2142811181640625,1.06020375
-0.46359443359375,0.24540759033203124,1.2103671435546874
-0.6223678125,0.199085517578125,1.2064348779296874
-0.60704970703125,0.11771552734375,1.1272980322265624
-0.4400094140625,0.13364639892578126,1.0078554638671875
-0.45532751953125,0.157910341796875,0.8387680419921875
-0.26324333984375,0.230457080078125,0.7952673535156249
-0.2644590625,0.261828642578125,0.9277355517578125
-0.3690112109375,0.27040680419921875,1.0383305224609374
-0.54626357421875,0.19884042724609374,1.1749767529296875
-0.607779140625,0.17433139404296874,0.975168505859375
-0.4896108984375,0.20398732421875,0.83704767578125
-0.42931105468749997,0.206928408203125,0.79575888671875
-0.485234296875,0.0289928271484375,0.7163762744140625
-0.3437241796875,0.028502646484374998,0.68270625
-0.3660934765625,-0.04428918212890625,0.73874103515625
-0.470645625,0.01575794921875,0.7316138037109375
-0.28512634765625,0.021640117187500002,0.788385888671875
-0.27029453125,-0.046249904785156254,0.9245405859375
-0.4176401171875,0.046149150390625,1.0157199951171876
-0.29509527343749997,0.1436951025390625,1.09264494140625
-0.36439146484375,-0.01291761962890625,1.1604765234375
-0.4361191015625,0.0829127001953125,1.157035791015625
-0.43587595703125,0.17286085205078125,1.1014925390624999
-0.4823165625,-0.038161923828125,0.9115149560546875
-0.54869501953125,0.03953171142578125,0.8928366943359375
-0.54723615234375,0.110852998046875,0.8215643798828125
-0.4672416015625,0.03928662109375,0.840488408203125
-0.30360533203125,0.0123266845703125,0.88030259765625
-0.38287044921875,-0.02370159423828125,0.911269189453125
-0.32159802734375,-0.045024453125,0.8751414990234375
-0.3262177734375,-0.03987755615234375,0.8572005371093749
-0.4234755859375,0.0103659619140625,0.8495817724609375
-0.49374435546875,-0.0837487255859375,0.875878798828125
-0.529972890625,-0.091101435546875,0.9046334912109375
-0.42566388671875,0.055952763671875,0.8043607177734375
-0.17376615234375,0.1201664306640625,0.7876485888671875
-0.3116291015625,0.012816865234374999,0.8913620947265625
-0.57398205078125,0.01183650390625,1.016457294921875
-0.6510588671875,0.01257177490234375,1.0334151904296875
-0.4721044921875,0.07335417724609375,0.86359046875
-0.3826273046875,0.2162418408203125,0.8441749072265625
-0.3194097265625,0.18952699462890624,0.8097675830078125
-0.44657431640625,0.07457962890625,0.7901062548828125
-0.345183046875,0.03217900146484375,0.7365291357421875
-0.279047734375,-0.07835673828125,0.679265517578125
-0.23649744140625,-0.1435507666015625,0.7581565966796875
-0.442440859375,-0.046740085449218746,0.9739396728515625
-0.469673046875,0.07874616455078125,1.1204165673828126
-0.52875716796875,-0.01781942626953125,1.026287958984375
-0.4818302734375,0.14492055419921876,0.930438984375
-0.30798193359375,0.0338946337890625,0.8161575146484374
-0.24914095703125,0.08609887451171874,0.9090572900390625
-0.292663828125,0.03928662109375,1.02383029296875
-0.31308796875,-0.05115171142578125,1.1046875048828124
-0.2484115234375,-0.008751083984375,1.036118623046875
-0.41156150390625,0.032424091796875,0.984999169921875
-0.3699837890625,-0.05311243408203125,0.865065068359375
-0.33472783203125,-0.21830331787109375,0.9459222802734375
-0.41545181640625,-0.1768830517578125,0.8805483642578125
-0.45095091796875,0.05619785400390625,0.825742412109375
-0.4283384765625,0.12629368896484375,0.7817501904296875
-0.37752126953125,0.124578056640625,0.7117067089843749
-0.22701480468750002,0.14099910888671874,0.83213234375
-0.2406308984375,0.13364639892578126,0.9754142724609375
-0.1219763671875,0.14197947021484375,1.17325638671875
-0.34785763671875003,0.2338883447265625,1.3986243603515625
-0.6690515625,0.2162418408203125,1.436226650390625
-0.58273525390625,0.222614189453125,1.23027423828125
-0.5783586523437501,0.16624341308593749,1.0157199951171876
-0.44268400390625,0.07139345458984375,0.805098017578125
-0.21072412109375,-0.16242272216796874,0.62077306640625
-0.0859909765625,-0.0631611376953125,0.478719970703125
-0.07213173828125,0.11109808837890625,0.5467973193359374
-0.07845349609375,0.143204921875,0.6495277587890624
-0.35952857421875,0.1172253466796875,0.686638515625
-0.496905234375,0.0883046875,0.810996416015625
-0.6461959765625,0.07531489990234375,0.949608779296875
-0.6782910546875,0.1966346142578125,1.0093300634765625
-0.4497351953125,0.3525120654296875,1.1046875048828124
-0.19905318359375002,0.3958930541992188,1.15359505859375
-0.30166017578125,0.41402973876953125,1.344801474609375
-0.53483578125,0.12531332763671876,1.3017923193359375
-0.6773184765625,0.0584036669921875,1.1725190869140625
-0.67561646484375,0.04492369873046875,0.95304951171875
-0.57106431640625,0.09810830078125,0.7458682666015625
-0.442440859375,0.17653720703125,0.678773984375
-0.436605390625,0.065756376953125,0.7952673535156249
-0.4156949609375,-0.09820905517578125,0.8313950439453125
-0.4701593359375,0.17188049072265624,1.0692971142578125
-0.557205078125,0.1593808837890625,1.180629384765625
-0.57641349609375,-0.03840701416015625,1.1730106201171875
-0.43587595703125,0.04443351806640625,1.316292548828125
-0.50784673828125,-0.04870080810546875,1.30302115234375
-0.500795546875,-0.014633251953124999,1.1484339599609374
-0.633066171875,0.04124734375,1.124594599609375
-0.59319046875,-0.036201201171875,1.094119541015625
-0.47575166015625,-0.1808044970703125,1.0216183935546874
-0.46481015625,-0.220509130859375,0.8859552294921875
-0.376305546875,-0.21585241455078125,0.7561904638671875
-0.3339983984375,-0.22761675048828126,0.6849181494140625
-0.252788125,-0.217568046875,0.682214716796875
-0.18738224609375,-0.20653898193359374,0.879811064453125
-0.36876806640625,-0.13987441162109376,1.067576748046875
-0.69944462890625,-0.04772044677734375,1.16244265625
-0.73980662109375,0.07825598388671876,1.0427543212890624
-0.4750222265625,0.20521277587890624,0.9247863525390625
-0.1637972265625,0.15864561279296874,0.851302138671875
-0.1219763671875,0.10766682373046875,0.8340984765625
-0.090367578125,0.0505607763671875,0.9326508837890625
-0.113709453125,-0.028113220214843748,1.09657720703125
-0.34056330078125,-0.08301345458984374,1.4074719580078126
-0.71743732421875,-0.0092412646484375,1.6262042333984374
-0.8173697265625,0.020659755859375,1.40329392578125
-0.70965669921875,-0.03938737548828125,1.029237158203125
-0.4935012109375,0.019434304199218752,0.85277673828125
-0.18008791015625,0.101049384765625,0.7173593408203125
-0.0743200390625,0.11796061767578125,0.7473428662109375
-0.0947441796875,-0.0999246875,0.9940925341796875
-0.28974609375,-0.071494208984375,1.235681103515625
-0.6301484375,7.216796875000007e-05,1.3534033056640624
-0.56182482421875,0.01747358154296875,1.145238994140625
-0.48888146484375,-0.0768861962890625,0.907336923828125
-0.39818855468750003,-0.0827683642578125,0.8407341748046875
-0.32111173828125,-0.051886982421875,0.7424275341796875
-0.4283384765625,-0.0053198193359375,0.704825244140625
-0.481343984375,-0.05654369873046875,0.5581025830078125
-0.32791978515625,-0.06585713134765625,0.469872373046875
-0.39113736328125,0.0182088525390625,0.494449033203125
-0.366579765625,0.06624655761718751,0.4583213427734375
-0.27977716796875,0.15619470947265626,0.472821572265625
-0.269321953125,-0.01561361328125,0.5871030419921874
-0.1764407421875,0.0044837939453125,0.7016302783203126
-0.42128728515625,0.0037485229492187503,0.832623876953125
-0.5401849609375,0.0848734228515625,0.758893896484375
-0.37800755859375,0.10864718505859375,0.752012431640625
-0.30141703125,0.0883046875,0.805098017578125
-0.27977716796875,0.052031318359375,0.9284728515625
-0.26154132812499997,0.07090327392578125,0.9183964208984375
-0.46164927734375,0.059874208984374996,0.8783364648437499
-0.32475890625,-0.1033559521484375,0.6475616259765625
-0.29047552734375,-0.206784072265625,0.6180696337890625
-0.23552486328125,-0.17124597412109374,0.4307954833984375
-0.170118984375,-0.14232531494140624,0.36517580078125
-0.1088465625,-0.042083369140625,0.5025593310546875
-0.31187224609374997,0.0030132519531249997,0.7134270751953125
-0.5051721484375,0.06600146728515625,0.8599039697265625
-0.7162216015625,0.00717978759765625,1.0889584423828125
-0.73202599609375,0.134381669921875,1.1548238916015625
-0.430769921875,0.34246336181640624,1.2624696630859376
-0.2668905078125,0.344178994140625,1.227816572265625
-0.37533296875,0.352021884765625,1.3263689794921876
-0.43490337890624997,0.25496611328125,1.2961396875
-0.621395234375,-0.0009081933593750001,1.2000449462890626
-0.53702408203125,0.19638952392578124,1.050864619140625
-0.520247109375,0.15129290283203126,0.8785822314453124
-0.33229638671875,0.1201664306640625,0.717605107421875
-0.21972046875,-0.02149578125,0.7601227294921875
-0.3495596484375,0.01796376220703125,0.9488714794921875
-0.426879609375,0.1113431787109375,1.17817171875
-0.6539766015625,-0.09477779052734375,1.3688866015625
-0.74758724609375,-0.1239435400390625,1.5190499951171874
-0.5834646875,-0.1464918505859375,1.3509456396484376
-0.3670660546875,-0.1788437744140625,1.1592476904296876
-0.1866528125,-0.13105115966796876,1.0189149609375
-0.2571647265625,-0.19134338134765624,0.954524111328125
-0.2785614453125,-0.16928525146484374,1.0267794921875
-0.33035123046875,-0.08203309326171875,1.012525029296875
-0.5041995703125,-0.1729616064453125,1.0378389892578126
-0.65811005859375,-0.167569619140625,0.9481341796875
-0.67172615234375,-0.1857063037109375,0.8825144970703125
-0.64692541015625,-0.17271651611328126,0.84097994140625
-0.3189234375,0.07482471923828125,0.92552365234375
-0.12221951171875,0.128499501953125,1.0444746875
-0.1365650390625,0.04786478271484375,1.324157080078125
-0.40086314453125,0.04320806640625,1.6429163623046874
-0.438550546875,-0.032279755859375,2.0125493310546876
-0.55501677734375,0.11452935302734375,1.93414978515625
-0.77238798828125,-0.09134652587890625,1.5013547998046874
-0.705036953125,0.03953171142578125,1.255342431640625
-0.625285546875,-0.06046514404296875,1.0383305224609374
-0.3072525,-0.0553182470703125,0.875387265625
-0.08574783203125,-0.1719812451171875,0.897506259765625
-0.362689453125,-0.20849970458984374,0.956490244140625
-0.51805880859375,-0.1719812451171875,0.852285205078125
-0.39162365234375,-0.2504101513671875,0.78199595703125
-0.3913805078125,-0.1190417333984375,0.7060540771484375
-0.245980078125,-0.0239466845703125,0.6406801611328125
-0.2571647265625,0.0427178857421875,0.73677490234375
-0.38967849609375,0.0608545703125,0.805098017578125
-0.4672416015625,-0.028358310546875,0.9685328076171875
-0.59781021484375,0.010856142578125,1.0167030615234376
-0.64376453125,0.16060633544921876,0.9252778857421875
-0.45678638671875,0.1515379931640625,0.777080625
-0.2260422265625,0.0564429443359375,0.7291561376953125
-0.265431640625,-0.0646316796875,0.578992744140625
-0.24914095703125,-0.06340622802734375,0.3806590966796875
-0.22701480468750002,-0.1161006494140625,0.27915749023437497
-0.207076953125,-0.12712971435546874,0.25728426269531246
-0.31868029296875,-0.04698517578125,0.28947968749999997
-0.392839375,0.0133070458984375,0.3963881591796875
-0.41447923828125,0.07384435791015626,0.713672841796875
-0.49763466796875,0.210849853515625,1.0398051220703124
-0.62017951171875,0.23756469970703126,1.235681103515625
-0.69263658203125,0.2378097900390625,1.297614287109375
-0.626258125,0.181439013671875,1.11820466796875
-0.36050115234375,-0.0602200537109375,0.911269189453125
-0.232363984375,-0.077376376953125,0.740215634765625
-0.2153438671875,-0.12271808837890624,0.605535537109375
-0.221665625,-0.09575815185546875,0.49616939941406246
-0.3913805078125,-0.09624833251953124,0.529347890625
-0.3709563671875,-0.047965537109375,0.537703955078125
-0.30627992187499997,-0.02860340087890625,0.70629984375
-0.37995271484375,0.15766525146484375,0.972219306640625
-0.02350283203125,0.0701680029296875,0.6915538476562499
-0.20002576171875,0.17482157470703125,1.0997721728515626
-0.68485595703125,0.040266982421875,1.3897767626953126
-0.89930943359375,0.024581201171875,1.7240193408203126
-0.566930859375,0.2476134033203125,1.560093017578125
-0.2513292578125,0.122617333984375,1.635789130859375
-0.2450075,-0.0592396923828125,1.373310400390625
-0.27151025390625,-0.0729647509765625,1.2098756103515624
-0.50736044921875,-0.13203152099609375,1.0766701123046876
-0.564985703125,-0.181294677734375,0.8952943603515625
-0.47477908203125,-0.16928525146484374,0.69745224609375
-0.40572603515625,-0.0053198193359375,0.735300302734375
-0.3213548828125,0.0838930615234375,0.846386806640625
-0.5110076171875,0.03561026611328125,1.032186357421875
-0.56595828125,0.028502646484374998,1.1813666845703126
-0.4332013671875,-0.05997496337890625,1.1548238916015625
-0.38627447265625,-0.2121760595703125,1.1646545556640624
-0.4045103125,-0.22761675048828126,1.1970957470703125
-0.33983386718749997,-0.263645029296875,1.2671392285156249
-0.438550546875,-0.1562954638671875,1.3440641748046875
-0.48645001953125,-0.19428446533203125,1.3042499853515626
-0.49204234375,-0.093062158203125,1.048898486328125
-0.39551396484375,-0.00311400634765625,0.7586481298828125
-0.27394169921875,-0.01879978759765625,0.54802615234375
-0.2406308984375,0.0525214990234375,0.556382216796875
-0.4118046484375,0.10521592041015625,0.7021218115234376
-0.5975670703125,0.0368357177734375,0.832623876953125
-0.63476818359375,0.09590248779296875,0.82328474609375
-0.44268400390625,0.22727090576171874,0.7296476708984375
-0.3033621875,0.08364797119140625,0.7534870312499999
-0.35101851562499997,-0.1298257080078125,0.8191067138671875
-0.329621796875,-0.12712971435546874,1.0378389892578126
-0.42712275390625,-0.0945327001953125,1.171781787109375
-0.3811684375,0.0020328906249999995,1.164900322265625
-0.33229638671875,-0.046740085449218746,1.0019570654296874
-0.444386015625,-0.016593974609375,0.766758427734375
-0.32305689453124997,0.008405239257812499,0.738249501953125
-0.38967849609375,-0.00850599365234375,0.6686975537109375
-0.37581925781250003,-0.05360261474609375,0.6411716943359375
-0.33570041015625,-0.09967959716796874,0.689096181640625
-0.4186126953125,-0.12222790771484375,0.69351998046875
-0.3855450390625,0.05227640869140625,0.744147900390625
-0.4808576953125,-0.0190448779296875,0.66206185546875
-0.5168430859375,-0.0999246875,0.696960712890625
-0.46651216796875,-0.11732610107421874,0.6800028173828125
-0.25862359375,-0.0055649096679687505,0.7237492724609375
-0.32402947265625,0.18168410400390625,0.76233462890625
-0.2250696484375,0.0799716162109375,0.837539208984375
-0.26056875,-0.0700236669921875,0.9124980224609375
-0.3563676953125,0.06600146728515625,1.0575003173828126
-0.54188697265625,0.080461796875,1.125577666015625
-0.49568951171875,-0.13105115966796876,1.0975602734375
-0.389921640625,-0.2567825,1.0063808642578125
-0.42517759765625,-0.0435539111328125,0.8235305126953125
-0.3670660546875,0.0037485229492187503,0.6669771875
-0.191515703125,0.04737460205078125,0.6421547607421875
-0.3466419140625,0.08805959716796875,0.8510563720703125
-0.312115390625,0.10962754638671875,1.0255506591796875
-0.39697283203125,-0.029338671875,1.2772156591796875
-0.55428734375,0.201046240234375,1.3288266455078124
-0.56036595703125,0.10987263671875,1.261240830078125
-0.29436583984375,-0.09085634521484375,1.19488384765625
-0.41836955078125,0.071638544921875,1.2570627978515625
-0.5112507617187501,0.01257177490234375,1.055779951171875
-0.42955419921875,-0.1151202880859375,0.850319072265625
-0.446331171875,-0.1141399267578125,0.6657483544921875
-0.45873154296875,-0.11193411376953125,0.6539515576171875
-0.4511940625,-0.06683749267578125,0.6524769580078125
-0.54188697265625,-0.025662316894531252,0.6849181494140625
-0.397702265625,0.0652661962890625,0.686146982421875
-0.1453182421875,-0.044534272460937496,0.80558955078125
-0.28026345703125,-0.032279755859375,1.0643817822265624
-0.41545181640625,-0.044534272460937496,1.19095158203125
-0.47648109375000003,-0.17247142578125,1.4929987353515626
-0.44900576171875,-0.18840229736328126,1.4045227587890625
-0.3787369921875,-0.042083369140625,1.138357529296875
-0.30409162109375,-0.01046671630859375,0.9604225097656249
-0.37460353515625,-0.2249207568359375,0.8982435595703124
-0.50492900390625,-0.07566074462890625,0.8834975634765625
-0.56668771484375,0.03266918212890625,0.81640328125
-0.5246237109375,0.0030132519531249997,0.86260740234375
-0.34810078125,-0.09183670654296874,1.0339067236328126
-0.31041337890625,-0.0055649096679687505,1.15949345703125
-0.42566388671875,-0.0141430712890625,1.222901240234375
-0.44706060546875,-0.2494297900390625,1.189476982421875
-0.26421591796875,-0.11830646240234374,1.068559814453125
-0.34396732421875,-0.12761989501953125,0.9857364697265625
-0.49204234375,-0.08742508056640624,0.91372685546875
-0.54918130859375,-0.05556333740234375,0.78002982421875
-0.42663646484375,-0.040122646484374996,0.64043439453125
-0.49617580078125,-0.12467881103515625,0.64829892578125
-0.50979189453125,-0.18055940673828125,0.540653154296875
-0.27515742187500003,-0.02713285888671875,0.4981355322265625
-0.24962724609375,0.097127939453125,0.5374581884765625
-0.34785763671875003,0.019434304199218752,0.684180849609375
-0.59343361328125,-0.1131595654296875,0.8746499658203125
-0.68193822265625,-0.05605351806640625,0.994829833984375
-0.5080898828125,0.09394176513671874,1.09067880859375
-0.38870591796875,0.1152646240234375,1.213070576171875
-0.42615017578125003,0.18903681396484376,1.390022529296875
-0.5576913671875,0.27849478515625,1.4738289404296876
-0.592217890625,0.01649322021484375,1.166374921875
-0.46286499999999997,-0.0347306591796875,0.90586232421875
-0.29509527343749997,-0.034240478515625,0.7183424072265625
-0.41836955078125,0.0530116796875,0.8058353173828126
-0.4575158203125,0.073599267578125,0.8289373779296875
-0.5781155078125,-0.096983603515625,0.796250419921875
-0.514411640625,-0.14134495361328125,0.6849181494140625
-0.37533296875,-0.1229631787109375,0.6067643701171875
-0.21193984375,-0.0023787353515625003,0.627162998046875
-0.37946642578125,-0.10065995849609374,0.7016302783203126
-0.42712275390625,-0.19232374267578126,0.7357918359375
-0.41010263671875,0.00766996826171875,0.875387265625
-0.3476144921875,-0.04575972412109375,0.9407611816406249
-0.2435486328125,0.040266982421875,1.0860092431640624
-0.43879369140625,0.2466330419921875,1.1882481494140624
-0.45727267578124997,0.32873830322265624,1.2703341943359374
-0.3738741015625,0.12947986328125,1.342835341796875
-0.224583359375,-0.175412509765625,1.3067076513671876
-0.38335673828125,-0.01438816162109375,1.269105361328125
-0.670024140625,0.00399361328125,1.065610615234375
-0.670024140625,-0.046004814453125,0.6984353125
-0.53945552734375,-0.1337471533203125,0.47036390625
-0.312115390625,-0.18987283935546875,0.323395478515625
-0.1492085546875,-0.0857094482421875,0.3334719091796875
-0.098148203125,0.00178780029296875,0.51853416015625
-0.13291787109375,0.0897752294921875,0.7905977880859375
-0.49471693359375,-0.04772044677734375,1.015474228515625
-0.621395234375,-0.068553125,1.1626884228515626
-0.4589746875,-0.0915916162109375,1.1902142822265624
-0.2133987109375,-0.11683592041015625,1.104933271484375
-0.2289599609375,0.06551128662109375,0.995812900390625
-0.315033125,-0.035711020507812496,0.839505341796875
-0.3913805078125,0.01257177490234375,0.7404614013671875
-0.46748474609375,-0.02223105224609375,0.706791376953125
-0.45289607421875,-0.0082609033203125,0.7104778759765625
-0.3884627734375,-0.0945327001953125,0.6669771875
-0.4059691796875,0.106931552734375,0.6652568212890625
-0.175954453125,0.12972495361328126,0.5777639111328124
-0.11298001953125,0.11992134033203125,0.798216552734375
-0.2153438671875,0.2701617138671875,1.23420650390625
-0.65081572265625,0.09835339111328124,1.46031177734375
-0.8066713671875,0.00816014892578125,1.3919886621093749
-0.63574076171875,0.04296297607421875,0.9808211376953125
-0.4332013671875,-0.146001669921875,0.7790467578125
-0.35272052734375,-0.21389169189453125,0.6259341650390625
-0.27199654296875,-0.010711806640625,0.56473828125
-0.27418484375,0.0358553564453125,0.559331416015625
-0.30895451171875,-0.096983603515625,0.6396970947265626
-0.20780638671875,-0.15654055419921875,0.9179048876953125
-0.4866931640625,-0.16487362548828124,1.1848074169921876
-0.61483033203125,-0.2082546142578125,1.0663479150390625
-0.2955815625,-0.0876701708984375,0.9149556884765625
-0.15091056640625,-0.0592396923828125,0.62667146484375
-0.156502890625,0.04320806640625,0.5094407958984375
-0.40645546875,0.03561026611328125,0.466923173828125
-0.44025255859375,-0.01046671630859375,0.462990908203125
-0.43344451171875,0.0486000537109375,0.5507295849609375
-0.210967265625,0.10031411376953125,0.8200897802734375
-0.3164919921875,0.13756784423828125,1.000728232421875
-0.4200715625,0.05521749267578125,1.0968229736328126
-0.58030380859375,0.0280124658203125,1.1985703466796875
-0.49593265625,-0.006790361328125,1.2469863671875
-0.41010263671875,-0.08644471923828125,1.1518746923828125
-0.39940427734375,-0.0641414990234375,1.1762055859375
-0.38092529296875,0.087324326171875,1.0570087841796876
-0.366579765625,0.11894097900390625,0.9434646142578125
-0.391866796875,0.12531332763671876,0.969270107421875
-0.539698671875,0.17629211669921874,1.19881611328125
-0.629175859375,0.228496357421875,1.3209621142578125
-0.72764939453125,0.14148928955078124,1.2133163427734375
-0.49666208984375,-0.00654527099609375,0.9582106103515625
-0.35758341796875,-0.20065681396484375,0.809030283203125
-0.25862359375,-0.1925688330078125,0.7389868017578125
-0.37217208984375,-0.05311243408203125,0.8284458447265625
-0.57203689453125,-0.0268877685546875,0.989914501953125
-0.68436966796875,-0.13154134033203124,0.9803296044921875
-0.49763466796875,-0.2869286108398437,0.8864467626953125
-0.380195859375,-0.212666240234375,0.835573076171875
-0.32257060546875,-0.0778665576171875,0.8461410400390625
-0.27588685546875,-0.1357078759765625,0.90193005859375
-0.337402421875,-0.11781628173828125,1.1361456298828125
-0.6267444140625,0.0182088525390625,1.3465218408203126
-0.510521328125,0.0446786083984375,1.290732822265625
-0.56620142578125,0.1691844970703125,1.18701931640625
-0.40913005859375,0.1858506396484375,1.08478041015625
-0.27880458984375,-0.12663953369140624,1.0437373876953124
-0.23503857421875,0.0927163134765625,0.9650920751953125
-0.32548833984375003,-0.0023787353515625003,0.9351085498046875
-0.3767918359375,-0.23055783447265624,1.0464408203125
-0.46699845703125,-0.2945264111328125,1.3111314501953124
-0.5547736328125,-0.130315888671875,1.4789900390625
-0.4536255078125,-0.1033559521484375,1.42983671875
-0.41691068359375,-0.0562986083984375,1.271071494140625
-0.25692158203125,-0.09722869384765626,1.06118681640625
-0.35612455078125,-0.06830803466796875,1.016948828125
-0.4667553125,0.05521749267578125,0.9965502001953125
-0.5003092578125,0.12041152099609376,0.914218388671875
-0.518301953125,0.1887917236328125,0.7593854296875
-0.4662690234375,0.06698182861328125,0.67484171875
-0.45095091796875,-0.04036773681640625,0.6335529296875
-0.34810078125,-0.157766005859375,0.4843726025390625
-0.284883203125,-0.16879507080078124,0.3605062353515625
-0.271267109375,-0.1445311279296875,0.34551447265625
-0.2338228515625,-0.0719843896484375,0.358785869140625
-0.36755234375,0.04688442138671875,0.5556449169921875
-0.45775896484375,0.008895419921875,0.8638362353515625
-0.4667553125,-0.0001729223632812504,1.18505318359375
-0.45192349609375,0.00570924560546875,1.4369639501953124
-0.5771429296875,0.26942644287109374,1.38756486328125
-0.23066197265625,0.03217900146484375,1.154578125
-0.13145900390625,-0.10703230712890625,0.9970417333984375
-0.31746457031249997,0.09394176513671874,1.05528841796875
-0.578601796875,0.12874459228515625,0.87931953125
-0.54577728515625,0.02972809814453125,0.8117337158203125
-0.5559893554687501,-0.0886505322265625,0.6915538476562499
-0.42031470703125,-0.04821062744140625,0.520991826171875
-0.3233000390625,0.014777587890624999,0.420719052734375
-0.29193439453125003,0.0299731884765625,0.411379921875
-0.22482650390625,-0.1033559521484375,0.4723300390625
-0.34421046875,-0.024436865234375,0.667468720703125
-0.49277177734375,0.07727562255859374,0.8087845166015625
-0.56425626953125,-0.10188541015625,0.8500733056640625
-0.32597462890625,-0.12516899169921875,0.8269712451171874
-0.19856689453125,0.05129604736328125,0.804114951171875
-0.21972046875,0.1162449853515625,0.7424275341796875
-0.28609892578125,0.16893940673828126,0.749554765625
-0.40523974609375,-0.00507472900390625,0.7773263916015625
-0.40913005859375,-0.10752248779296875,0.8820229638671875
-0.41982841796875,-0.09967959716796874,0.875878798828125
-0.49763466796875,0.08609887451171874,0.7271900048828125
-0.366579765625,0.161831787109375,0.6883588818359375
-0.51659994140625,-0.05801424072265625,0.7741314257812499
-0.501768125,-0.00777072265625,0.9818042041015624
-0.33181009765625,0.15962597412109375,1.1032129052734374
-0.25983931640625,0.1549692578125,1.21847744140625
-0.17765646484375,0.10570610107421875,1.414599189453125
-0.2017277734375,0.16624341308593749,1.582703544921875
-0.6491137109375,0.14541073486328124,1.5146261962890626
-0.6209089453125,-0.0053198193359375,1.1007552392578126
-0.51416849609375,-0.0719843896484375,0.8038691845703125
-0.290718671875,-0.05458297607421875,0.6532142578125
-0.2600824609375,-0.05360261474609375,0.5910353076171875
-0.51927453125,-0.063651318359375,0.606518603515625
-0.52000396484375,-0.140119501953125,0.640925927734375
-0.5294866015625,-0.11487519775390626,0.6043067041015625
-0.6423056640625,-0.067572763671875,0.77806369140625
-0.555259921875,0.0799716162109375,0.9439561474609375
-0.4507077734375,0.0162481298828125,0.987948369140625
-0.32840607421875,0.04149243408203125,1.0830600439453124
-0.27929087890625,-0.139139140625,1.1368829296875
-0.214857578125,-0.14232531494140624,1.230765771484375
-0.32086859375,-0.09967959716796874,1.237155703125
-0.500795546875,0.011346323242187501,1.12017080078125
-0.6442508203125,-0.10286577148437501,0.9542783447265625
-0.64206251953125,-0.11438501708984375,0.9070911572265625
-0.49471693359375,0.042227705078125,0.9110234228515625
-0.43927998046875,-0.02958376220703125,0.791335087890625
-0.3233000390625,-0.030073942871093752,0.647807392578125
-0.20002576171875,0.02580665283203125,0.724486572265625
-0.30871136718750003,0.0427178857421875,0.986965302734375
-0.3680386328125,0.06281529296875,1.384124130859375
-0.501768125,0.13903838623046874,1.659382724609375
-0.52681201171875,-0.10188541015625,1.77489302734375
-0.47040248046875,-0.22222476318359374,1.4261502197265625
-0.41350666015625,-0.10409122314453124,0.972219306640625
-0.33375525390625,-0.15556019287109374,0.69941837890625
-0.3553951171875,-0.2170778662109375,0.75053783203125
-0.4691867578125,-0.146001669921875,0.8987350927734374
-0.54820873046875,-0.25114542236328125,0.8242678125
-0.5783586523437501,-0.21389169189453125,0.690079248046875
-0.24525064453125,-0.09845414550781251,0.6023405712890625
-0.15334201171875,-0.0749254736328125,0.677299384765625
-0.267376796875,-0.21291133056640624,0.909303056640625
-0.4900971875,-0.1200220947265625,1.0700344140625
-0.4798851171875,0.09933375244140626,1.1887396826171874
-0.384086171875,0.063795654296875,1.1779259521484375
-0.5110076171875,-0.1719812451171875,0.9872110693359375
-0.3797095703125,0.0250713818359375,0.8628531689453125
-0.518301953125,-0.044044091796875,0.70629984375
-0.3573402734375,-0.195019736328125,0.5605602490234375
-0.14604767578125,-0.0915916162109375,0.520991826171875
-0.12246265625,-0.1376685986328125,0.4892879345703125
-0.1200312109375,-0.13399224365234375,0.5915268408203125
-0.146777109375,-0.15948163818359376,0.6972064794921875
-0.5134390625,0.062080021972656246,0.7581565966796875
