ax,ay,az
-0.2707808203125,-0.0396324658203125,0.922082919921875
-0.257651015625,-0.075415654296875,0.8864467626953125
-0.20464550781250002,-0.0881603515625,0.875878798828125
-0.25205869140625,-0.059729873046875,0.8928366943359375
-0.249870390625,-0.07713128662109375,0.9439561474609375
-0.2989855859375,-0.052867343750000004,0.97369390625
-0.221665625,-0.07664110595703125,0.9587021435546875
-0.2989855859375,-0.05164189208984375,0.968287041015625
-0.23552486328125,-0.05360261474609375,0.9862280029296875
-0.24281919921875,-0.069533486328125,0.9542783447265625
-0.2717533984375,-0.0376717431640625,0.9906518017578125
-0.282938046875,-0.01585870361328125,1.0592206835937499
-0.32743349609375,-0.077376376953125,1.0147369287109376
-0.2843969140625,0.0137972265625,0.990897568359375
-0.1385101953125,-0.05874951171875,0.9097945898437501
-0.316005703125,-0.05458297607421875,0.9842618701171875
-0.29096181640625,-0.0170841552734375,0.9724650732421874
-0.18300564453125,-0.02468195556640625,0.9483799462890625
-0.40062,-0.0013983740234375002,1.01399962890625
-0.2075632421875,0.004973974609375,1.111323203125
-0.30141703125,0.02678701416015625,1.0722463134765625
-0.3694975,-0.09085634521484375,0.9985163330078125
-0.2450075,-0.09722869384765626,0.931913583984375
-0.33278267578125,-0.14134495361328125,0.915201455078125
-0.3680386328125,-0.175412509765625,0.9407611816406249
-0.312115390625,-0.1744321484375,0.8554801708984375
-0.29339326171875,-0.14526639892578125,0.7316138037109375
-0.26178447265625,-0.0945327001953125,0.64829892578125
-0.2707808203125,-0.11046357177734376,0.671400986328125
-0.18689595703125,-0.013162709960937501,0.771673759765625
-0.28464005859375,0.052031318359375,0.9228202197265625
-0.24865466796875,0.02041466552734375,1.0938737744140625
-0.29874244140625,0.10766682373046875,1.1835785839843749
-0.331566953125,0.055462583007812497,1.115747001953125
-0.30944080078125,-0.01561361328125,1.134425263671875
-0.3865176171875,-0.0999246875,1.13983212890625
-0.428824765625,-0.10752248779296875,1.1073909375
-0.36439146484375,-0.1749223291015625,1.0643817822265624
-0.3019033203125,-0.1817848583984375,0.881777197265625
-0.2571647265625,-0.15752091552734376,0.7751144921875
-0.23309341796875,-0.0411030078125,0.832623876953125
-0.21704587890625,-0.06879821533203125,0.9159387548828125
-0.224583359375,-0.0298288525390625,1.0388220556640624
-0.244034921875,0.03462990478515625,1.0896957421875
-0.31746457031249997,-0.045024453125,1.1995534130859375
-0.3913805078125,-0.0562986083984375,1.047915419921875
-0.26518849609375,-0.11438501708984375,0.9577190771484375
-0.45630009765625,-0.048455717773437504,0.9788550048828125
-0.33424154296874997,-0.08423890625,0.946659580078125
-0.41447923828125,-0.10262068115234375,0.9459222802734375
-0.386031328125,0.01453249755859375,0.8918536279296875
-0.2367405859375,-0.12565917236328125,0.796250419921875
-0.1988100390625,-0.100905048828125,0.8299204443359375
-0.21972046875,-0.0327699365234375,0.8427003076171875
-0.11322316406249999,-0.198941181640625,0.9213456201171875
-0.1890842578125,-0.13325697265625,1.0830600439453124
-0.33083751953125,-0.1038461328125,1.11427240234375
-0.31722142578125,-0.1406096826171875,1.1843158837890626
-0.428824765625,-0.10409122314453124,1.195375380859375
-0.41399294921875,-0.06242586669921875,1.1840701171874999
-0.391866796875,-0.144040947265625,1.1194335009765626
-0.3670660546875,-0.0038492773437499997,1.061678349609375
-0.27394169921875,-0.07026875732421875,1.076424345703125
-0.36050115234375,-0.02149578125,1.0771616455078126
-0.28196546875,-0.044044091796875,1.0004824658203124
-0.15528716796875,-0.10654212646484375,0.94125271484375
-0.2406308984375,-0.13154134033203124,0.8785822314453124
-0.14969484375,-0.228352021484375,0.8343442431640625
-0.18859796875,-0.2692821069335937,0.88620099609375
-0.321841171875,-0.210705517578125,1.0402966552734374
-0.3213548828125,-0.163648173828125,1.1400778955078126
-0.42517759765625,-0.0602200537109375,1.2305200048828124
-0.43684853515625,-0.01978014892578125,1.2693511279296874
-0.46529644531250003,-0.00262382568359375,1.2745122265625
-0.44268400390625,0.1035002880859375,1.1671122216796874
-0.3865176171875,0.06673673828125,0.993355234375
-0.19346085937500002,-0.12860025634765626,0.956490244140625
-0.26275705078125,-0.2062938916015625,0.8407341748046875
-0.19029998046875,-0.1660990771484375,0.7736398925781249
-0.15164,-0.2484494287109375,0.7802755908203125
-0.31697828125,-0.2371752734375,0.843929140625
-0.31089966796875,-0.06879821533203125,0.954032578125
-0.372415234375,-0.03203466552734375,1.0810939111328124
-0.485234296875,0.00276816162109375,1.1435186279296874
-0.43174250000000003,0.055462583007812497,1.098051806640625
-0.38481560546875,-0.01561361328125,1.0496357861328125
-0.37557611328125,-0.055073156738281254,1.015474228515625
-0.35028908203125,-0.08546435791015625,0.9655836083984375
-0.3033621875,-0.2229600341796875,0.925032119140625
-0.33642984375,-0.20800952392578126,0.9646005419921875
-0.27394169921875,-0.12909043701171874,1.023338759765625
-0.2571647265625,-0.1116890234375,1.0211268603515624
-0.19662173828125,-0.07124911865234375,1.0579918505859376
-0.228473671875,-0.1092381201171875,1.0597122167968749
-0.20683380859375,-0.11781628173828125,1.112797802734375
-0.38384302734375,-0.03644629150390625,1.1056705712890624
-0.38821962890625,-0.10727739746093751,1.0899415087890625
-0.46164927734375,-0.10801266845703125,1.113780869140625
-0.4828028515625,-0.0827683642578125,1.0471781201171875
-0.3563676953125,-0.08301345458984374,0.946168046875
-0.304334765625,-0.09477779052734375,0.8191067138671875
-0.286828359375,-0.08595453857421875,0.8186151806640625
-0.22677166015625,-0.1543347412109375,0.843929140625
-0.20148462890625,-0.19771572998046874,0.9100403564453124
-0.20537494140625,-0.11364974609375,0.9481341796875
-0.19856689453125,-0.18815720703125,0.95501564453125
-0.228473671875,-0.123453359375,0.917167587890625
-0.29096181640625,-0.05090662109375,0.8505648388671875
-0.32864921874999997,-0.1670794384765625,0.8741584326171875
-0.3690112109375,-0.12173772705078124,0.9483799462890625
-0.4001337109375,-0.106787216796875,0.9926179345703126
-0.3505322265625,-0.20849970458984374,1.0461950537109375
-0.39065107421875,-0.1621776318359375,1.0722463134765625
-0.317950859375,-0.193059013671875,0.9739396728515625
-0.29728357421875,-0.12614935302734376,0.8852179296875
-0.19808060546875,-0.051886982421875,0.8498275390625
-0.1764407421875,-0.09967959716796874,0.8382765087890625
-0.1083602734375,-0.1523740185546875,0.903404658203125
-0.20926525390625,-0.14894275390625,0.987948369140625
-0.32281375,-0.18055940673828125,1.0142453955078126
-0.407428046875,-0.15261910888671876,0.9714820068359376
-0.368524921875,-0.1504132958984375,0.94321884765625
-0.3826273046875,-0.10899302978515625,0.9449392138671875
-0.40426716796875,-0.1268846240234375,0.922574453125
-0.34834392578125,-0.0798272802734375,0.9537868115234375
-0.35199109375,-0.13546278564453124,0.912252255859375
-0.333512109375,-0.104826494140625,0.8576920703124999
-0.2255559375,-0.1259042626953125,0.870963466796875
-0.2133987109375,-0.10948321044921874,0.9193794873046874
-0.18981369140625,-0.175412509765625,0.9488714794921875
-0.24476435546875,-0.17565760009765624,0.976151572265625
-0.26372962890625,-0.149923115234375,1.0162115283203126
-0.37606240234375,-0.17075579345703126,1.064627548828125
-0.45240978515625,-0.093062158203125,1.117713134765625
-0.5557462109375,-0.02174087158203125,1.0176861279296876
-0.37144265625,-0.1092381201171875,0.7620888623046875
-0.3262177734375,-0.16438344482421874,0.6362563623046875
-0.26032560546875,-0.1817848583984375,0.5878403417968749
-0.29047552734375,-0.21291133056640624,0.6807401171875
-0.36439146484375,-0.17222633544921875,0.83901380859375
-0.37752126953125,-0.17320669677734374,0.8810398974609375
-0.24087404296875,-0.16291290283203125,0.8245135791015625
-0.228473671875,-0.09575815185546875,0.8294289111328125
-0.2756437109375,-0.136198056640625,0.8702261669921875
-0.33764556640625,-0.198941181640625,0.9149556884765625
-0.34785763671875003,-0.10972830078125,0.91176072265625
-0.35977171875,-0.1288453466796875,0.8340984765625
-0.310170234375,-0.1327667919921875,0.828200078125
-0.3339983984375,-0.06928839599609375,0.8419630078125
-0.30919765625,-0.053847705078125,0.9191337207031249
-0.32937865234375,-0.061690595703125004,1.03366095703125
-0.35588140625,0.02360083984375,1.1612138232421876
-0.37606240234375,-0.03840701416015625,1.23224037109375
-0.32257060546875,-0.12271808837890624,1.2015195458984376
-0.28658521484375,-0.11757119140625,1.137374462890625
-0.234309140625,-0.1626678125,1.0267794921875
-0.308225078125,-0.2023724462890625,0.9169218212890625
-0.31673513671875,-0.15605037353515624,0.8505648388671875
-0.2445212109375,-0.16683434814453124,0.810013349609375
-0.2707808203125,-0.22761675048828126,0.8225474462890625
-0.35344996093750003,-0.13791368896484374,0.969761640625
-0.38335673828125,-0.175412509765625,1.05233921875
-0.3694975,-0.05997496337890625,1.0373474560546876
-0.3495596484375,-0.020515419921875,0.9547698779296875
-0.24087404296875,-0.1268846240234375,0.9488714794921875
-0.3135742578125,-0.232273466796875,1.0284998583984375
-0.21461443359375,-0.1788437744140625,1.156052724609375
-0.37995271484375,-0.24722397705078125,1.1621968896484376
-0.3680386328125,-0.1587463671875,1.1054248046875
-0.288773515625,-0.183255400390625,0.9284728515625
-0.22190876953125,-0.09967959716796874,0.9193794873046874
-0.24573693359375,-0.08791526123046875,0.9837703369140625
-0.23455228515625,-0.092081796875,1.1582646240234376
-0.39600025390625,-0.04306373046875,1.2703341943359374
-0.40037685546875,-0.09134652587890625,1.1946380810546875
-0.29509527343749997,-0.1445311279296875,1.0461950537109375
-0.29363640625,-0.1161006494140625,0.89013326171875
-0.22871681640625,-0.1161006494140625,0.835573076171875
-0.30846822265625,-0.18350049072265626,0.83508154296875
-0.33521412109375,-0.1837455810546875,0.91176072265625
-0.28512634765625,-0.1631579931640625,0.887675595703125
-0.28901666015625,-0.19085320068359374,0.9498545458984375
-0.26956509765625,-0.13105115966796876,0.972219306640625
-0.25473328125,-0.12418863037109375,0.9395323486328125
-0.2668905078125,-0.1004148681640625,0.9346170166015625
-0.28391062499999997,-0.05850442138671875,0.8780906982421874
-0.30555048828125,-0.08693489990234375,0.8913620947265625
-0.2571647265625,-0.09477779052734375,0.9704989404296875
-0.34007701171875,-0.14526639892578125,0.98942296875
-0.312115390625,-0.15678564453125,1.00810123046875
-0.377278125,-0.142080224609375,0.9324051171875
-0.28901666015625,-0.15359947021484374,0.85867513671875
-0.27151025390625,-0.1690401611328125,0.8353273095703125
-0.29144810546875,-0.14526639892578125,0.9520664453125
-0.27734572265625,-0.11291447509765624,1.053813818359375
-0.352963671875,-0.0298288525390625,1.0621698828125
-0.3048210546875,-0.06193568603515625,0.9881941357421875
-0.2386857421875,-0.02958376220703125,0.9429730810546875
-0.20804953125,-0.08448399658203125,0.8992266259765624
-0.23917203125,-0.11487519775390626,0.9459222802734375
-0.323786328125,-0.16487362548828124,0.992863701171875
-0.37168580078125,-0.13252170166015625,1.0801108447265624
-0.3485870703125,-0.13791368896484374,1.0747039794921875
-0.360744296875,-0.12909043701171874,1.0324321240234375
-0.31916658203125,-0.0366913818359375,1.0117877294921875
-0.28585578125,-0.081297822265625,0.9095488232421876
-0.31965287109375,-0.13717841796875,0.880794130859375
-0.32159802734375,-0.1038461328125,0.8805483642578125
-0.2800203125,-0.1798241357421875,0.894557060546875
-0.33424154296874997,-0.22565602783203126,0.9183964208984375
-0.29533841796875,-0.18497103271484375,0.864082001953125
-0.288773515625,-0.1626678125,0.7915808544921875
-0.2800203125,-0.12761989501953125,0.7952673535156249
-0.3359435546875,-0.0749254736328125,0.76626689453125
-0.27977716796875,-0.09575815185546875,0.78396208984375
-0.32937865234375,-0.067572763671875,0.8952943603515625
-0.32159802734375,-0.14575657958984375,0.986965302734375
-0.36779548828124997,-0.12761989501953125,1.0093300634765625
-0.33472783203125,-0.0955130615234375,0.9670582080078125
-0.338375,-0.069533486328125,0.8918536279296875
-0.2795340234375,-0.07443529296875,0.86064126953125
-0.29509527343749997,-0.0411030078125,0.92945591796875
-0.27296912109375,-0.07051384765625,0.9931094677734374
-0.317950859375,-0.069533486328125,1.0570087841796876
-0.24768208984375,-0.06291604736328126,1.0678225146484375
-0.3203823046875,-0.1102184814453125,1.0461950537109375
-0.28512634765625,-0.085219267578125,1.0157199951171876
-0.32402947265625,-0.1229631787109375,0.927981318359375
-0.33715927734375,-0.11487519775390626,0.8928366943359375
-0.31138595703125,-0.0259074072265625,0.9129895556640625
-0.31697828125,-0.0641414990234375,0.8898874951171875
-0.29436583984375,-0.08963089355468751,0.881777197265625
-0.31089966796875,-0.10065995849609374,0.9139726220703125
-0.269321953125,-0.1509034765625,0.980083837890625
-0.271267109375,-0.136198056640625,0.9847534033203125
-0.257651015625,-0.13056097900390626,0.98843990234375
-0.3164919921875,-0.06879821533203125,1.027271025390625
-0.30627992187499997,-0.10016977783203125,0.97467697265625
-0.263486484375,-0.10556176513671875,0.96681244140625
-0.31381740234375,-0.0729647509765625,1.023338759765625
-0.316005703125,-0.1278649853515625,1.0343982568359376
-0.28998923828125,-0.0886505322265625,1.0157199951171876
-0.30652306640625,-0.076396015625,0.9916348681640625
-0.3485870703125,-0.13791368896484374,0.9960586669921875
-0.237226875,-0.0700236669921875,0.9972875
-0.34226531250000003,-0.0798272802734375,0.9813126708984374
-0.27491427734375,-0.08595453857421875,1.012525029296875
-0.29387955078125,-0.09330724853515625,0.98450763671875
-0.31989601562500003,-0.0881603515625,1.065610615234375
-0.29509527343749997,-0.06781785400390625,1.056763017578125
-0.34931650390625,-0.14330567626953125,0.945676513671875
-0.27199654296875,-0.10752248779296875,0.9953213671875
-0.3330258203125,-0.12026718505859375,1.000728232421875
-0.30214646484375,-0.10286577148437501,0.9945840673828125
-0.3164919921875,-0.110708662109375,1.02383029296875
-0.31770771484375,-0.08399381591796876,1.0668394482421875
-0.3456693359375,-0.06879821533203125,1.019406494140625
-0.30141703125,-0.1611972705078125,0.9955671337890625
-0.29363640625,-0.0881603515625,0.943710380859375
-0.25449013671875,-0.12418863037109375,0.8707177001953125
-0.31235853515625,-0.16242272216796874,0.8633447021484375
-0.28634207031250003,-0.11340465576171875,0.8891501953125
-0.32086859375,-0.11732610107421874,0.9277355517578125
-0.2853694921875,-0.05458297607421875,0.9149556884765625
-0.35028908203125,-0.095022880859375,0.92945591796875
-0.27199654296875,-0.01144707763671875,0.9621428759765625
-0.36050115234375,-0.085219267578125,0.9520664453125
-0.39356880859375,-0.0690433056640625,0.9803296044921875
-0.29752671875000003,-0.03546593017578125,0.97271083984375
-0.35588140625,-0.03301502685546875,0.91569298828125
-0.31430369140625003,-0.05360261474609375,0.948625712890625
-0.28074974609375003,-0.0406128271484375,0.9921264013671875
-0.32500205078125,-0.06144550537109375,1.0368559228515626
-0.374360390625,-0.027868129882812502,1.079865078125
-0.32208431640625,-0.0631611376953125,1.077407412109375
-0.34202216796875,-0.0661022216796875,1.043000087890625
-0.3291355078125,-0.10727739746093751,1.0083469970703125
-0.3767918359375,-0.1141399267578125,0.983033037109375
-0.279047734375,-0.13203152099609375,0.9835245703125
-0.29509527343749997,-0.08742508056640624,1.02383029296875
-0.3544225390625,-0.13840386962890625,1.0722463134765625
-0.312115390625,-0.098944326171875,1.087238076171875
-0.3267040625,-0.13203152099609375,0.9901602685546875
-0.329621796875,-0.13448242431640625,0.9459222802734375
-0.2425760546875,-0.14085477294921875,0.9252778857421875
-0.32986494140625,-0.17467723876953126,0.891607861328125
-0.23066197265625,-0.153844560546875,0.887675595703125
-0.2766162890625,-0.16193254150390626,0.83311541015625
-0.2892598046875,-0.13325697265625,0.868014267578125
-0.24865466796875,-0.1504132958984375,0.9179048876953125
-0.30360533203125,-0.1043363134765625,0.97369390625
-0.3189234375,-0.12222790771484375,0.981066904296875
-0.3009307421875,-0.08987598388671875,0.976151572265625
-0.3072525,-0.091101435546875,0.8780906982421874
-0.2639727734375,-0.1337471533203125,0.771673759765625
-0.24306234375,-0.0974737841796875,0.7751144921875
-0.304334765625,-0.07664110595703125,0.739232568359375
-0.25108611328125,-0.09379742919921875,0.805098017578125
-0.35344996093750003,-0.06438658935546875,0.8392595751953125
-0.24962724609375,-0.0739451123046875,0.837539208984375
-0.25400384765625,-0.02419177490234375,0.846386806640625
-0.30700935546875,-0.008996174316406251,0.9646005419921875
-0.34737134765625,-0.0857094482421875,1.0407881884765624
-0.316005703125,-0.067572763671875,1.0530765185546875
-0.3281629296875,0.033404453125,1.067576748046875
-0.302389609375,-0.05605351806640625,1.0751955126953125
-0.3057936328125,-0.0837487255859375,1.049881552734375
-0.28074974609375003,-0.03914228515625,1.06708521484375
-0.34299474609375,-0.10850284912109374,1.032186357421875
-0.29436583984375,-0.0803174609375,1.07101748046875
-0.34737134765625,-0.10997339111328125,1.0427543212890624
-0.27418484375,-0.07370002197265625,1.0820769775390624
-0.3388612890625,-0.14502130859375,1.071509013671875
-0.36585033203125,-0.16242272216796874,1.06905134765625
-0.3145468359375,-0.13129625,1.1140266357421875
-0.3942982421875,-0.11487519775390626,1.129509931640625
-0.3223274609375,-0.161687451171875,1.098051806640625
-0.4020788671875,-0.10654212646484375,1.07494974609375
-0.32402947265625,-0.1180613720703125,1.0314490576171875
-0.3028758984375,-0.12933552734375,0.9370746826171875
-0.33278267578125,-0.1759026904296875,0.9110234228515625
-0.33618669921875,-0.07468038330078125,1.0184234277343749
-0.33181009765625,-0.1509034765625,1.0029401318359374
-0.37995271484375,-0.11193411376953125,1.0624156494140624
-0.4127772265625,-0.10409122314453124,1.0334151904296875
-0.31746457031249997,-0.10801266845703125,1.0068723974609375
-0.39600025390625,-0.11144393310546875,0.938303515625
-0.3505322265625,-0.13840386962890625,0.907336923828125
-0.34226531250000003,-0.0974737841796875,0.931913583984375
-0.38967849609375,-0.1631579931640625,0.9238032861328125
-0.38432931640625,-0.14183513427734376,0.9110234228515625
-0.370470078125,-0.13129625,0.82918314453125
-0.2221519140625,-0.1484525732421875,0.8259881787109375
-0.315033125,-0.12222790771484375,0.9808211376953125
-0.3476144921875,-0.12369844970703125,1.043983154296875
-0.361716875,-0.09232688720703125,1.0422627880859374
-0.302389609375,-0.08154291259765625,0.991880634765625
-0.273212265625,-0.1543347412109375,1.0093300634765625
-0.34226531250000003,-0.0925719775390625,1.1093570703125
-0.29728357421875,-0.1337471533203125,1.1604765234375
-0.3923530859375,-0.08791526123046875,1.16342572265625
-0.34810078125,-0.07443529296875,1.08674654296875
-0.24233291015625,-0.12222790771484375,1.063644482421875
-0.3427516015625,-0.15678564453125,1.0624156494140624
-0.31089966796875,-0.12173772705078124,1.1037044384765624
-0.26421591796875,-0.130315888671875,1.088221142578125
-0.294608984375,-0.15703073486328126,1.0427543212890624
-0.27248283203125,-0.16977543212890625,1.0348897900390626
-0.3446967578125,-0.15703073486328126,1.0152284619140626
-0.2902323828125,-0.1690401611328125,1.056763017578125
-0.29387955078125,-0.11242429443359375,1.101984072265625
-0.37217208984375,-0.15261910888671876,1.1145181689453125
-0.3719289453125,-0.169530341796875,1.0992806396484376
-0.30700935546875,-0.05115171142578125,1.0464408203125
-0.3388612890625,-0.11781628173828125,0.922574453125
-0.2571647265625,-0.1053166748046875,0.9360916162109375
-0.265431640625,-0.157766005859375,0.97860923828125
-0.33813185546875,-0.17222633544921875,1.04742388671875
-0.356853984375,-0.15703073486328126,0.975168505859375
-0.321841171875,-0.155805283203125,0.9046334912109375
-0.29631099609375,-0.12614935302734376,0.895540126953125
-0.29485212890625,-0.12149263671875,0.91176072265625
-0.31138595703125,-0.18595139404296876,0.987948369140625
-0.34810078125,-0.13301188232421876,1.0245675927734375
-0.28366748046875,-0.114630107421875,1.0545511181640626
-0.33715927734375,-0.21095060791015624,0.9992536328125
-0.25108611328125,-0.126394443359375,0.96681244140625
-0.23139140625,-0.13448242431640625,0.9567360107421875
-0.36730919921875,-0.1337471533203125,0.969761640625
-0.2722396875,-0.059484782714843754,1.0771616455078126
-0.3485870703125,-0.05801424072265625,1.0894499755859375
-0.3077387890625,-0.07271966064453125,1.0250591259765625
-0.27783201171875,-0.02615249755859375,1.014491162109375
-0.36220316406249997,-0.076396015625,0.993355234375
-0.28634207031250003,-0.09722869384765626,0.9324051171875
-0.347128203125,-0.050661530761718754,0.8982435595703124
-0.341292734375,-0.08791526123046875,0.8594124365234375
-0.33375525390625,-0.12369844970703125,0.8181236474609375
-0.32791978515625,-0.065612041015625,0.835573076171875
-0.30627992187499997,-0.10556176513671875,0.858183603515625
-0.30603677734375,-0.10188541015625,0.835573076171875
-0.3164919921875,-0.13717841796875,0.870963466796875
-0.30700935546875,-0.0582593310546875,0.8815314306640625
-0.3359435546875,-0.08987598388671875,0.84786140625
-0.3213548828125,-0.13742350830078126,0.865065068359375
-0.32086859375,-0.09012107421875,0.9316678173828125
-0.341292734375,-0.08938580322265625,0.98450763671875
-0.2843969140625,-0.06928839599609375,0.9488714794921875
-0.331566953125,-0.087179990234375,0.914709921875
-0.3048210546875,-0.11732610107421874,0.941744248046875
-0.27734572265625,-0.12811007568359375,0.916184521484375
-0.2980130078125,-0.13840386962890625,0.9262609521484375
-0.27977716796875,-0.05899460205078125,0.9105318896484375
-0.30603677734375,-0.15899145751953125,0.859658203125
-0.3028758984375,-0.104826494140625,0.954524111328125
-0.267376796875,-0.0881603515625,0.961897109375
-0.3291355078125,-0.1259042626953125,0.9680412744140625
-0.2630001953125,-0.1425704052734375,1.004660498046875
-0.314060546875,-0.08619962890625,0.9439561474609375
-0.28123603515625,-0.1543347412109375,0.9282270849609375
-0.315033125,-0.1210024560546875,0.9675497412109375
-0.30555048828125,-0.09330724853515625,0.97369390625
-0.3262177734375,-0.1013952294921875,0.9405154150390624
-0.3106565234375,-0.09722869384765626,0.93142205078125
-0.28172232421875,-0.0788469189453125,0.927981318359375
-0.25157240234375,-0.1082577587890625,0.9478884130859375
-0.35515197265625,-0.0999246875,0.9247863525390625
-0.2873146484375,-0.08301345458984374,0.9523122119140625
-0.33253953125,-0.130315888671875,0.933879716796875
-0.39405509765625,-0.1082577587890625,0.9621428759765625
-0.26713365234374997,-0.10409122314453124,0.9803296044921875
-0.3495596484375,-0.118551552734375,0.9272440185546875
-0.3048210546875,-0.1062970361328125,1.00515203125
-0.33181009765625,-0.08595453857421875,1.032677890625
-0.31235853515625,-0.1553151025390625,0.9616513427734374
-0.26372962890625,-0.108747939453125,0.9282270849609375
-0.31308796875,-0.09624833251953124,0.889641728515625
-0.29193439453125003,-0.11830646240234374,0.93338818359375
-0.30944080078125,-0.10752248779296875,0.977626171875
-0.34883021484375,-0.09771887451171875,0.9813126708984374
-0.28196546875,-0.0960032421875,0.9631259423828125
-0.3271903515625,-0.13644314697265625,0.9744312060546875
-0.2386857421875,-0.11928682373046876,1.0083469970703125
-0.382141015625,-0.1239435400390625,1.006626630859375
-0.2814791796875,-0.11536537841796875,1.040542421875
-0.38481560546875,-0.12075736572265625,0.9793465380859375
-0.288773515625,-0.0768861962890625,0.953541044921875
-0.27029453125,-0.08742508056640624,1.0093300634765625
-0.33861814453125,-0.1053166748046875,0.952557978515625
-0.2882872265625,-0.12933552734375,0.9756600390625
-0.302389609375,-0.1038461328125,0.97467697265625
-0.376305546875,-0.14281549560546875,0.9518206787109375
-0.28512634765625,-0.1347275146484375,0.9577190771484375
-0.33181009765625,-0.09330724853515625,0.969761640625
-0.3578265625,-0.14526639892578125,0.9921264013671875
-0.29631099609375,-0.12124754638671875,0.968287041015625
-0.366579765625,-0.0719843896484375,0.954524111328125
-0.31284482421875,-0.1210024560546875,0.9940925341796875
-0.323786328125,-0.08644471923828125,0.991880634765625
-0.30360533203125,-0.157766005859375,0.930930517578125
-0.2698082421875,-0.092081796875,0.9434646142578125
-0.3281629296875,-0.108747939453125,0.8761245654296875
-0.30944080078125,-0.13595296630859374,0.91372685546875
-0.30530734375,-0.14722712158203125,0.9675497412109375
-0.36390517578125,-0.09232688720703125,1.028745625
-0.27394169921875,-0.12369844970703125,1.0442289208984374
-0.3145468359375,-0.12614935302734376,1.0044147314453125
-0.3485870703125,-0.0994345068359375,0.9913891015625
-0.282938046875,-0.12663953369140624,0.9690243408203125
-0.3563676953125,-0.14232531494140624,0.9311762841796875
-0.26275705078125,-0.0631611376953125,0.9793465380859375
-0.3096839453125,-0.1180613720703125,0.9547698779296875
-0.316005703125,-0.08350363525390625,0.9631259423828125
-0.22701480468750002,-0.1298257080078125,0.953541044921875
-0.30992708984375,-0.0749254736328125,0.9714820068359376
-0.31965287109375,-0.1288453466796875,1.0068723974609375
-0.31576255859375,-0.11634573974609375,0.989914501953125
-0.3145468359375,-0.08595453857421875,0.9901602685546875
-0.3694975,-0.11561046875,0.9537868115234375
-0.3009307421875,-0.15212892822265625,0.9242948193359375
-0.3242726171875,-0.07051384765625,0.9493630126953125
-0.349073359375,-0.11095375244140625,0.9655836083984375
-0.30749564453125,-0.108747939453125,1.0009739990234374
-0.32354318359375,-0.09134652587890625,1.02776255859375
-0.302389609375,-0.14526639892578125,0.9808211376953125
-0.3033621875,-0.1386489599609375,0.92355751953125
-0.29679728515625,-0.1229631787109375,0.8820229638671875
-0.2659179296875,-0.1376685986328125,0.8879213623046875
-0.36585033203125,-0.0925719775390625,0.9282270849609375
-0.333512109375,-0.07370002197265625,1.0284998583984375
-0.2775888671875,-0.11340465576171875,1.001711298828125
-0.3369161328125,-0.09967959716796874,1.022355693359375
-0.31722142578125,-0.1161006494140625,1.0270252587890625
-0.3184371484375,-0.1352176953125,0.9680412744140625
-0.32305689453124997,-0.11291447509765624,0.9316678173828125
-0.26810623046875,-0.1572758251953125,0.881777197265625
-0.2980130078125,-0.10556176513671875,0.9016842919921875
-0.31527626953125,-0.12933552734375,0.987948369140625
-0.32354318359375,-0.1102184814453125,1.0034316650390624
-0.27685943359375,-0.0837487255859375,1.041033955078125
-0.304334765625,-0.1180613720703125,1.0171945947265626
-0.3894353515625,-0.0631611376953125,1.0385762890625
-0.25400384765625,-0.1141399267578125,0.979100771484375
-0.33642984375,-0.1210024560546875,0.9009469921875
-0.3573402734375,-0.1102184814453125,0.9311762841796875
-0.32086859375,-0.0945327001953125,1.0228472265625
-0.35977171875,-0.12516899169921875,1.0149826953125
-0.35661083984374997,-0.1161006494140625,0.98843990234375
-0.2318776953125,-0.12958061767578125,0.9434646142578125
-0.3116291015625,-0.1288453466796875,0.8485987060546875
-0.32281375,-0.16536380615234375,0.8574463037109374
-0.33181009765625,-0.09845414550781251,0.9459222802734375
-0.29290697265625,-0.12467881103515625,0.96877857421875
-0.3388612890625,-0.16242272216796874,0.9931094677734374
-0.30457791015625,-0.10409122314453124,1.0031858984375
-0.29047552734375,-0.107767578125,0.979100771484375
-0.34810078125,-0.1474722119140625,0.9410069482421874
-0.33424154296874997,-0.12271808837890624,0.966320908203125
-0.29825615234375,-0.12320826904296875,0.9316678173828125
-0.327676640625,-0.1141399267578125,0.94223578125
-0.26470220703125,-0.11242429443359375,0.9424815478515625
-0.3271903515625,-0.128355166015625,0.91176072265625
-0.31381740234375,-0.0582593310546875,1.0098215966796875
-0.31333111328125,-0.16462853515625,1.00220283203125
-0.32475890625,-0.08497417724609375,1.0049062646484375
-0.29874244140625,-0.12026718505859375,0.995812900390625
-0.33108066406250003,-0.16144236083984376,0.9365831494140625
-0.32597462890625,-0.09526797119140624,0.9196252539062499
-0.329621796875,-0.1376685986328125,0.9734481396484375
-0.35515197265625,-0.09085634521484375,0.9901602685546875
-0.32986494140625,-0.139139140625,0.9906518017578125
-0.34591248046875,-0.0960032421875,0.9877026025390625
-0.2902323828125,-0.123453359375,0.9442019140625
-0.29874244140625,-0.13105115966796876,0.920116787109375
-0.27248283203125,-0.124433720703125,0.924049052734375
-0.34493990234375,-0.171491064453125,0.873912666015625
-0.267376796875,-0.10458140380859375,0.965337841796875
-0.30627992187499997,-0.15359947021484374,0.9604225097656249
-0.377278125,-0.12173772705078124,1.021372626953125
-0.2853694921875,-0.1347275146484375,1.0363643896484376
-0.39308251953125,-0.12565917236328125,0.9965502001953125
-0.299471875,-0.16046199951171874,0.9587021435546875
-0.29971501953125,-0.139139140625,0.93338818359375
-0.32743349609375,-0.14894275390625,0.9439561474609375
-0.282938046875,-0.11634573974609375,0.926015185546875
-0.27394169921875,-0.1602169091796875,0.8746499658203125
-0.33108066406250003,-0.0612004150390625,0.879811064453125
-0.26810623046875,-0.0974737841796875,0.9400238818359374
-0.3359435546875,-0.05458297607421875,1.0191607275390624
-0.36536404296875,-0.06340622802734375,1.021372626953125
-0.33472783203125,-0.09967959716796874,0.9577190771484375
-0.2814791796875,-0.10556176513671875,0.8889044287109376
-0.3408064453125,-0.16070708984375,0.8702261669921875
-0.24330548828125,-0.1278649853515625,0.920116787109375
-0.31478998046875,-0.12173772705078124,0.9402696484374999
-0.377278125,-0.13840386962890625,1.04152548828125
-0.32062544921875,-0.1484525732421875,0.9896687353515625
-0.30166017578125,-0.10752248779296875,0.9508376123046876
-0.298499296875,-0.116590830078125,0.93732044921875
-0.29485212890625,-0.144040947265625,0.9193794873046874
-0.3135742578125,-0.14036459228515624,0.8746499658203125
-0.2532744140625,-0.0960032421875,0.921099853515625
-0.335457265625,-0.0960032421875,0.947642646484375
-0.2561921484375,-0.13252170166015625,0.9886856689453125
-0.3631757421875,-0.1082577587890625,0.989914501953125
-0.34591248046875,-0.091101435546875,1.0063808642578125
-0.30409162109375,-0.132276611328125,0.97860923828125
-0.32500205078125,-0.095022880859375,0.9601767431640625
-0.279047734375,-0.1415900439453125,0.9110234228515625
-0.32500205078125,-0.1170810107421875,0.8780906982421874
-0.26713365234374997,-0.07713128662109375,0.9144641552734375
-0.27880458984375,-0.1509034765625,0.8603955029296875
-0.29631099609375,-0.08840544189453126,0.9931094677734374
-0.343237890625,-0.06879821533203125,1.049881552734375
-0.2795340234375,-0.09918941650390625,1.00416896484375
-0.33715927734375,-0.071494208984375,0.962388642578125
-0.3651208984375,-0.12958061767578125,0.9631259423828125
-0.2878009375,-0.11683592041015625,0.9503460791015625
-0.34980279296875,-0.11193411376953125,0.9434646142578125
-0.33861814453125,-0.13448242431640625,0.9867195361328125
-0.3262177734375,-0.09820905517578125,0.944693447265625
-0.28755779296875,-0.12565917236328125,0.8992266259765624
-0.34007701171875,-0.0881603515625,0.9154472216796875
-0.28391062499999997,-0.06438658935546875,0.9464138134765625
-0.366579765625,-0.10605194580078126,0.90782845703125
-0.2717533984375,-0.1151202880859375,0.911269189453125
-0.37411724609375,-0.10065995849609374,0.924049052734375
-0.23552486328125,-0.167569619140625,0.9183964208984375
-0.30603677734375,-0.14526639892578125,0.8805483642578125
-0.29193439453125003,-0.104826494140625,0.9567360107421875
-0.32451576171875,-0.0729647509765625,0.9754142724609375
-0.28220861328125,-0.1352176953125,0.970253173828125
-0.37022693359375003,-0.08448399658203125,0.98254150390625
-0.28853037109375,-0.09085634521484375,0.968287041015625
-0.3111428125,-0.0739451123046875,0.9213456201171875
-0.33715927734375,-0.12418863037109375,0.945676513671875
-0.29242068359375,-0.06487677001953125,1.0117877294921875
-0.30652306640625,-0.035711020507812496,0.9945840673828125
-0.33472783203125,-0.08938580322265625,0.943710380859375
-0.24670951171875,-0.01683906494140625,1.00613509765625
-0.37654869140625,-0.106787216796875,0.97467697265625
-0.28998923828125,-0.15310928955078124,0.965829375
-0.31697828125,-0.12811007568359375,0.9520664453125
-0.28585578125,-0.1092381201171875,0.9174133544921875
-0.35028908203125,-0.18031431640625,0.9016842919921875
-0.33253953125,-0.08350363525390625,1.0088385302734375
-0.280992890625,-0.09722869384765626,1.004660498046875
-0.33083751953125,-0.11046357177734376,0.98843990234375
-0.32281375,-0.04085791748046875,1.005643564453125
-0.294608984375,-0.08619962890625,0.9813126708984374
-0.3019033203125,-0.091101435546875,0.970253173828125
-0.3456693359375,-0.09379742919921875,0.9537868115234375
-0.2221519140625,-0.1210024560546875,0.9818042041015624
-0.31722142578125,-0.09526797119140624,0.94223578125
-0.366579765625,-0.120512275390625,0.9700074072265625
-0.27199654296875,-0.14477621826171874,0.9660751416015625
-0.34032015625,-0.02664267822265625,0.9990078662109375
-0.34980279296875,-0.1430605859375,1.0108046630859375
-0.30457791015625,-0.05311243408203125,0.9985163330078125
-0.32864921874999997,-0.05801424072265625,0.9444476806640625
-0.288773515625,-0.12958061767578125,0.8984893261718749
-0.32694720703125,-0.0371815625,0.9675497412109375
-0.32937865234375,-0.0749254736328125,0.9749227392578125
-0.28172232421875,-0.0729647509765625,0.98057537109375
-0.2960678515625,-0.0562986083984375,1.0132623291015626
-0.32257060546875,-0.1161006494140625,0.9842618701171875
-0.27442798828125,-0.08619962890625,0.97271083984375
-0.33667298828125003,-0.12761989501953125,0.9424815478515625
-0.3811684375,-0.09771887451171875,0.9704989404296875
-0.2736985546875,-0.114630107421875,0.979100771484375
-0.3592854296875,-0.09526797119140624,0.97467697265625
-0.3009307421875,-0.0729647509765625,0.9675497412109375
-0.29047552734375,-0.10605194580078126,0.95501564453125
-0.31527626953125,-0.08619962890625,0.9788550048828125
-0.26056875,-0.0857094482421875,0.96681244140625
-0.31138595703125,-0.1038461328125,0.9257694189453125
-0.31624884765625,-0.11487519775390626,0.9306847509765624
-0.24184662109375,-0.12149263671875,0.923065986328125
-0.32694720703125,-0.10703230712890625,0.970253173828125
-0.3223274609375,-0.0803174609375,1.0329236572265625
-0.2912049609375,-0.067572763671875,1.000728232421875
-0.358799140625,-0.06928839599609375,1.0353813232421876
-0.29436583984375,-0.049926259765625,0.9975332666015625
-0.27807515625,-0.05556333740234375,0.9056165576171875
-0.33083751953125,-0.04919098876953125,0.8874298291015625
-0.25594900390624997,-0.03399538818359375,0.9238032861328125
-0.34007701171875,-0.0768861962890625,0.9336339501953125
-0.3038484765625,-0.02419177490234375,0.9972875
-0.31819400390625,-0.051886982421875,0.965829375
-0.3252451953125,-0.045024453125,1.0019570654296874
-0.30214646484375,-0.06659240234375,1.033169423828125
-0.34104958984375,-0.13938423095703126,1.00810123046875
-0.3729015234375,-0.07713128662109375,0.952557978515625
-0.26056875,-0.1033559521484375,0.9336339501953125
-0.3330258203125,-0.0582593310546875,0.930930517578125
-0.30944080078125,-0.075415654296875,0.9095488232421876
-0.31673513671875,-0.06585713134765625,0.9041419580078125
-0.2639727734375,-0.04085791748046875,0.9041419580078125
-0.25692158203125,-0.0700236669921875,0.9144641552734375
-0.30360533203125,-0.0376717431640625,0.974185439453125
-0.2892598046875,-0.05899460205078125,0.9734481396484375
-0.36050115234375,-0.0817880029296875,0.923065986328125
-0.23503857421875,-0.025662316894531252,0.9110234228515625
-0.338375,-0.05164189208984375,0.9591936767578125
-0.28998923828125,-0.03252484619140625,1.03661015625
-0.3033621875,-0.0180645166015625,1.0393135888671874
-0.35393625,-0.0001729223632812504,1.0260421923828125
-0.31235853515625,-0.0028689160156250004,1.01006736328125
-0.298499296875,-0.05311243408203125,0.9346170166015625
-0.26640421875,-0.0411030078125,0.92945591796875
-0.29776986328125,-0.0646316796875,0.9097945898437501
-0.26129818359375,-0.044044091796875,0.9198710205078124
-0.277102578125,-0.07468038330078125,0.93338818359375
-0.32500205078125,-0.05017135009765625,1.0029401318359374
-0.2941226953125,-0.01732924560546875,1.016457294921875
-0.3019033203125,-0.0788469189453125,0.9992536328125
-0.35272052734375,-0.046004814453125,0.97860923828125
-0.26154132812499997,-0.059484782714843754,0.9247863525390625
-0.3271903515625,-0.0710040283203125,0.91569298828125
-0.2873146484375,-0.0435539111328125,0.9360916162109375
-0.32257060546875,-0.01978014892578125,0.928964384765625
-0.26640421875,-0.04477936279296875,0.9562444775390625
-0.32257060546875,-0.0327699365234375,1.01203349609375
-0.2746711328125,-0.06536695068359374,1.0407881884765624
-0.25862359375,-0.032279755859375,1.00220283203125
-0.29169125,-0.055808427734375,0.92748978515625
-0.2931501171875,-0.0435539111328125,0.936828916015625
-0.3048210546875,-0.04281864013671875,0.9709904736328125
-0.32500205078125,-0.04526954345703125,0.9542783447265625
-0.30919765625,-0.008996174316406251,0.962388642578125
-0.2649453515625,-0.00997653564453125,0.9301932177734376
-0.30457791015625,-0.04183827880859375,0.8694888671875
-0.26810623046875,7.216796875000007e-05,0.902913125
-0.29096181640625,-0.046004814453125,0.8962774267578125
-0.3271903515625,0.00178780029296875,0.8879213623046875
-0.2795340234375,0.02335574951171875,0.8984893261718749
-0.26518849609375,0.03266918212890625,0.878827998046875
-0.31916658203125,0.0436982470703125,0.9284728515625
-0.30555048828125,0.01600303955078125,0.9874568359375
-0.33983386718749997,0.0633054736328125,1.021372626953125
-0.3057936328125,0.01306195556640625,1.0122792626953125
-0.3349709765625,0.0191892138671875,0.958456376953125
-0.31576255859375,-0.01144707763671875,0.9449392138671875
-0.35223423828125,-0.0006631030273437505,0.9626344091796875
-0.3189234375,0.0059543359375,0.88030259765625
-0.27831830078124997,-0.02737794921875,0.884726396484375
-0.25449013671875,-0.0415931884765625,0.9186421875
-0.3203823046875,-0.0651218603515625,1.0078554638671875
-0.32451576171875,-0.05482806640625,1.03661015625
-0.30603677734375,-0.05556333740234375,0.976151572265625
-0.2532744140625,-0.05409279541015625,0.9292101513671875
-0.2610550390625,-0.010221625976562499,0.9301932177734376
-0.2503566796875,-0.04821062744140625,1.0228472265625
-0.33326896484375,0.0505607763671875,1.0791277783203126
-0.30117388671875,-0.02027032958984375,1.1199250341796876
-0.3694975,0.03266918212890625,1.1041959716796874
-0.361716875,0.03364954345703125,1.04545775390625
-0.25254498046875,-0.03203466552734375,0.9520664453125
-0.296554140625,-0.029338671875,0.8962774267578125
-0.28464005859375,-0.042083369140625,0.9120064892578125
-0.2775888671875,0.02139502685546875,0.9459222802734375
-0.35344996093750003,-0.03497574951171875,0.9481341796875
-0.35612455078125,-0.032279755859375,0.992863701171875
-0.331566953125,0.01845394287109375,0.9297016845703125
-0.29363640625,-0.010221625976562499,0.908319990234375
-0.323786328125,0.010856142578125,0.9247863525390625
-0.30409162109375,0.021885207519531248,0.9051250244140625
-0.325731484375,-0.00654527099609375,0.9346170166015625
-0.33861814453125,0.03144373046875,0.9095488232421876
-0.28658521484375,0.0142874072265625,0.8751414990234375
-0.30895451171875,-0.01978014892578125,0.9186421875
-0.23528171875,0.081442158203125,1.000728232421875
-0.2955815625,0.02874773681640625,1.0422627880859374
-0.28755779296875,0.055462583007812497,1.110831669921875
-0.36536404296875,0.06502110595703126,1.114763935546875
-0.32111173828125,0.02139502685546875,1.1066536376953124
-0.25400384765625,0.02580665283203125,1.1046875048828124
-0.33715927734375,0.0348749951171875,1.0044147314453125
-0.26324333984375,-0.0768861962890625,1.0265337255859375
-0.27807515625,0.04100225341796875,1.05332228515625
-0.35758341796875,0.010611052246093749,1.0346440234375
-0.28391062499999997,-0.051886982421875,1.0661021484375
-0.2882872265625,0.02090484619140625,1.0181776611328126
-0.24938410156250002,-0.048945898437499996,0.9891772021484375
-0.30749564453125,-0.06340622802734375,0.9980247998046875
-0.316005703125,0.015022678222656249,0.9901602685546875
-0.25157240234375,-0.0425735498046875,0.978117705078125
-0.3816547265625,-0.01046671630859375,0.946659580078125
-0.30603677734375,-0.1626678125,0.9129895556640625
-0.31308796875,-0.123453359375,0.848352939453125
-0.24622322265625,-0.095022880859375,0.7802755908203125
-0.27053767578125,-0.1710008837890625,0.783470556640625
-0.30457791015625,-0.0592396923828125,0.847369873046875
-0.26154132812499997,-0.028113220214843748,0.9011927587890625
-0.368524921875,-0.04330882080078125,0.993846767578125
-0.312115390625,0.06502110595703126,1.036118623046875
-0.2620276171875,0.03144373046875,1.008592763671875
-0.28123603515625,0.10129447509765625,1.087729609375
-0.286828359375,0.04835496337890625,1.086255009765625
-0.3349709765625,-0.03448556884765625,1.0395593554687501
-0.29193439453125003,-0.0053198193359375,0.9749227392578125
-0.31624884765625,0.00766996826171875,0.9206083203125
-0.221665625,-0.012672529296875,0.904387724609375
-0.30992708984375,0.04345315673828125,0.9950756005859375
-0.356853984375,-0.01487834228515625,1.0447204541015624
-0.26324333984375,0.0329142724609375,1.1258234326171874
-0.327676640625,0.101049384765625,1.1680952880859374
-0.33181009765625,0.024581201171875,1.0491442529296875
-0.3320532421875,-0.0013983740234375002,1.0417712548828124
-0.34202216796875,0.08070688720703124,1.0358728564453126
-0.26567478515625,-0.03987755615234375,0.9346170166015625
-0.269321953125,-0.05360261474609375,0.8984893261718749
-0.30798193359375,-0.07419020263671874,0.8697346337890625
-0.346155625,-0.0406128271484375,0.9444476806640625
-0.35952857421875,-0.076396015625,0.9552614111328125
-0.32646091796875,-0.09624833251953124,0.956490244140625
-0.29509527343749997,0.0368357177734375,0.9660751416015625
-0.34104958984375,-0.077376376953125,0.8859552294921875
-0.29339326171875,0.00717978759765625,0.8977520263671875
-0.28512634765625,-0.06242586669921875,0.9041419580078125
-0.338375,-0.04183827880859375,0.9341254833984375
-0.29533841796875,-0.023456503906250002,0.944693447265625
-0.3019033203125,0.0003172583007812497,0.879811064453125
-0.2668905078125,-0.05409279541015625,0.843437607421875
-0.26810623046875,-0.0425735498046875,0.89504859375
-0.30749564453125,-0.0371815625,0.933879716796875
-0.2824517578125,-0.01634888427734375,0.9424815478515625
-0.26421591796875,0.06600146728515625,0.9768888720703125
-0.36196001953125,0.07433453857421875,0.965829375
-0.251815546875,0.04320806640625,1.0442289208984374
-0.3223274609375,0.05521749267578125,1.119187734375
-0.31965287109375,0.07457962890625,1.09067880859375
-0.298499296875,-0.00752563232421875,0.97860923828125
-0.33278267578125,0.08560869384765625,0.9547698779296875
-0.2766162890625,0.0030132519531249997,0.8594124365234375
-0.2630001953125,-0.04330882080078125,0.893573994140625
-0.28318119140625,-0.010221625976562499,0.9818042041015624
-0.282938046875,-0.04575972412109375,0.965829375
-0.25886673828125,-0.05115171142578125,0.9955671337890625
-0.29825615234375,-0.02909358154296875,0.9999909326171875
-0.31430369140625003,-0.03938737548828125,0.9528037451171875
-0.279047734375,-0.03522083984375,0.955507177734375
-0.31333111328125,-0.04330882080078125,1.03562708984375
-0.34591248046875,-0.035711020507812496,1.0250591259765625
-0.337402421875,-0.044534272460937496,0.990897568359375
-0.24962724609375,-0.0190448779296875,0.972219306640625
-0.35028908203125,0.0037485229492187503,0.94321884765625
-0.27807515625,-0.042083369140625,0.9559987109375
-0.2746711328125,-0.03889719482421875,0.9837703369140625
-0.2805066015625,0.0162481298828125,1.000728232421875
-0.337402421875,-0.03840701416015625,1.0103131298828125
-0.257651015625,0.010856142578125,0.991880634765625
-0.32305689453124997,0.0221302978515625,0.9520664453125
-0.37411724609375,-0.00409436767578125,0.98843990234375
-0.24573693359375,0.08756941650390625,0.97467697265625
-0.341292734375,0.00472888427734375,0.9881941357421875
-0.34810078125,0.03266918212890625,1.050864619140625
-0.35126166015625,0.0407571630859375,1.02186416015625
-0.32013916015625,-0.028113220214843748,0.978117705078125
-0.2931501171875,0.03217900146484375,0.9026673583984375
-0.27734572265625,-0.05164189208984375,0.8746499658203125
-0.34007701171875,-0.0567887890625,0.9203625537109374
-0.2999581640625,0.01600303955078125,0.9756600390625
-0.299471875,-0.02027032958984375,0.9218371533203125
-0.29776986328125,-0.00948635498046875,0.9085657568359375
-0.34785763671875003,0.00325834228515625,0.9547698779296875
-0.3077387890625,-0.01144707763671875,0.9857364697265625
-0.29363640625,-0.0053198193359375,0.97664310546875
-0.3116291015625,0.01306195556640625,0.9503460791015625
-0.347128203125,0.0201695751953125,0.9926179345703126
-0.255705859375,-0.0018885546875000003,0.9614055761718749
-0.32694720703125,0.04933532470703125,0.974185439453125
-0.27005138671875,-0.0425735498046875,0.9972875
-0.312115390625,0.012816865234374999,1.014491162109375
-0.32281375,-0.046004814453125,0.929947451171875
-0.30020130859375,-0.05262225341796875,0.871946533203125
-0.31916658203125,0.05374695068359375,0.912252255859375
-0.29728357421875,-0.01144707763671875,0.9614055761718749
-0.29874244140625,0.0329142724609375,0.995812900390625
-0.31819400390625,0.01404231689453125,0.9813126708984374
-0.31576255859375,0.0270321044921875,1.0216183935546874
-0.32986494140625,-0.0055649096679687505,0.986965302734375
-0.2882872265625,0.009140510253906251,0.9936010009765625
-0.3281629296875,-0.0055649096679687505,0.9646005419921875
-0.3291355078125,-0.0425735498046875,0.9768888720703125
-0.298499296875,-0.0018885546875000003,0.938303515625
-0.29922873046875,-0.05874951171875,0.92159138671875
-0.2843969140625,-0.02149578125,1.016948828125
-0.265431640625,0.02752228515625,1.021372626953125
-0.3057936328125,-0.011201987304687501,0.9931094677734374
-0.34007701171875,-0.06683749267578125,0.9798380712890625
-0.27296912109375,0.014777587890624999,0.96484630859375
-0.29436583984375,0.0142874072265625,0.9179048876953125
-0.31333111328125,-0.0016434643554687498,0.967303974609375
-0.2882872265625,0.02286556884765625,0.9842618701171875
-0.3359435546875,0.04541387939453125,0.9955671337890625
-0.24865466796875,0.0012976196289062499,0.999745166015625
-0.300444453125,-0.01144707763671875,0.994829833984375
-0.30263275390625,-0.00360418701171875,1.0358728564453126
-0.33983386718749997,-0.00605509033203125,0.9985163330078125
-0.347128203125,0.01159141357421875,0.9591936767578125
-0.28755779296875,0.03928662109375,0.996795966796875
-0.3592854296875,-0.0200252392578125,0.971236240234375
-0.27053767578125,0.02727719482421875,1.028254091796875
-0.249870390625,0.0329142724609375,0.9520664453125
-0.3476144921875,-0.00654527099609375,0.98450763671875
-0.29436583984375,0.01698340087890625,1.0417712548828124
-0.3787369921875,0.02360083984375,0.9862280029296875
-0.339347578125,-0.038161923828125,0.969270107421875
-0.302389609375,-0.008996174316406251,0.9513291455078126
-0.33132380859375,-0.008996174316406251,0.9444476806640625
-0.2931501171875,-0.042328459472656246,0.9414984814453125
-0.3033621875,0.0044837939453125,0.9439561474609375
-0.24525064453125,0.05815857666015625,1.0189149609375
-0.35588140625,-0.026397587890625,0.9604225097656249
-0.237226875,0.02678701416015625,0.9773804052734375
-0.28634207031250003,0.0373258984375,0.95894791015625
-0.33083751953125,-0.00777072265625,0.96877857421875
-0.2814791796875,0.06624655761718751,0.9960586669921875
-0.35320681640625,0.03659062744140625,0.965829375
-0.29387955078125,-0.0190448779296875,0.984999169921875
-0.30117388671875,0.089285048828125,1.0147369287109376
-0.26056875,-0.0016434643554687498,1.008592763671875
-0.31576255859375,0.0201695751953125,0.9272440185546875
-0.29169125,0.08242251953125,0.92945591796875
-0.304334765625,0.02433611083984375,0.91176072265625
-0.29436583984375,0.062080021972656246,0.9523122119140625
-0.27783201171875,0.04884514404296875,1.002694365234375
-0.27296912109375,0.06624655761718751,1.0009739990234374
-0.34032015625,0.097127939453125,1.023338759765625
-0.25983931640625,0.02776737548828125,1.0206353271484374
-0.3155194140625,0.0319339111328125,0.9729566064453125
-0.30530734375,0.00178780029296875,0.9704989404296875
-0.31868029296875,0.02335574951171875,0.9414984814453125
-0.28196546875,0.00619942626953125,0.8849721630859375
-0.3252451953125,0.03315936279296875,0.8957858935546875
-0.2912049609375,0.0319339111328125,0.8928366943359375
-0.26056875,0.0142874072265625,0.9407611816406249
-0.29290697265625,0.00570924560546875,0.9700074072265625
-0.25983931640625,0.02580665283203125,1.0167030615234376
-0.25594900390624997,0.05815857666015625,0.9913891015625
-0.3077387890625,0.046149150390625,0.9501003125
-0.23917203125,0.059874208984374996,0.95796484375
-0.30992708984375,0.0819323388671875,0.925032119140625
-0.32208431640625,0.048109873046875,0.9365831494140625
-0.2824517578125,0.069677822265625,1.0108046630859375
-0.30068759765624997,0.04124734375,0.986965302734375
-0.3164919921875,0.04345315673828125,0.958456376953125
-0.26324333984375,0.0476196923828125,0.950591845703125
-0.325731484375,0.056933125,0.915201455078125
-0.2878009375,0.0691876416015625,0.9759058056640625
-0.346155625,0.04639424072265625,0.9559987109375
-0.356853984375,0.02139502685546875,0.9700074072265625
-0.3155194140625,0.10815700439453126,0.9768888720703125
-0.29047552734375,0.0897752294921875,0.9881941357421875
-0.29047552734375,0.04443351806640625,0.9877026025390625
-0.29874244140625,0.09982393310546875,1.0373474560546876
-0.286828359375,0.057913486328125,1.0004824658203124
-0.2668905078125,0.0799716162109375,0.955507177734375
-0.30141703125,0.06600146728515625,0.9284728515625
-0.31381740234375,0.01796376220703125,0.9562444775390625
-0.23819945312500002,0.02482629150390625,0.95796484375
-0.26810623046875,0.0358553564453125,0.9562444775390625
-0.346155625,0.0505607763671875,0.9601767431640625
-0.27540056640625,0.04124734375,0.9874568359375
-0.380195859375,0.05105095703125,0.95796484375
-0.277102578125,0.065756376953125,0.9650920751953125
-0.314060546875,0.08242251953125,0.912252255859375
-0.24962724609375,0.008405239257812499,0.87931953125
-0.290718671875,0.093206494140625,0.947642646484375
-0.30409162109375,0.05374695068359375,0.95108337890625
-0.304334765625,0.08315779052734375,0.9813126708984374
-0.23309341796875,0.07825598388671876,0.983033037109375
-0.3553951171875,-0.00458454833984375,0.9636174755859375
-0.2561921484375,0.01992448486328125,0.93928658203125
-0.2644590625,0.07335417724609375,0.9218371533203125
-0.28707150390625,0.055462583007812497,0.942727314453125
-0.26956509765625,0.0789912548828125,0.9719735400390626
-0.33375525390625,0.132420947265625,1.0191607275390624
-0.29971501953125,0.0966377587890625,1.0184234277343749
-0.30214646484375,0.0897752294921875,0.9827872705078124
-0.25011353515625,0.0750698095703125,1.005643564453125
-0.28318119140625,0.03855135009765625,0.98057537109375
-0.27272597656249997,0.08658905517578125,0.9842618701171875
-0.296554140625,0.04590406005859375,0.9134810888671875
-0.2367405859375,0.04296297607421875,0.89996392578125
-0.3262177734375,0.030708459472656248,0.956490244140625
-0.3135742578125,0.0436982470703125,0.9911433349609375
-0.2970404296875,0.095167216796875,0.9815584374999999
-0.302389609375,0.03462990478515625,0.920116787109375
-0.34688505859375,0.08609887451171874,0.9877026025390625
-0.29387955078125,0.028257556152343752,0.9370746826171875
-0.29776986328125,0.07776580322265625,0.911269189453125
-0.2406308984375,0.0897752294921875,0.901438525390625
-0.312115390625,0.0515411376953125,0.9198710205078124
-0.28512634765625,0.05105095703125,0.988931435546875
-0.3164919921875,0.0858537841796875,1.0226014599609374
-0.3476144921875,0.02972809814453125,0.9798380712890625
-0.23795630859375,0.0451687890625,0.9464138134765625
-0.31819400390625,0.077520712890625,0.93928658203125
-0.3427516015625,0.01894412353515625,0.9407611816406249
-0.30530734375,0.06673673828125,0.9788550048828125
-0.3602580078125,0.09051050048828126,0.993355234375
-0.253760703125,0.03021827880859375,0.9901602685546875
-0.3164919921875,0.08462833251953125,0.96681244140625
-0.30700935546875,0.061834931640625,0.953541044921875
-0.290718671875,0.02923791748046875,0.87931953125
-0.27685943359375,0.1079119140625,0.9149556884765625
-0.30530734375,0.0505607763671875,0.8731753662109375
-0.24330548828125,0.03536517578125,0.89996392578125
-0.32937865234375,0.075559990234375,0.9356000830078125
-0.35101851562499997,0.08119706787109375,0.9896687353515625
-0.26372962890625,0.02727719482421875,0.99040603515625
-0.3709563671875,0.04786478271484375,0.9655836083984375
-0.28366748046875,0.093206494140625,1.0486527197265625
-0.36220316406249997,0.0012976196289062499,0.91569298828125
-0.3116291015625,0.0633054736328125,0.8574463037109374
-0.2411171875,0.0809519775390625,0.8309035107421875
-0.3320532421875,0.0686974609375,0.852285205078125
-0.2367405859375,0.126538779296875,0.9621428759765625
-0.28123603515625,0.050070595703125,0.947642646484375
-0.38919220703125,0.03168882080078125,1.0196522607421874
-0.226528515625,-0.0013983740234375002,0.9798380712890625
-0.3388612890625,0.065756376953125,0.9835245703125
-0.3349709765625,0.02972809814453125,0.9842618701171875
-0.323786328125,0.055462583007812497,0.9518206787109375
-0.37581925781250003,0.04443351806640625,0.9090572900390625
-0.252788125,0.04443351806640625,0.9631259423828125
-0.29193439453125003,0.09051050048828126,0.9709904736328125
-0.29509527343749997,0.03462990478515625,0.9798380712890625
-0.23357970703125,0.04712951171875,0.9599309765625
-0.26081189453125,0.06992291259765625,0.9405154150390624
-0.34980279296875,-0.022476142578125,0.929947451171875
-0.2114535546875,0.030463369140625002,0.971236240234375
-0.28269490234375,0.02678701416015625,0.9282270849609375
-0.35174794921875,0.057913486328125,0.9599309765625
-0.3660934765625,0.04002189208984375,1.0127707958984375
-0.349073359375,0.12629368896484375,1.0083469970703125
-0.302389609375,0.06306038330078124,0.983033037109375
-0.3660934765625,0.038306259765625,0.9655836083984375
-0.23917203125,0.03904153076171875,0.9164302880859375
-0.2843969140625,0.06355056396484375,0.8530225048828125
-0.2795340234375,0.03021827880859375,0.92159138671875
-0.325731484375,0.03928662109375,0.964354775390625
-0.28585578125,0.04737460205078125,0.9719735400390626
-0.3223274609375,0.0030132519531249997,1.0024485986328124
-0.26372962890625,0.06404074462890624,0.9729566064453125
-0.29436583984375,0.01012087158203125,0.990897568359375
-0.3446967578125,0.06649164794921875,0.94125271484375
-0.356853984375,0.09051050048828126,0.94911724609375
-0.3213548828125,0.0623251123046875,1.0049062646484375
-0.31478998046875,0.05668803466796875,0.9739396728515625
-0.24695265625,0.05815857666015625,0.950591845703125
-0.33618669921875,0.08805959716796875,0.9242948193359375
-0.21364185546875,0.07261890625,0.9695158740234375
-0.347128203125,0.0378160791015625,0.958456376953125
-0.2503566796875,0.0182088525390625,0.96484630859375
-0.34396732421875,-0.0006631030273437505,0.9046334912109375
-0.2970404296875,0.0495804150390625,0.9749227392578125
-0.26640421875,0.03315936279296875,0.9306847509765624
-0.34834392578125,0.079481435546875,0.9638632421875
-0.32013916015625,0.08756941650390625,1.042017021484375
-0.37557611328125,0.09541230712890625,1.015474228515625
-0.28585578125,0.0593840283203125,0.9262609521484375
-0.33472783203125,0.0294830078125,0.84786140625
-0.27345541015625,0.08756941650390625,0.8930824609375
-0.30603677734375,0.01306195556640625,0.89406552734375
-0.37557611328125,0.07384435791015626,1.0039231982421875
-0.30846822265625,0.075559990234375,1.000728232421875
-0.3271903515625,0.0530116796875,0.9233117529296875
-0.26761994140625,0.03757098876953125,0.9252778857421875
-0.34153587890625,0.02972809814453125,0.9400238818359374
-0.30117388671875,0.06306038330078124,0.8987350927734374
-0.31697828125,0.022620478515625,0.916184521484375
-0.2902323828125,0.07850107421875,0.970253173828125
-0.4225030078125,0.05717821533203125,1.0240760595703124
-0.31746457031249997,0.09639266845703125,1.0975602734375
-0.3096839453125,0.0976181201171875,1.0196522607421874
-0.28585578125,-0.05458297607421875,0.9473968798828125
-0.2488978125,0.04198261474609375,0.9604225097656249
-0.26859251953125,-0.027868129882812502,0.9075826904296875
-0.32402947265625,-0.022476142578125,0.9242948193359375
-0.3301080859375,0.0623251123046875,0.9931094677734374
-0.317950859375,0.00987578125,0.96877857421875
-0.3135742578125,0.0201695751953125,0.9203625537109374
-0.31187224609374997,0.1231075146484375,1.009575830078125
-0.3694975,0.0574233056640625,1.0009739990234374
-0.28074974609375003,-0.01561361328125,0.9818042041015624
-0.41593810546875,0.0064445166015625,0.949608779296875
-0.300444453125,0.03144373046875,0.9916348681640625
-0.32840607421875,0.0182088525390625,0.8476156396484374
-0.2882872265625,0.0162481298828125,0.841471474609375
-0.34445361328125,0.0221302978515625,0.866048134765625
-0.27199654296875,0.069677822265625,0.9768888720703125
-0.28196546875,0.0030132519531249997,1.016948828125
-0.434660234375,0.00276816162109375,1.0029401318359374
-0.17473873046875,0.04296297607421875,1.0098215966796875
-0.35320681640625,0.01992448486328125,0.951574912109375
-0.32402947265625,0.06845237060546874,1.0152284619140626
-0.30846822265625,0.0417375244140625,1.0535680517578125
-0.39940427734375,0.06257020263671875,1.0226014599609374
-0.33132380859375,-0.013407800292968751,0.94223578125
-0.2878009375,0.1211467919921875,0.969761640625
-0.24525064453125,-0.004829638671875,0.909303056640625
-0.34785763671875003,0.0152677685546875,1.0206353271484374
-0.2800203125,-0.05801424072265625,0.9992536328125
-0.32305689453124997,-0.059729873046875,0.949608779296875
-0.1968648828125,7.216796875000007e-05,0.99237216796875
-0.40134943359374997,-0.00703545166015625,1.0385762890625
-0.354908828125,-0.05213207275390625,1.002694365234375
-0.27272597656249997,0.021885207519531248,0.888658662109375
-0.3344846875,0.021640117187500002,0.8849721630859375
-0.273212265625,-0.05164189208984375,0.9272440185546875
-0.30944080078125,-0.0411030078125,0.994829833984375
-0.382141015625,0.06355056396484375,1.0049062646484375
-0.347128203125,0.03855135009765625,0.9129895556640625
-0.2688356640625,0.02237538818359375,0.8923451611328125
-0.259596171875,-0.077376376953125,0.927981318359375
-0.3242726171875,0.0652661962890625,1.0589749169921876
-0.3242726171875,-0.06928839599609375,0.950591845703125
-0.2581373046875,0.0294830078125,0.9636174755859375
-0.34931650390625,-0.011201987304687501,0.9365831494140625
-0.27053767578125,-0.08619962890625,0.9301932177734376
-0.31722142578125,0.02678701416015625,0.9891772021484375
-0.31381740234375,0.00987578125,1.0108046630859375
-0.271267109375,0.0231106591796875,0.952557978515625
-0.3826273046875,0.0495804150390625,0.9773804052734375
-0.24476435546875,-0.03693647216796875,0.97271083984375
-0.3028758984375,0.0348749951171875,0.9007012255859375
-0.22190876953125,-0.00262382568359375,0.9316678173828125
-0.32475890625,0.011346323242187501,1.015474228515625
-0.35126166015625,-0.04428918212890625,1.067576748046875
-0.3505322265625,0.00963069091796875,1.0597122167968749
-0.38505875,-0.0347306591796875,1.0309575244140625
-0.25935302734375,-0.01928996826171875,0.95108337890625
-0.206104375,0.0103659619140625,0.911269189453125
-0.37508982421875,-0.028358310546875,0.9402696484374999
-0.26227076171875,0.0025230712890624996,1.0122792626953125
-0.37119951171875,-0.051886982421875,0.929947451171875
-0.2600824609375,0.02237538818359375,0.9646005419921875
-0.269321953125,-0.01487834228515625,0.930930517578125
-0.39259623046875003,-0.0455146337890625,0.922082919921875
-0.33375525390625,-0.03595611083984375,0.975168505859375
-0.3067662109375,0.0280124658203125,0.983033037109375
-0.38919220703125,0.0025230712890624996,0.9223286865234375
-0.2367405859375,-0.0906112548828125,0.9149556884765625
-0.38505875,0.02482629150390625,0.9503460791015625
-0.3578265625,0.0427178857421875,0.945676513671875
-0.29169125,0.024091020507812498,0.832623876953125
-0.14799283203125,-0.0411030078125,0.8795652978515625
-0.40815748046875,0.0476196923828125,1.027271025390625
-0.2513292578125,-0.0857094482421875,1.02088109375
-0.3578265625,-0.024436865234375,1.0299744580078125
-0.31284482421875,0.03928662109375,0.9835245703125
-0.28707150390625,-0.0038492773437499997,0.868997333984375
-0.29485212890625,-0.06438658935546875,0.9105318896484375
-0.27880458984375,0.02482629150390625,0.8903790283203125
-0.360744296875,-0.035711020507812496,0.8721922998046875
-0.35126166015625,-0.044044091796875,0.8667854345703125
-0.2299325390625,0.0221302978515625,0.8535140380859375
-0.29339326171875,-0.029338671875,0.8377849755859375
-0.282938046875,-0.02027032958984375,0.9228202197265625
-0.34348103515625,-0.0317895751953125,0.902421591796875
-0.25886673828125,0.04712951171875,0.9134810888671875
-0.29436583984375,0.024091020507812498,0.859166669921875
-0.3641483203125,0.05374695068359375,0.9857364697265625
-0.35952857421875,-0.0082609033203125,1.04545775390625
-0.32864921874999997,0.030708459472656248,1.0560257177734376
-0.29533841796875,0.06698182861328125,1.0157199951171876
-0.39818855468750003,-0.03546593017578125,0.9363373828125
-0.34421046875,0.06011929931640625,0.9953213671875
-0.26518849609375,0.0373258984375,0.9326508837890625
-0.24938410156250002,0.05374695068359375,0.9429730810546875
-0.32694720703125,0.01796376220703125,0.9218371533203125
-0.33132380859375,-0.0876701708984375,0.9002096923828125
-0.224583359375,0.03266918212890625,0.987948369140625
-0.3388612890625,-0.098944326171875,0.9795923046875
-0.28172232421875,-0.1033559521484375,1.0130165625
-0.2231244921875,0.03953171142578125,1.0501273193359375
-0.40645546875,-0.06879821533203125,0.972219306640625
-0.32208431640625,-0.030319033203124998,0.9459222802734375
-0.22361078125,-0.046249904785156254,0.8648193017578125
-0.3446967578125,-0.02860340087890625,0.94715111328125
-0.29144810546875,0.0020328906249999995,1.0535680517578125
-0.32791978515625,-0.03987755615234375,0.984999169921875
-0.26956509765625,0.07065818359375,0.9245405859375
-0.28974609375,0.02360083984375,0.92945591796875
-0.28707150390625,0.02433611083984375,1.0230929931640624
-0.2795340234375,0.07972652587890625,1.0186691943359376
-0.349073359375,0.1035002880859375,1.0806023779296874
-0.341292734375,-0.04330882080078125,1.03562708984375
-0.354908828125,-0.0690433056640625,0.93437125
-0.3155194140625,-0.09330724853515625,0.8117337158203125
-0.2450075,-0.1509034765625,0.7881401220703125
-0.30652306640625,-0.13840386962890625,0.694994580078125
-0.24306234375,-0.15114856689453124,0.6335529296875
-0.21461443359375,-0.11879664306640625,0.6824604833984375
-0.32208431640625,-0.0092412646484375,0.6888504150390625
-0.1268392578125,0.06158984130859375,0.78002982421875
-0.16914640625,0.07261890625,0.946659580078125
-0.3077387890625,0.046149150390625,1.198324580078125
-0.4730770703125,0.09810830078125,1.2860632568359376
-0.3641483203125,0.134381669921875,1.2275708056640624
-0.4332013671875,0.1407540185546875,1.1336879638671875
-0.37995271484375,0.07923634521484375,1.0343982568359376
-0.197351171875,-0.05556333740234375,0.8952943603515625
-0.2698082421875,0.01796376220703125,0.730384970703125
-0.18154677734375,0.01698340087890625,0.6647652880859375
-0.1404553515625,0.0191892138671875,0.8230389794921875
-0.36098744140625,0.15300853515625001,1.093136474609375
-0.41034578125,0.0829127001953125,1.3506998730468749
-0.377278125,0.0731090869140625,1.46227791015625
-0.360744296875,0.190262265625,1.2821309912109375
-0.331566953125,0.01012087158203125,1.0904330419921875
-0.37508982421875,0.017718671875,1.185544716796875
-0.47404964843749997,-0.02272123291015625,1.1449932275390624
-0.3262177734375,-0.08497417724609375,1.0346440234375
-0.28585578125,-0.03595611083984375,0.8215643798828125
-0.22093619140625,-0.06144550537109375,0.7117067089843749
-0.2260422265625,-0.07958218994140626,0.8515479052734375
-0.4526529296875,-0.0018885546875000003,0.9660751416015625
-0.282938046875,-0.1121792041015625,1.044966220703125
-0.33667298828125003,0.0005623486328125002,1.14671359375
-0.4589746875,-0.16291290283203125,1.0624156494140624
-0.26664736328125,-0.07713128662109375,1.0432458544921874
-0.29533841796875,-0.11830646240234374,0.9159387548828125
-0.44900576171875,-0.0170841552734375,0.900455458984375
-0.2639727734375,-0.04919098876953125,0.8579378369140624
-0.3145468359375,-0.011201987304687501,0.8510563720703125
-0.33253953125,0.1172253466796875,0.985982236328125
-0.31333111328125,0.04541387939453125,1.104933271484375
-0.25011353515625,0.1392834765625,1.2973685205078125
-0.34007701171875,0.1471263671875,1.3099026171875
-0.31697828125,0.02360083984375,1.231748837890625
-0.316005703125,-0.08301345458984374,1.1911973486328125
-0.4847480078125,-0.03301502685546875,1.182595517578125
-0.39940427734375,-0.0739451123046875,1.027271025390625
-0.362689453125,0.00668960693359375,0.8540055712890625
-0.30311904296875003,-0.0543378857421875,0.7279273046875
-0.30068759765624997,-0.079337099609375,0.7886316552734375
-0.34202216796875,-0.0043394580078125,0.907336923828125
-0.27272597656249997,-0.00703545166015625,0.9567360107421875
-0.26713365234374997,0.0927163134765625,1.0108046630859375
-0.2552195703125,-0.011201987304687501,0.975168505859375
-0.25886673828125,0.04345315673828125,0.9970417333984375
-0.2795340234375,-0.055808427734375,1.077407412109375
-0.40815748046875,-0.06683749267578125,1.2025026123046876
-0.389921640625,-0.13007079833984375,1.15752732421875
-0.4030514453125,-0.10409122314453124,0.9714820068359376
-0.27418484375,-0.06267095703125,0.821810146484375
-0.21193984375,-0.00213364501953125,0.7328426367187499
-0.32840607421875,0.01208159423828125,0.86850580078125
-0.3028758984375,0.06600146728515625,1.0914161083984375
-0.333512109375,0.03953171142578125,1.193409248046875
-0.30895451171875,0.0809519775390625,1.2300284716796874
-0.28950294921874997,0.04590406005859375,1.1641630224609374
-0.294608984375,-0.0053198193359375,1.022355693359375
-0.237226875,0.0162481298828125,1.00023669921875
-0.36001486328125,0.04982550537109375,0.986965302734375
-0.27734572265625,-0.01732924560546875,0.9881941357421875
-0.38773333984375,0.008895419921875,1.03169482421875
-0.3515048046875,0.03928662109375,1.0869923095703125
-0.31308796875,-0.0072805419921875,1.032186357421875
-0.29387955078125,0.00423870361328125,1.0766701123046876
-0.30627992187499997,0.02531647216796875,1.0923991748046875
-0.30409162109375,-0.0366913818359375,1.072000546875
-0.34032015625,0.0003172583007812497,1.02776255859375
-0.28269490234375,-0.03889719482421875,0.955507177734375
-0.30409162109375,-0.00654527099609375,0.92748978515625
-0.26567478515625,-0.0053198193359375,0.92552365234375
-0.28366748046875,-0.022476142578125,0.9085657568359375
-0.2873146484375,-0.0219859619140625,0.8889044287109376
-0.33813185546875,-0.046004814453125,0.90389619140625
-0.349073359375,0.02776737548828125,0.8815314306640625
-0.29825615234375,-0.01585870361328125,0.829674677734375
-0.26810623046875,0.0878145068359375,0.839996875
-0.34931650390625,0.04712951171875,0.8372934423828124
-0.29825615234375,0.0515411376953125,0.9233117529296875
-0.32475890625,0.09492212646484376,0.934862783203125
-0.3203823046875,0.0858537841796875,0.9488714794921875
-0.31284482421875,0.0348749951171875,0.9857364697265625
-0.3067662109375,0.07457962890625,1.0049062646484375
-0.31697828125,0.032424091796875,0.9896687353515625
-0.3330258203125,0.07433453857421875,0.981066904296875
-0.29193439453125003,0.04051207275390625,0.9449392138671875
-0.2834243359375,0.0231106591796875,0.92748978515625
-0.30749564453125,0.05227640869140625,0.9559987109375
-0.240144609375,-0.0004180126953125,0.9847534033203125
-0.36220316406249997,0.01012087158203125,0.9960586669921875
-0.30360533203125,0.0015427099609375003,1.0196522607421874
-0.36050115234375,-0.0376717431640625,0.93338818359375
-0.26421591796875,-0.00262382568359375,0.9139726220703125
-0.3057936328125,-0.051886982421875,0.906353857421875
-0.31868029296875,-0.023456503906250002,0.9614055761718749
-0.279047734375,0.01600303955078125,0.9690243408203125
-0.2970404296875,-0.03644629150390625,0.933879716796875
-0.31965287109375,-0.03129939453125,0.90782845703125
-0.31819400390625,-0.02321141357421875,0.8368019091796874
-0.27102396484375,0.03144373046875,0.88423486328125
-0.3500459375,0.05227640869140625,0.8761245654296875
-0.3583128515625,0.00178780029296875,0.8864467626953125
-0.279047734375,0.099088662109375,0.9397781152343749
-0.3019033203125,0.0486000537109375,0.9041419580078125
-0.28901666015625,-0.02272123291015625,0.9400238818359374
-0.3466419140625,-0.0347306591796875,0.920116787109375
-0.25983931640625,-0.01193725830078125,0.8812856640625
-0.29387955078125,0.05423713134765625,0.8267254785156251
-0.26810623046875,0.02335574951171875,0.831640810546875
-0.27929087890625,0.05374695068359375,0.9402696484374999
-0.366579765625,0.065756376953125,1.01006736328125
-0.2698082421875,0.04051207275390625,0.953541044921875
-0.18689595703125,0.02531647216796875,0.8549886376953125
-0.247925234375,0.021640117187500002,0.843437607421875
-0.2163164453125,-0.0371815625,0.9021758251953125
-0.2756437109375,0.0299731884765625,0.96484630859375
-0.32402947265625,-0.020515419921875,0.9134810888671875
-0.28853037109375,-0.01978014892578125,0.8623616357421875
-0.222638203125,0.021885207519531248,0.820335546875
-0.27929087890625,-0.09722869384765626,0.959439443359375
-0.27345541015625,0.0030132519531249997,1.2285538720703124
-0.44803318359375,0.04149243408203125,1.1671122216796874
-0.38481560546875,0.0789912548828125,1.070525947265625
-0.2970404296875,0.0270321044921875,1.0171945947265626
-0.4156949609375,0.02041466552734375,0.965337841796875
-0.226528515625,0.063795654296875,0.965337841796875
-0.25692158203125,-0.075415654296875,0.771673759765625
-0.2104809765625,0.022620478515625,0.6967149462890625
-0.14750654296875,-0.0739451123046875,0.7318595703125
-0.282938046875,-0.05482806640625,0.9788550048828125
-0.44268400390625,0.06158984130859375,1.1381117626953126
-0.4584883984375,0.042227705078125,1.1997991796875
-0.38967849609375,0.04296297607421875,1.1926719482421875
-0.3816547265625,0.0858537841796875,1.066593681640625
-0.33424154296874997,-0.0259074072265625,0.95796484375
-0.24525064453125,-0.024436865234375,0.943710380859375
-0.2659179296875,-0.00360418701171875,0.8707177001953125
-0.29290697265625,-0.10654212646484375,0.812962548828125
-0.2532744140625,-0.1053166748046875,0.76036849609375
-0.30627992187499997,-0.0332601171875,0.73087650390625
-0.1842213671875,0.0348749951171875,0.734317236328125
-0.2902323828125,0.00987578125,0.812471015625
-0.33424154296874997,-0.0013983740234375002,0.92748978515625
-0.37144265625,0.0378160791015625,0.933879716796875
-0.3719289453125,0.095167216796875,0.8864467626953125
-0.37508982421875,0.065756376953125,0.8038691845703125
-0.29485212890625,0.0843832421875,0.766758427734375
-0.3135742578125,0.0358553564453125,0.8702261669921875
-0.32597462890625,-0.01046671630859375,0.9223286865234375
-0.27199654296875,0.02923791748046875,0.9390408154296875
-0.22725794921875,0.00987578125,0.9837703369140625
-0.1453182421875,-0.05458297607421875,1.1843158837890626
-0.33108066406250003,0.0613447509765625,1.421480654296875
-0.57544091796875,0.099088662109375,1.3455387744140626
-0.29874244140625,-0.05899460205078125,1.1120605029296875
-0.21461443359375,0.02580665283203125,0.9424815478515625
-0.32354318359375,0.040266982421875,0.785436689453125
-0.349073359375,-0.0332601171875,0.871455
-0.29971501953125,0.00178780029296875,0.8812856640625
-0.36341888671875,-0.01781942626953125,0.7247323388671875
-0.252788125,-0.08595453857421875,0.72891037109375
-0.257651015625,-0.073454931640625,0.8726838330078125
-0.386031328125,0.0682072802734375,1.031203291015625
-0.35977171875,-0.034240478515625,1.098051806640625
-0.199296328125,0.0280124658203125,1.1388490625
-0.28464005859375,0.06845237060546874,1.14376439453125
-0.33229638671875,0.1044806494140625,1.2177401416015625
-0.378250703125,0.130460224609375,1.1125520361328125
-0.40134943359374997,0.0897752294921875,0.9646005419921875
-0.315033125,0.0319339111328125,0.83311541015625
-0.16306779296875,0.0378160791015625,0.7163762744140625
-0.27588685546875,-0.042328459472656246,0.755944697265625
-0.25400384765625,-0.0161037939453125,0.9523122119140625
-0.32840607421875,0.14295983154296876,1.1808751513671876
-0.514411640625,0.0613447509765625,1.33054701171875
-0.4750222265625,0.10080429443359375,1.3062161181640626
-0.3719289453125,0.01698340087890625,1.133442197265625
-0.32694720703125,-0.0778665576171875,1.05233921875
-0.23455228515625,-0.048945898437499996,1.058729150390625
-0.25449013671875,-0.09477779052734375,0.9297016845703125
-0.1978374609375,-0.0317895751953125,0.8495817724609375
-0.1783858984375,-0.02762303955078125,0.922574453125
-0.3038484765625,0.00325834228515625,1.1061621044921874
-0.36779548828124997,0.09688284912109375,1.251410166015625
-0.366579765625,0.03928662109375,1.2826225244140625
-0.46116298828125,0.0037485229492187503,1.2472321337890624
-0.31746457031249997,0.01551285888671875,1.0152284619140626
-0.31308796875,-0.05899460205078125,0.7945300537109374
-0.26056875,-0.07320984130859375,0.7539785644531249
-0.31697828125,-0.0229663232421875,0.796741953125
-0.3738741015625,-0.0317895751953125,0.9469053466796875
-0.37581925781250003,0.06158984130859375,0.93928658203125
-0.2425760546875,0.02237538818359375,0.8884128955078126
-0.24962724609375,-0.0411030078125,0.8879213623046875
-0.214857578125,0.00570924560546875,0.9488714794921875
-0.16938955078125,-0.012672529296875,0.9513291455078126
-0.22701480468750002,0.1613416064453125,1.0230929931640624
-0.33326896484375,0.09051050048828126,1.0766701123046876
-0.316005703125,0.00717978759765625,1.2216724072265626
-0.54772244140625,0.0760501708984375,1.31285181640625
-0.47283392578125,0.04737460205078125,1.20078224609375
-0.377278125,0.034384814453125,1.02383029296875
-0.34737134765625,0.042227705078125,0.824759345703125
-0.2396583203125,-0.0749254736328125,0.796741953125
-0.115654609375,-0.22712656982421875,0.88620099609375
-0.25692158203125,-0.077376376953125,0.9862280029296875
-0.25473328125,-0.05409279541015625,0.98647376953125
-0.279047734375,0.02482629150390625,0.94715111328125
-0.15285572265625,-0.047965537109375,0.7955131201171874
-0.0480604296875,-0.00507472900390625,0.9026673583984375
-0.3865176171875,0.0721287255859375,1.159984990234375
-0.48304599609375,-0.12467881103515625,1.20471451171875
-0.36463460937500003,0.07727562255859374,1.1577730908203125
-0.4356328125,0.08903995849609375,1.0619241162109374
-0.3592854296875,0.0280124658203125,1.0555341845703126
-0.2756437109375,0.0907555908203125,1.046932353515625
-0.37533296875,0.11599989501953126,0.9901602685546875
-0.28634207031250003,0.0358553564453125,0.8353273095703125
-0.12173322265625,-0.052867343750000004,0.7389868017578125
-0.1696326953125,-0.0180645166015625,0.727435771484375
-0.1866528125,-0.052867343750000004,0.7915808544921875
-0.30846822265625,0.010856142578125,0.945676513671875
-0.37922328125,-0.00213364501953125,1.002694365234375
-0.36098744140625,-0.06389640869140625,0.9739396728515625
-0.40523974609375,-0.046740085449218746,0.8893959619140624
-0.3369161328125,0.1172253466796875,0.723503505859375
-0.25351755859375,0.02776737548828125,0.5173053271484375
-0.13000013671875,-0.0621807763671875,0.5615433154296875
-0.1141957421875,0.00521906494140625,0.768724560546875
-0.40329458984375,0.03659062744140625,1.0358728564453126
-0.2736985546875,-0.026397587890625,1.27549529296875
-0.30749564453125,-0.00997653564453125,1.2727918603515624
-0.234309140625,-0.00948635498046875,1.1661291552734374
-0.26421591796875,0.0010525292968750002,1.14376439453125
-0.3816547265625,-0.07222947998046875,1.032186357421875
-0.267376796875,-0.076396015625,0.83213234375
-0.17036212890625,-0.08007237060546875,0.6156119677734375
-0.25011353515625,-0.06438658935546875,0.5118984619140625
-0.30895451171875,-0.02223105224609375,0.529839423828125
-0.32475890625,0.02482629150390625,0.71121517578125
-0.41156150390625,0.07874616455078125,0.8692431005859375
-0.42031470703125,0.14394019287109375,0.961897109375
-0.3797095703125,0.04541387939453125,0.9822957373046874
-0.18227621093750002,0.02237538818359375,0.945676513671875
-0.2124261328125,0.10031411376953125,1.04742388671875
-0.3106565234375,0.013552136230468751,1.079373544921875
-0.284883203125,0.038306259765625,1.1956211474609375
-0.38432931640625,0.101049384765625,1.131476064453125
-0.36366203125,-0.014633251953124999,0.9886856689453125
-0.221665625,0.103010107421875,0.8368019091796874
-0.3378887109375,0.02727719482421875,0.6775451513671875
-0.28464005859375,0.07286399658203124,0.766758427734375
-0.386031328125,-0.0288484912109375,0.8805483642578125
-0.38287044921875,0.020659755859375,0.9670582080078125
-0.35466568359375,0.05864875732421875,0.999745166015625
-0.34591248046875,-0.07517056396484376,0.817877880859375
-0.282938046875,-0.030319033203124998,0.8191067138671875
-0.42590703125,-0.05115171142578125,0.7082659765625
-0.1365650390625,-0.06193568603515625,0.6392055615234375
-0.09352845703125,-0.0808076416015625,0.65616345703125
-0.26810623046875,-0.00777072265625,0.8773533984374999
-0.28853037109375,-0.0729647509765625,1.010558896484375
-0.2999581640625,0.02482629150390625,1.0909245751953125
-0.377278125,0.13560712158203125,1.176697119140625
-0.3096839453125,0.06404074462890624,1.22437583984375
-0.310170234375,0.07580508056640625,1.2388760693359375
-0.40815748046875,0.02433611083984375,1.2270792724609374
-0.36755234375,0.0231106591796875,1.0560257177734376
-0.35101851562499997,0.042227705078125,0.938795048828125
-0.316005703125,-0.00507472900390625,0.8662939013671875
-0.23941517578125,0.03536517578125,0.9655836083984375
-0.28391062499999997,0.1079119140625,1.0722463134765625
-0.2133987109375,-0.010711806640625,1.1091113037109375
-0.21850474609375,0.02752228515625,1.1459762939453124
-0.3544225390625,0.04541387939453125,1.1405694287109376
-0.28269490234375,0.0037485229492187503,1.1307387646484375
-0.30700935546875,0.03315936279296875,1.05332228515625
-0.34591248046875,0.0378160791015625,1.0275167919921875
-0.3651208984375,0.014777587890624999,1.0904330419921875
-0.33570041015625,-0.00850599365234375,1.0358728564453126
-0.3476144921875,-0.0210056005859375,0.930438984375
-0.221665625,-0.0004180126953125,0.9193794873046874
-0.3111428125,-0.0974737841796875,0.9228202197265625
-0.23941517578125,0.0329142724609375,1.0737209130859375
-0.3767918359375,-0.0006631030273437505,1.1140266357421875
-0.2347954296875,0.04002189208984375,1.0806023779296874
-0.31868029296875,0.014777587890624999,1.0228472265625
-0.2309051171875,0.011346323242187501,1.0422627880859374
-0.31746457031249997,0.03536517578125,1.035135556640625
-0.347128203125,-0.0411030078125,1.0314490576171875
-0.31041337890625,0.0319339111328125,0.9754142724609375
-0.26518849609375,0.021885207519531248,0.9611598095703124
-0.39575710937499997,-0.01683906494140625,0.935845849609375
-0.27880458984375,0.02580665283203125,0.9336339501953125
-0.34785763671875003,0.04590406005859375,0.9754142724609375
-0.25351755859375,-0.01634888427734375,1.073475146484375
-0.35272052734375,0.03953171142578125,1.0663479150390625
-0.25108611328125,-0.0337502978515625,0.9990078662109375
-0.2600824609375,0.0162481298828125,0.867031201171875
-0.17279357421875,0.0515411376953125,0.8707177001953125
-0.28609892578125,-0.016593974609375,0.9186421875
-0.38384302734375,-0.00311400634765625,1.0058893310546875
-0.31576255859375,0.1079119140625,1.0189149609375
-0.3019033203125,0.05570767333984375,0.889641728515625
-0.3563676953125,-0.0151234326171875,0.8574463037109374
-0.28998923828125,-0.04379900146484375,0.8613785693359375
-0.33083751953125,0.00987578125,0.9257694189453125
-0.30627992187499997,-0.015368522949218751,0.9532952783203125
-0.30992708984375,-0.013407800292968751,0.8989808593749999
-0.2707808203125,-0.0455146337890625,0.900455458984375
-0.35223423828125,-0.0121823486328125,0.9206083203125
-0.27394169921875,0.03144373046875,0.929947451171875
-0.29047552734375,-0.03546593017578125,0.907336923828125
-0.26056875,0.030463369140625002,0.9913891015625
-0.28585578125,0.0294830078125,0.9188879541015624
-0.22677166015625,-0.030073942871093752,0.9380577490234375
-0.3233000390625,-0.042083369140625,0.91765912109375
