ax,ay,az
-0.27005138671875,0.13315621826171875,0.92355751953125
-0.298499296875,-0.03522083984375,0.9424815478515625
-0.30311904296875003,0.07433453857421875,1.0697886474609375
-0.34785763671875003,0.0574233056640625,1.1022298388671874
-0.30627992187499997,-0.1180613720703125,1.001219765625
-0.32500205078125,-0.0504164404296875,1.0781447119140626
-0.3213548828125,0.0613447509765625,1.08871267578125
-0.19856689453125,-0.124433720703125,0.9621428759765625
-0.42955419921875,0.01992448486328125,0.9955671337890625
-0.2878009375,-0.05409279541015625,0.98254150390625
-0.14021220703125,-0.09673851318359375,1.0444746875
-0.43344451171875,0.0162481298828125,1.08478041015625
-0.11006228515625,-0.057769150390625,1.089204208984375
-0.2644590625,-0.0415931884765625,1.012525029296875
-0.3072525,0.021640117187500002,1.032677890625
-0.23260712890625002,-0.02909358154296875,1.0638902490234374
-0.3806821484375,0.091245771484375,1.043983154296875
-0.2396583203125,-0.0406128271484375,1.0068723974609375
-0.22628537109375,0.0829127001953125,1.0093300634765625
-0.337402421875,0.061834931640625,1.0226014599609374
-0.28074974609375003,-0.0592396923828125,0.9768888720703125
-0.12367837890625,0.0603643896484375,0.86653966796875
-0.317950859375,-0.020515419921875,0.8572005371093749
-0.18227621093750002,-0.05090662109375,0.9936010009765625
-0.25351755859375,0.033404453125,0.9582106103515625
-0.2279873828125,-0.01487834228515625,0.9994993994140625
-0.25789416015625,0.0270321044921875,0.96484630859375
-0.18227621093750002,0.0686974609375,0.993355234375
-0.28123603515625,0.0642858349609375,0.9685328076171875
-0.28950294921874997,0.02286556884765625,0.881777197265625
-0.059245078125,0.04688442138671875,0.9331424169921875
-0.26640421875,0.01894412353515625,1.0584833837890626
-0.2766162890625,0.07727562255859374,1.1946380810546875
-0.27053767578125,-0.00262382568359375,1.143272861328125
-0.26761994140625,0.0505607763671875,1.25681703125
-0.31041337890625,0.01575794921875,1.17325638671875
-0.31381740234375,-0.0881603515625,1.0240760595703124
-0.237226875,0.03021827880859375,1.00515203125
-0.17717017578125,-0.10016977783203125,0.9193794873046874
-0.20780638671875,-0.1053166748046875,0.8141913818359375
-0.2644590625,-0.07811164794921875,0.824759345703125
-0.18640966796875,-0.08105273193359375,0.8734211328125
-0.21461443359375,-0.03252484619140625,0.9596852099609375
-0.37460353515625,0.00399361328125,0.979100771484375
-0.26227076171875,-0.02419177490234375,0.9011927587890625
-0.1628246484375,-0.02076051025390625,0.7974792529296875
-0.18932740234375,0.0221302978515625,0.7119524755859374
-0.11103486328125,-0.012672529296875,0.70138451171875
-0.26640421875,-0.0190448779296875,0.842454541015625
-0.27102396484375,0.1515379931640625,1.0132623291015626
-0.22093619140625,0.05227640869140625,1.0633987158203124
-0.1453182421875,-0.03546593017578125,1.0597122167968749
-0.255705859375,-0.15408965087890625,0.94911724609375
-0.08744984375,-0.091101435546875,0.91569298828125
-0.26518849609375,-0.13889405029296875,0.7576650634765625
-0.32500205078125,-0.1504132958984375,0.65616345703125
-0.393811953125,-0.13203152099609375,0.6421547607421875
-0.34834392578125,0.07384435791015626,0.6829520166015625
-0.22044990234375,0.1927131689453125,0.695977646484375
-0.1569891796875,0.2368294287109375,0.8530225048828125
-0.1788721875,0.29834710205078124,1.055779951171875
-0.16793068359375,0.14124419921875,1.2147909423828125
-0.13948277343749999,0.10325519775390625,1.2108586767578124
-0.27807515625,0.0985984814453125,1.16342572265625
-0.45143720703125,0.10423555908203125,1.1007552392578126
-0.428824765625,0.01600303955078125,1.0796193115234376
-0.43684853515625,0.07580508056640625,1.08674654296875
-0.46359443359375,-0.00948635498046875,0.9405154150390624
-0.2970404296875,-0.02664267822265625,0.861132802734375
-0.19953947265625,0.0069346972656249995,0.8279543115234375
-0.1774133203125,-0.0661022216796875,0.7989538525390625
-0.15771861328125,0.05668803466796875,0.8717007666015625
-0.2095083984375,0.0544822216796875,0.8267254785156251
-0.164283515625,-0.02419177490234375,0.80362341796875
-0.1744955859375,-0.122472998046875,0.9700074072265625
-0.2027003515625,-0.09624833251953124,1.063644482421875
-0.11006228515625,-0.05262225341796875,1.14769666015625
-0.42979734375,-0.11144393310546875,1.1852989501953124
-0.494960078125,0.0191892138671875,1.158510390625
-0.44049570312499997,0.07580508056640625,1.140323662109375
-0.4672416015625,0.12972495361328126,1.1420440283203126
-0.4380642578125,0.212810576171875,1.109848603515625
-0.1949197265625,0.09100068115234375,1.033169423828125
-0.1443456640625,0.1731059423828125,0.99040603515625
-0.18251935546875,0.1593808837890625,0.9124980224609375
-0.12246265625,-0.0347306591796875,0.790352021484375
-0.23990146484375,-0.14109986328125,0.6922911474609375
-0.0286088671875,-0.10458140380859375,0.888658662109375
-0.2853694921875,-0.1778634130859375,1.1132893359375
-0.0927990234375,-0.26192939697265627,1.1211538671875
-0.070916015625,-0.03448556884765625,1.0904330419921875
-0.29922873046875,-0.02737794921875,1.17325638671875
-0.33108066406250003,0.02678701416015625,1.230765771484375
-0.391866796875,0.0672269189453125,1.4118957568359374
-0.45289607421875,-0.00311400634765625,1.53305869140625
-0.49617580078125,0.010856142578125,1.6244838671875
-0.40864376953125,0.02482629150390625,1.4536760791015624
-0.1647698046875,0.17727247802734375,1.0621698828125
-0.28074974609375003,0.18805645263671875,0.68172318359375
-0.16136578125,0.140263837890625,0.5541703173828125
-0.08137123046875,0.06943273193359376,0.5197629931640625
-0.1774133203125,-0.05482806640625,0.6414174609375
-0.214857578125,-0.0641414990234375,0.812471015625
-0.1783858984375,-0.13325697265625,1.0520934521484375
-0.22920310546875,-0.0023787353515625003,1.18505318359375
-0.31965287109375,-0.046004814453125,1.17817171875
-0.3427516015625,0.04394333740234375,1.1307387646484375
-0.38724705078125,0.19001717529296874,1.15752732421875
-0.40426716796875,0.1819291943359375,1.19488384765625
-0.31235853515625,0.1329111279296875,1.2629611962890626
-0.18349193359375,0.12531332763671876,1.2275708056640624
-0.11881548828124999,0.12555841796875,1.1685868212890624
-0.1628246484375,-0.016593974609375,1.029237158203125
-0.154557734375,-0.0055649096679687505,0.9346170166015625
-0.35126166015625,-0.020515419921875,0.8495817724609375
-0.26154132812499997,0.03561026611328125,0.8358188427734374
-0.30627992187499997,0.0417375244140625,0.7340714697265625
-0.24670951171875,0.01404231689453125,0.6259341650390625
-0.20099833984375,0.0740894482421875,0.58145041015625
-0.1141957421875,0.09786321044921875,0.618315400390625
-0.0694571484375,0.07065818359375,0.88816712890625
-0.31381740234375,0.1250682373046875,1.1848074169921876
-0.41885583984375,0.09590248779296875,1.3799460986328125
-0.30700935546875,-0.06879821533203125,1.2713172607421874
-0.0006472460937500014,-0.12075736572265625,1.1617053564453126
0.06208404296875,-0.03938737548828125,1.3951836279296874
-0.35077537109375,-0.09845414550781251,1.580737412109375
-0.49131291015625,0.15227326416015624,1.4802188720703124
-0.4049966015625,0.19736988525390625,1.230765771484375
-0.33910443359375,-0.00311400634765625,0.8825144970703125
-0.263486484375,-0.12418863037109375,0.878827998046875
-0.15674603515625,-0.15654055419921875,0.766758427734375
-0.1424005078125,0.04884514404296875,0.580958876953125
-0.1647698046875,0.0299731884765625,0.47552500488281246
-0.013290761718750002,-0.004829638671875,0.554416083984375
-0.14191421875,0.077520712890625,0.9874568359375
-0.38530189453125,0.057668395996093746,1.409683857421875
-0.5032269921875,0.04541387939453125,1.73360423828125
-0.42469130859375,0.14001874755859375,1.5564065185546876
-0.30117388671875,0.16354741943359374,1.107882470703125
-0.25157240234375,-0.03203466552734375,0.8102591162109375
-0.290718671875,0.09810830078125,0.8918536279296875
-0.265431640625,0.19638952392578124,1.0117877294921875
-0.35272052734375,0.0564429443359375,0.84491220703125
-0.1793584765625,0.12286242431640625,0.7355460693359375
-0.19273142578125,0.07139345458984375,0.6382224951171875
-0.1521262890625,0.08560869384765625,0.6455954931640625
-0.11735662109375,-0.0161037939453125,0.8004284521484375
-0.18106048828125,0.03610044677734375,1.087729609375
-0.34032015625,0.15325362548828125,1.1843158837890626
-0.51368220703125,0.14394019287109375,1.1838243505859376
-0.30263275390625,0.257907197265625,1.061678349609375
-0.3719289453125,0.18707609130859376,1.1250861328125
-0.31187224609374997,0.12531332763671876,1.1169758349609376
-0.22677166015625,-0.02615249755859375,0.9803296044921875
-0.10690140625,0.1133039013671875,0.835573076171875
-0.19637859375,0.00963069091796875,0.6731213525390625
-0.14604767578125,-0.00360418701171875,0.6967149462890625
-0.1978374609375,0.11550971435546875,0.72497810546875
-0.32281375,0.04884514404296875,0.820827080078125
-0.3680386328125,0.12237224365234375,0.912252255859375
-0.343237890625,0.0525214990234375,0.81738634765625
-0.25254498046875,0.07923634521484375,0.786419755859375
-0.23528171875,0.01257177490234375,0.8156659814453124
-0.25157240234375,0.0407571630859375,0.87047193359375
-0.2240970703125,0.0770305322265625,1.0275167919921875
-0.28853037109375,-0.0028689160156250004,1.0417712548828124
-0.28391062499999997,-0.0028689160156250004,1.0543053515625
-0.22628537109375,-0.010711806640625,0.946168046875
-0.20926525390625,-0.1523740185546875,0.907336923828125
-0.27515742187500003,-0.0759058349609375,0.89406552734375
-0.21072412109375,-0.02517213623046875,0.8648193017578125
-0.1949197265625,-0.083258544921875,0.8245135791015625
-0.3330258203125,0.04124734375,0.8402426416015625
-0.33108066406250003,0.15129290283203126,0.9803296044921875
-0.4511940625,0.1495772705078125,0.9206083203125
-0.2386857421875,0.09541230712890625,0.8879213623046875
-0.1346198828125,0.1392834765625,0.8741584326171875
-0.1949197265625,0.0883046875,0.828691611328125
-0.088422421875,0.16207687744140625,0.9454307470703125
-0.30895451171875,0.16109651611328124,1.05528841796875
-0.37995271484375,0.19099753662109376,1.208155244140625
-0.3942982421875,0.12163697265625,1.232731904296875
-0.31333111328125,0.0780108935546875,0.9808211376953125
-0.14215736328125,0.16305723876953124,0.81738634765625
-0.14969484375,0.0843832421875,0.7856824560546875
-0.23844259765625,0.03757098876953125,0.86850580078125
-0.2085358203125,0.21550656982421876,1.0471781201171875
-0.32281375,0.091245771484375,1.14376439453125
-0.40475345703125,0.018699033203125,1.2206893408203126
-0.21850474609375,0.16305723876953124,1.15162892578125
-0.23892888671875,0.05374695068359375,0.9599309765625
-0.29582470703125,0.1456558251953125,0.9385492822265625
-0.33108066406250003,-0.01095689697265625,0.9626344091796875
-0.370470078125,-0.006790361328125,0.918150654296875
-0.346155625,0.07874616455078125,0.9518206787109375
-0.26081189453125,-0.047965537109375,0.9670582080078125
-0.23917203125,0.05668803466796875,1.04349162109375
-0.29193439453125003,0.10962754638671875,0.9881941357421875
-0.23357970703125,0.015022678222656249,0.7733941259765625
-0.18981369140625,0.03144373046875,0.7507835986328125
-0.23406599609375,0.22482000244140626,0.8616243359375
-0.2454937890625,0.09149086181640625,0.9095488232421876
-0.25935302734375,-0.055073156738281254,1.00515203125
-0.25011353515625,-0.02125069091796875,1.0712632470703125
-0.20148462890625,-0.075415654296875,1.1130435693359375
-0.42469130859375,-0.01144707763671875,1.075441279296875
-0.12951384765625001,-0.0876701708984375,0.8952943603515625
-0.181789921875,-0.0043394580078125,0.840488408203125
-0.3320532421875,0.02433611083984375,1.0228472265625
-0.2036729296875,0.011346323242187501,1.0914161083984375
-0.28609892578125,-0.05556333740234375,0.958456376953125
-0.16258150390625,0.0976181201171875,0.8672769677734375
-0.168173828125,0.1152646240234375,0.6915538476562499
-0.08088494140625,0.16599832275390625,0.6696806201171875
-0.22579908203125,0.12286242431640625,0.80558955078125
-0.25011353515625,0.2338883447265625,0.946659580078125
-0.366579765625,0.18168410400390625,1.0896957421875
-0.2503566796875,0.18364482666015625,1.163917255859375
-0.2333365625,0.16697868408203126,1.158510390625
-0.22823052734375,0.28315150146484375,1.329072412109375
-0.43830740234375,0.1554594384765625,1.33644541015625
-0.43782111328125,0.15472416748046874,1.3312843115234374
-0.48426171875,0.26403445556640626,1.251410166015625
-0.41739697265625,-0.0298288525390625,0.9815584374999999
-0.22142248046875002,-0.06977857666015624,0.8117337158203125
-0.25157240234375,-0.0739451123046875,0.62470533203125
-0.1088465625,-0.06193568603515625,0.5981625390625
-0.2260422265625,-0.15605037353515624,0.69745224609375
-0.2955815625,0.014777587890624999,0.9139726220703125
-0.34834392578125,-0.029338671875,1.0963314404296876
-0.40645546875,-0.0396324658203125,1.126560732421875
-0.30798193359375,0.0289928271484375,0.9385492822265625
-0.20051205078125,-0.096983603515625,0.823776279296875
-0.3048210546875,-0.06732767333984375,1.0034316650390624
-0.417153828125,0.03659062744140625,1.2285538720703124
-0.36244630859375,-0.06536695068359374,1.217494375
-0.38700390625000003,0.08266760986328126,0.9803296044921875
-0.2435486328125,0.011346323242187501,0.7488174658203125
-0.25059982421875,-0.089140712890625,0.714655908203125
-0.20537494140625,-0.0582593310546875,0.7389868017578125
-0.1686601171875,0.0613447509765625,0.84491220703125
-0.2309051171875,0.04541387939453125,0.9277355517578125
-0.185680234375,0.064776015625,0.92355751953125
-0.38141158203125003,0.05619785400390625,0.9292101513671875
-0.21193984375,0.0574233056640625,0.8358188427734374
-0.31746457031249997,0.11011772705078125,0.847369873046875
-0.26907880859375,0.10178465576171875,1.081339677734375
-0.33132380859375,0.06011929931640625,1.265173095703125
-0.41058892578125,0.19491898193359375,1.3160467822265625
-0.41058892578125,0.1289896826171875,1.0648733154296874
-0.46845732421874997,0.04149243408203125,0.7871570556640625
-0.31989601562500003,0.18903681396484376,0.7153932080078125
-0.26761994140625,0.1799684716796875,0.684180849609375
-0.2177753125,-0.0533575244140625,0.593738740234375
-0.039793515625,0.16060633544921876,0.7394783349609375
-0.34980279296875,0.1672237744140625,0.80755568359375
-0.052680175781250005,0.0142874072265625,0.9481341796875
-0.1088465625,0.19246807861328125,1.2324861376953125
-0.43782111328125,0.09884357177734375,1.4866088037109375
-0.49423064453125,0.0789912548828125,1.7535113330078125
-0.644737109375,0.05668803466796875,1.56255068359375
-0.42615017578125003,0.0020328906249999995,1.272054560546875
-0.392839375,-0.09967959716796874,1.1155012353515625
-0.17327986328125,-0.19526482666015624,0.84294607421875
-0.1944334375,-0.186196484375,0.661570322265625
-0.2260422265625,-0.21242114990234376,0.60701013671875
-0.19759431640625,-0.2504101513671875,0.6441208935546875
-0.14361623046875,-0.1337471533203125,0.6485446923828125
-0.35661083984374997,0.06158984130859375,0.6079932031249999
-0.34007701171875,0.15227326416015624,0.67484171875
-0.21655958984375,0.14737145751953126,0.678282451171875
-0.088422421875,0.16697868408203126,0.895540126953125
-0.35126166015625,0.0672269189453125,1.1066536376953124
-0.51465478515625,0.04320806640625,1.2349438037109375
-0.28634207031250003,0.14982236083984374,1.0943653076171875
-0.21072412109375,-0.0043394580078125,1.06806828125
-0.27734572265625,0.11698025634765626,1.1577730908203125
-0.3009307421875,0.04100225341796875,1.18603625
-0.13486302734375,0.0829127001953125,1.2246216064453126
-0.45168035156249997,0.20178151123046875,1.163917255859375
-0.40913005859375,0.1848702783203125,0.9992536328125
-0.32937865234375,0.159871064453125,0.8839890966796875
-0.16306779296875,0.09590248779296875,0.8436833740234375
-0.1492085546875,-0.03203466552734375,0.7928096875
-0.005510136718749999,0.1387932958984375,1.065610615234375
-0.30944080078125,0.00399361328125,1.4094380908203126
-0.563040546875,0.05521749267578125,1.6537300927734375
-0.4935012109375,-0.02272123291015625,1.3907598291015626
-0.3126016796875,-0.00997653564453125,1.00220283203125
-0.2095083984375,-0.0268877685546875,0.9483799462890625
-0.34883021484375,-0.08938580322265625,0.965337841796875
-0.43733482421875003,-0.022476142578125,1.0953483740234375
-0.48499115234375,0.11305881103515625,1.0516019189453125
-0.33035123046875,0.04982550537109375,0.897506259765625
-0.3155194140625,0.0201695751953125,0.7650380615234375
-0.0918264453125,-0.11536537841796875,0.7021218115234376
-0.0937716015625,-0.1435507666015625,0.6728755859375
-0.10471310546875,-0.06659240234375,0.720554306640625
-0.2425760546875,-0.008996174316406251,0.8348357763671875
-0.3057936328125,-0.1200220947265625,1.012525029296875
-0.41058892578125,-0.00581,1.01399962890625
-0.47088876953125003,-0.08227818359375,0.9031588916015625
-0.28269490234375,-0.06487677001953125,0.8707177001953125
-0.46748474609375,-0.01193725830078125,0.9874568359375
-0.28464005859375,-0.0053198193359375,1.1486797265625
-0.25351755859375,0.012816865234374999,1.1646545556640624
-0.33108066406250003,0.12139188232421876,1.1794005517578126
-0.17717017578125,0.04051207275390625,1.1577730908203125
-0.3544225390625,0.08707923583984375,1.032677890625
-0.23212083984375,0.0770305322265625,0.908319990234375
-0.16914640625,0.04688442138671875,0.8191067138671875
-0.361716875,0.16011615478515626,0.8431918408203125
-0.33667298828125003,0.0387964404296875,0.8648193017578125
-0.35661083984374997,-0.027868129882812502,0.9036504248046875
-0.4477900390625,0.16869431640625,0.9734481396484375
-0.42274615234375,0.21158512451171874,0.9655836083984375
-0.3500459375,0.1378129345703125,0.9179048876953125
-0.3811684375,0.16354741943359374,1.004660498046875
-0.39016478515624997,0.0633054736328125,1.0830600439453124
-0.14556138671875,-0.076396015625,1.151137392578125
-0.21947732421875,-0.08105273193359375,1.1835785839843749
-0.23163455078125,0.011346323242187501,1.0761785791015626
-0.21850474609375,-0.2974674951171875,1.03562708984375
-0.34250845703125,-0.2259011181640625,1.113780869140625
-0.561095390625,-0.1151202880859375,1.057746083984375
-0.49982296875,-0.0955130615234375,0.8387680419921875
-0.19370400390625,7.216796875000007e-05,0.76233462890625
-0.25473328125,-0.0964934228515625,0.7031048779296875
-0.28974609375,-0.0827683642578125,0.817877880859375
-0.2902323828125,-0.12663953369140624,0.98254150390625
-0.43247193359375,-0.01438816162109375,1.0049062646484375
-0.41204779296875,0.0446786083984375,0.9542783447265625
-0.32111173828125,0.0819323388671875,0.974185439453125
-0.304334765625,-0.045024453125,0.9100403564453124
-0.2211793359375,0.0003172583007812497,0.8112421826171875
-0.19321771484375,-0.10752248779296875,0.6573922900390625
-0.3067662109375,0.0231106591796875,0.6728755859375
-0.29874244140625,0.042227705078125,0.7950215869140624
-0.37995271484375,-0.01193725830078125,0.9562444775390625
-0.294608984375,0.0201695751953125,0.93437125
-0.27807515625,-0.0464949951171875,0.8805483642578125
-0.31722142578125,-0.03129939453125,0.9660751416015625
-0.32086859375,0.02752228515625,0.994829833984375
-0.30166017578125,-0.0298288525390625,0.920116787109375
-0.25351755859375,0.0505607763671875,1.0329236572265625
-0.47380650390625,-0.18423576171875,0.96681244140625
-0.28561263671875,-0.048455717773437504,1.000728232421875
-0.236254296875,-0.01438816162109375,0.8977520263671875
-0.3709563671875,-0.14502130859375,0.81148794921875
-0.1555303125,0.044188427734375,1.0019570654296874
-0.23698373046875,-0.07909200927734375,1.1356540966796875
-0.271267109375,0.0152677685546875,1.2644357958984376
-0.32597462890625,0.033404453125,1.0496357861328125
-0.3427516015625,-0.0170841552734375,0.9247863525390625
-0.1783858984375,0.0922261328125,0.9075826904296875
-0.4234755859375,-0.0092412646484375,0.9906518017578125
-0.42128728515625,0.04884514404296875,1.180629384765625
-0.3967296875,0.0843832421875,1.151137392578125
-0.2571647265625,-0.011201987304687501,0.9065996240234375
-0.1599069140625,-0.04183827880859375,0.9080742236328125
-0.3378887109375,-0.12541408203125,1.064627548828125
-0.39356880859375,-0.00507472900390625,1.06806828125
-0.29582470703125,0.03144373046875,0.95894791015625
-0.29679728515625,-0.04379900146484375,0.8242678125
-0.23017568359375,0.08658905517578125,0.9852449365234375
-0.168173828125,-0.01830960693359375,1.143272861328125
-0.37508982421875,0.0985984814453125,1.182103984375
-0.428824765625,0.0191892138671875,0.9921264013671875
-0.3767918359375,-0.12124754638671875,0.9090572900390625
-0.40134943359374997,-0.06242586669921875,0.9881941357421875
-0.37581925781250003,-0.13350206298828124,0.9788550048828125
-0.31333111328125,-0.037916833496093746,0.8707177001953125
-0.26178447265625,-0.02517213623046875,0.8495817724609375
-0.24330548828125,-0.09673851318359375,0.8967689599609375
-0.37581925781250003,-0.023456503906250002,0.9090572900390625
-0.29533841796875,0.04320806640625,1.0444746875
-0.3033621875,-0.0004180126953125,0.968287041015625
-0.35344996093750003,0.1309504052734375,0.947642646484375
-0.234309140625,-0.06193568603515625,0.9166760546875
-0.3009307421875,0.0368357177734375,0.9144641552734375
-0.3515048046875,0.0446786083984375,0.8574463037109374
-0.35758341796875,-0.042328459472656246,0.8171405810546875
-0.28998923828125,0.0427178857421875,0.85867513671875
-0.34542619140624997,0.0211499365234375,1.0201437939453124
-0.3602580078125,-0.02909358154296875,1.1410609619140626
-0.34591248046875,0.05962911865234375,1.141306728515625
-0.302389609375,0.0436982470703125,1.095594140625
-0.34737134765625,0.01306195556640625,1.013508095703125
-0.267376796875,0.087324326171875,0.97467697265625
-0.24573693359375,0.08953013916015624,1.0560257177734376
-0.49034033203125,0.0020328906249999995,1.1007552392578126
-0.22531279296875,0.134381669921875,1.05135615234375
-0.3301080859375,-0.09722869384765626,0.9080742236328125
-0.37022693359375003,0.05619785400390625,1.104933271484375
-0.25157240234375,0.0799716162109375,1.070525947265625
-0.48012826171875,-0.04870080810546875,0.9419900146484375
-0.25011353515625,-0.098944326171875,0.937811982421875
-0.30603677734375,0.024581201171875,0.9493630126953125
-0.23649744140625,-0.04281864013671875,1.0643817822265624
-0.3874901953125,-0.1195319140625,1.094119541015625
-0.3301080859375,0.0064445166015625,1.1656376220703124
-0.32354318359375,-0.2464887060546875,0.9547698779296875
-0.20780638671875,-0.05458297607421875,0.8633447021484375
-0.3203823046875,-0.16781470947265625,0.730384970703125
-0.21193984375,-0.1621776318359375,1.0117877294921875
-0.2435486328125,-0.010221625976562499,1.12803533203125
-0.42590703125,-0.14036459228515624,1.252393232421875
-0.280992890625,-0.04477936279296875,1.2619781298828125
-0.46991619140625,-0.0170841552734375,1.024813359375
-0.3777644140625,-0.0411030078125,0.91765912109375
-0.17376615234375,-0.081297822265625,0.8441749072265625
-0.257651015625,-0.0504164404296875,0.8392595751953125
-0.21801845703125,-0.022476142578125,1.0157199951171876
-0.36585033203125,-0.05213207275390625,1.124594599609375
-0.4059691796875,-0.00581,1.0402966552734374
-0.325731484375,0.07335417724609375,1.004660498046875
-0.35272052734375,-0.1347275146484375,0.90193005859375
-0.4049966015625,-0.0053198193359375,0.9267524853515625
-0.269321953125,-0.18055940673828125,0.917167587890625
-0.30555048828125,-0.016593974609375,0.76626689453125
-0.1842213671875,0.09639266845703125,0.804606484375
-0.28998923828125,-0.05090662109375,0.907336923828125
-0.37363095703125,0.0515411376953125,1.0928907080078125
-0.4098594921875,-0.0749254736328125,1.159984990234375
-0.3709563671875,-0.00409436767578125,1.1169758349609376
-0.42420501953125,-0.12124754638671875,0.879811064453125
-0.24038775390625,-0.09183670654296874,0.760860029296875
-0.2143712890625,-0.11781628173828125,0.7736398925781249
-0.2299325390625,-0.06193568603515625,0.9631259423828125
-0.34032015625,0.0255615625,1.0732293798828125
-0.4278521875,-0.06830803466796875,1.1041959716796874
-0.18786853515625002,-0.03056412353515625,1.130492998046875
-0.3189234375,-0.12663953369140624,1.0343982568359376
-0.37581925781250003,-0.05752406005859375,1.063644482421875
-0.3680386328125,-0.26585084228515626,0.8989808593749999
-0.4108320703125,-0.0866898095703125,0.723503505859375
-0.22093619140625,0.065756376953125,0.7306307373046875
-0.32257060546875,0.046149150390625,0.62765453125
-0.15042427734375,0.10815700439453126,0.757910830078125
-0.20464550781250002,-0.04330882080078125,0.842454541015625
-0.2571647265625,-0.0376717431640625,0.922574453125
-0.33983386718749997,-0.19722554931640626,0.824759345703125
-0.1321884375,-0.0631611376953125,0.839505341796875
-0.34980279296875,-0.17614778076171875,0.891116328125
-0.29339326171875,-0.051886982421875,1.09461107421875
-0.45168035156249997,0.0182088525390625,1.1486797265625
-0.54383212890625,0.0172284912109375,1.0865007763671874
-0.21218298828125,-0.02958376220703125,0.9665666748046875
-0.325731484375,0.0103659619140625,0.9188879541015624
-0.20732009765625,-0.0011532836914062497,0.932896650390625
-0.29776986328125,-0.06389640869140625,0.9407611816406249
-0.368524921875,-0.0827683642578125,0.9174133544921875
-0.14410251953125,-0.08105273193359375,0.8849721630859375
-0.30652306640625,-0.09918941650390625,0.935845849609375
-0.35369310546875,-0.10556176513671875,1.12803533203125
-0.37849384765625,-0.03399538818359375,1.2005364794921876
-0.4419545703125,0.2093793115234375,1.241579501953125
-0.366579765625,0.12139188232421876,1.251410166015625
-0.40426716796875,0.07457962890625,1.2909785888671874
-0.25692158203125,0.16795904541015624,1.279919091796875
-0.3709563671875,0.10717664306640624,1.2902412890625
-0.39089421875,-0.04698517578125,1.1499085595703125
-0.22750109375,-0.1210024560546875,0.961897109375
-0.42469130859375,-0.106787216796875,0.869980400390625
-0.24719580078125,-0.16046199951171874,0.8997181591796874
-0.2610550390625,-0.1866866650390625,0.7886316552734375
-0.22482650390625,-0.16462853515625,0.8576920703124999
-0.1317021484375,-0.189137568359375,0.92748978515625
-0.32597462890625,-0.24673379638671875,0.9360916162109375
-0.13802390625,0.03659062744140625,1.0385762890625
-0.2260422265625,-0.14771730224609375,0.9614055761718749
-0.40961634765625,-0.10286577148437501,1.06905134765625
-0.397702265625,-0.00409436767578125,1.207172177734375
-0.413263515625,-0.0298288525390625,1.086255009765625
-0.5392123828125,-0.03448556884765625,0.871455
-0.31722142578125,0.08707923583984375,0.835573076171875
-0.20683380859375,-0.0778665576171875,0.710232109375
-0.2153438671875,0.06060947998046875,0.62667146484375
-0.16258150390625,0.06600146728515625,0.5423735205078125
-0.15528716796875,-0.1200220947265625,0.506245830078125
-0.26275705078125,0.01012087158203125,0.53426322265625
-0.09352845703125,-0.06046514404296875,0.5640009814453125
-0.19759431640625,-0.06291604736328126,0.777572158203125
-0.22871681640625,0.05668803466796875,1.1010010058593749
-0.42590703125,0.05962911865234375,1.3637255029296875
-0.49593265625,0.15619470947265626,1.4327859179687499
-0.48450486328125,0.21158512451171874,1.2152824755859375
-0.32500205078125,-0.0053198193359375,1.0329236572265625
-0.19029998046875,0.026541923828125,1.1120605029296875
-0.115654609375,0.2177123828125,1.2344522705078125
-0.1910294140625,0.012816865234374999,1.2300284716796874
-0.26324333984375,0.02139502685546875,1.214053642578125
-0.370470078125,0.03315936279296875,1.219952041015625
-0.4915560546875,-0.059484782714843754,1.100017939453125
-0.40062,-0.0768861962890625,0.9704989404296875
-0.25692158203125,-0.008996174316406251,0.8171405810546875
-0.2202067578125,0.0015427099609375003,0.6863927490234375
-0.1832487890625,-0.1062970361328125,0.5981625390625
-0.19613544921875,-0.20212735595703124,0.6052897705078125
-0.26810623046875,-0.2592334033203125,0.7443936669921875
-0.30409162109375,-0.277370087890625,0.90193005859375
-0.377278125,-0.03987755615234375,1.1258234326171874
-0.27685943359375,-0.12124754638671875,1.3416065087890625
-0.48815203125,-0.004829638671875,1.33054701171875
-0.29752671875000003,0.036345537109375,1.1405694287109376
-0.28804408203125,-0.14918784423828124,0.897506259765625
-0.51538421875,-0.07468038330078125,0.8412257080078125
-0.2878009375,0.0182088525390625,0.7247323388671875
-0.23406599609375,-0.087179990234375,0.5531872509765625
-0.16501294921875,0.06796218994140625,0.5177968603515625
-0.16355408203125,-0.04379900146484375,0.48609296874999997
-0.199296328125,-0.0396324658203125,0.54999228515625
-0.27151025390625,0.0451687890625,0.741690234375
-0.325731484375,0.0633054736328125,1.0009739990234374
-0.4594609765625,0.14050892822265626,1.29712275390625
-0.43052677734375,0.1760470263671875,1.4595744775390624
-0.343237890625,0.159871064453125,1.26173236328125
-0.31576255859375,0.0152677685546875,0.9975332666015625
-0.28269490234375,0.05962911865234375,0.8997181591796874
-0.1783858984375,-0.02762303955078125,0.8166490478515624
-0.21461443359375,-0.04183827880859375,0.8284458447265625
-0.3135742578125,0.09443194580078125,0.868014267578125
-0.19710802734375,-0.1116890234375,0.893573994140625
-0.28585578125,-0.14624676025390626,1.0078554638671875
-0.35320681640625,0.09296140380859375,0.9795923046875
-0.16598552734375,-0.00654527099609375,0.925032119140625
-0.26518849609375,-0.09820905517578125,0.9370746826171875
-0.40378087890625003,0.09443194580078125,1.0857634765625
-0.34007701171875,-0.15065838623046876,1.12606919921875
-0.3019033203125,-0.11781628173828125,1.0860092431640624
-0.20391607421875,-0.0092412646484375,0.9414984814453125
-0.3641483203125,-0.136198056640625,0.9714820068359376
-0.284883203125,-0.259723583984375,1.0540595849609375
-0.28974609375,-0.232273466796875,1.207172177734375
-0.31770771484375,-0.20212735595703124,1.250427099609375
-0.25546271484375,-0.30506529541015626,1.0167030615234376
-0.2022140625,-0.3045751147460938,0.9641090087890625
-0.39405509765625,-0.16046199951171874,0.9906518017578125
-0.50760359375,0.0427178857421875,0.911269189453125
-0.51659994140625,0.06673673828125,0.9046334912109375
-0.27880458984375,0.0069346972656249995,0.994829833984375
-0.29971501953125,-0.218548408203125,1.0653648486328124
-0.39478453125,-0.05017135009765625,1.1211538671875
-0.1608794921875,-0.11585555908203125,1.1312302978515625
-0.43247193359375,-0.21585241455078125,1.25386783203125
-0.48158712890625,-0.01291761962890625,1.4497438134765626
-0.45873154296875,-0.0386521044921875,1.435243583984375
-0.5061447265625,-0.01487834228515625,1.2462490673828124
-0.5134390625,-0.12222790771484375,1.1322133642578125
-0.3612305859375,-0.02713285888671875,1.1447474609375
-0.4526529296875,-0.196980458984375,0.94321884765625
-0.3184371484375,-0.24624361572265624,0.7512751318359375
-0.17303671874999998,-0.25261596435546874,0.6475616259765625
-0.3028758984375,-0.23693018310546876,0.5969337060546875
-0.36147373046875,-0.2268814794921875,0.6008659716796875
-0.33424154296874997,-0.2837424365234375,0.7866655224609375
-0.38238416015625,-0.20653898193359374,0.9891772021484375
-0.43393080078125,-0.1259042626953125,1.0343982568359376
-0.380195859375,-0.1955099169921875,1.0083469970703125
-0.20342978515625,-0.234234189453125,0.8970147265625
-0.22579908203125,-0.2729584619140625,0.8554801708984375
-0.36755234375,-0.2553119580078125,1.1356540966796875
-0.47575166015625,-0.3158492700195312,1.1897227490234374
-0.44365658203125,-0.202862626953125,0.9704989404296875
-0.3505322265625,-0.15678564453125,0.844420673828125
-0.38530189453125,-0.06683749267578125,0.727435771484375
-0.30919765625,-0.0001729223632812504,0.6917996142578124
-0.2231244921875,-0.09967959716796874,0.6195442333984374
-0.24816837890625,-0.10458140380859375,0.54802615234375
-0.224583359375,-0.06732767333984375,0.5227121923828125
-0.09450103515625,-0.17810850341796874,0.56965361328125
-0.0067258593750000005,-0.21879349853515626,0.8498275390625
-0.23309341796875,-0.124433720703125,1.1794005517578126
-0.3456693359375,-0.19403937500000001,1.4959479345703124
-0.35344996093750003,-0.01879978759765625,1.784232158203125
-0.43538966796875,0.0191892138671875,1.7736641943359375
-0.69360916015625,-0.0651218603515625,1.459820244140625
-0.40961634765625,-0.04772044677734375,1.1970957470703125
-0.26227076171875,-0.146001669921875,1.0722463134765625
-0.34810078125,-0.05409279541015625,0.9547698779296875
-0.21850474609375,-0.14134495361328125,0.7969877197265625
-0.1355924609375,-0.16830489013671876,0.59914560546875
-0.11784291015625001,-0.25996867431640625,0.520991826171875
-0.1336473046875,-0.28545806884765623,0.6952403466796875
-0.10860341796875,-0.177373232421875,1.03661015625
-0.4045103125,0.08242251953125,1.3332504443359374
-0.4886383203125,0.124578056640625,1.35414060546875
-0.42201671875,0.016738310546875,1.078390478515625
-0.3427516015625,-0.20163717529296876,0.93142205078125
-0.22044990234375,-0.1876670263671875,0.9228202197265625
-0.2722396875,-0.2160975048828125,1.077407412109375
-0.17036212890625,-0.24697888671875,1.2005364794921876
-0.33642984375,-0.311682734375,1.2939277880859374
-0.38189787109375,-0.383249111328125,1.065610615234375
-0.2338228515625,-0.1665892578125,0.7738856591796874
-0.22920310546875,-0.19207865234375,0.6554261572265625
-0.19662173828125,-0.060710234375,0.5959506396484375
-0.1920019921875,0.052031318359375,0.662553388671875
-0.2591098828125,-0.1141399267578125,0.6893419482421875
-0.11298001953125,-0.22614620849609374,0.8313950439453125
-0.298499296875,-0.20727425292968749,0.9410069482421874
-0.48790888671875,-0.13325697265625,1.11525546875
-0.392839375,-0.08546435791015625,1.0978060400390626
-0.43587595703125,-0.01879978759765625,1.0179318945312499
-0.32475890625,0.07090327392578125,1.0108046630859375
-0.36439146484375,0.0037485229492187503,0.8834975634765625
-0.22701480468750002,0.10423555908203125,0.8382765087890625
-0.2309051171875,0.159871064453125,0.8087845166015625
-0.2172890234375,0.15325362548828125,0.7397241015625
-0.249870390625,-0.03056412353515625,0.8250051123046875
-0.30311904296875003,0.10399046875,0.9842618701171875
-0.3573402734375,-0.00777072265625,0.85081060546875
-0.2649453515625,-0.085219267578125,0.82328474609375
-0.41034578125,0.04345315673828125,0.830657744140625
-0.408400625,0.122617333984375,0.8908705615234375
-0.3242726171875,0.021640117187500002,1.0904330419921875
-0.27418484375,0.06943273193359376,1.277952958984375
-0.54626357421875,0.1358522119140625,1.3637255029296875
-0.53070232421875,-0.04379900146484375,1.169815654296875
-0.31284482421875,-0.06977857666015624,0.8340984765625
-0.25983931640625,-0.03497574951171875,0.673367119140625
-0.0743200390625,-0.11585555908203125,0.712689775390625
-0.20245720703125,-0.04428918212890625,0.936828916015625
-0.3767918359375,-0.00213364501953125,1.2688595947265624
-0.55842080078125,0.1289896826171875,1.2079094775390624
-0.42906791015625,0.0152677685546875,0.8363103759765624
-0.24914095703125,-0.0011532836914062497,0.546551552734375
-0.05997451171875,-0.10188541015625,0.5694078466796875
-0.21996361328125,-0.2131564208984375,0.5925099072265625
-0.1637972265625,-0.20702916259765625,0.8498275390625
-0.29193439453125003,-0.12149263671875,1.231748837890625
-0.52146283203125,-0.08644471923828125,1.27254609375
-0.41010263671875,-0.0337502978515625,1.1951296142578125
-0.24525064453125,0.02335574951171875,1.282868291015625
-0.26713365234374997,-0.01634888427734375,1.2332234375
-0.29582470703125,-0.06144550537109375,1.2575543310546875
-0.39648654296875,0.0652661962890625,1.1617053564453126
-0.33253953125,-0.011201987304687501,0.7773263916015625
-0.1696326953125,0.06011929931640625,0.59324720703125
0.0433619140625,-0.02517213623046875,0.6264256982421875
-0.05170759765625,-0.1170810107421875,0.9498545458984375
-0.35855599609375,-0.16854998046875,1.21454517578125
-0.3262177734375,-0.059729873046875,1.457362578125
-0.46651216796875,0.0525214990234375,1.4200060546875
-0.39697283203125,-0.0533575244140625,1.0545511181640626
-0.27783201171875,0.0731090869140625,1.178663251953125
-0.45581380859375,-0.020515419921875,1.3076907177734376
-0.37995271484375,-0.0455146337890625,1.3484879736328126
-0.22968939453125,-0.032279755859375,1.316292548828125
-0.29533841796875,0.0701680029296875,1.1621968896484376
-0.16063634765625,0.0074248779296875,0.9056165576171875
-0.07602205078125,-0.1062970361328125,0.79772501953125
-0.11346630859375,-0.18938265869140625,0.9183964208984375
-0.19127255859375,-0.11879664306640625,1.091661875
-0.39648654296875,-0.11536537841796875,0.987948369140625
-0.321841171875,-0.06659240234375,0.9097945898437501
-0.34202216796875,-0.0562986083984375,0.7620888623046875
-0.304334765625,-0.13105115966796876,0.7193254736328125
-0.1988100390625,-0.00213364501953125,0.81935248046875
-0.19856689453125,0.061834931640625,0.906845390625
-0.27491427734375,0.1829095556640625,1.1666206884765624
-0.2454937890625,0.1157548046875,1.306461884765625
-0.3267040625,0.09982393310546875,1.210121376953125
-0.14312994140625,0.1784979296875,1.035135556640625
-0.25886673828125,0.042227705078125,0.7886316552734375
-0.25400384765625,0.1417343798828125,0.7635634619140625
-0.19856689453125,0.06281529296875,0.6824604833984375
-0.20537494140625,0.12384278564453124,0.6964691796875
-0.28707150390625,0.0711483642578125,0.5620348486328125
-0.3106565234375,0.09639266845703125,0.5930014404296875
-0.3048210546875,0.11060790771484375,0.668451787109375
-0.28391062499999997,0.06011929931640625,0.7050710107421875
-0.30214646484375,0.1093824560546875,0.8812856640625
-0.31235853515625,0.12531332763671876,1.0796193115234376
-0.2785614453125,0.10325519775390625,1.2015195458984376
-0.298499296875,0.10864718505859375,1.2580458642578125
-0.26178447265625,0.04712951171875,1.189476982421875
-0.3203823046875,-0.04870080810546875,0.9763973388671875
-0.33618669921875,-0.076396015625,0.8078014501953125
-0.2153438671875,-0.07051384765625,0.5816961767578125
-0.24233291015625,-0.0876701708984375,0.48314376953125
-0.2017277734375,-0.091101435546875,0.5020677978515625
-0.18397822265625,0.038306259765625,0.6741044189453125
-0.28366748046875,0.0574233056640625,0.8707177001953125
-0.39818855468750003,0.08511851318359374,1.1017383056640626
-0.529972890625,0.1809488330078125,1.301546552734375
-0.29631099609375,0.216732021484375,1.3406234423828125
-0.27734572265625,0.27040680419921875,1.33841154296875
-0.446331171875,0.22580036376953125,1.3578271044921875
-0.26810623046875,0.11967625,1.182103984375
-0.2688356640625,0.08021670654296875,0.95796484375
-0.33861814453125,0.118695888671875,0.878827998046875
-0.3495596484375,0.008895419921875,0.7886316552734375
-0.162338359375,0.11599989501953126,0.863098935546875
-0.3806821484375,0.1260485986328125,0.8092760498046875
-0.35709712890625,0.023845930175781252,0.7915808544921875
-0.2250696484375,-0.06585713134765625,0.70924904296875
-0.22239505859375,0.0858537841796875,0.64436666015625
-0.1686601171875,0.15031254150390624,0.6436293603515625
-0.23260712890625002,0.16207687744140625,0.9228202197265625
-0.40864376953125,0.1917328076171875,1.2226554736328126
-0.4614061328125,0.2466330419921875,1.3189959814453125
-0.24670951171875,0.16599832275390625,1.339394609375
-0.36050115234375,0.0922261328125,1.247477900390625
-0.337402421875,0.19835024658203124,1.2826225244140625
-0.21972046875,-0.03693647216796875,1.0535680517578125
-0.26616107421875,0.04688442138671875,0.8844806298828125
-0.14993798828125,0.042227705078125,0.74857169921875
-0.1200312109375,-0.08007237060546875,0.718588173828125
-0.19564916015625,0.0740894482421875,0.8082929833984375
-0.30409162109375,0.09418685546875,0.9186421875
-0.26372962890625,0.10570610107421875,0.99433830078125
-0.27345541015625,0.0231106591796875,1.0142453955078126
-0.33181009765625,0.028257556152343752,1.096085673828125
-0.35369310546875,0.12163697265625,1.1592476904296876
-0.2941226953125,0.019679394531249998,1.0692971142578125
-0.2532744140625,0.0883046875,0.9518206787109375
-0.2022140625,0.0765403515625,0.890624794921875
-0.05900193359375,0.03413972412109375,0.885709462890625
-0.13340416015625,0.0691876416015625,0.9857364697265625
-0.19419029296875,0.09492212646484376,1.072000546875
-0.28901666015625,0.1084020947265625,0.98254150390625
-0.2800203125,0.20472259521484376,0.89504859375
-0.2746711328125,0.2250650927734375,0.840488408203125
-0.21801845703125,0.24197632568359376,0.8245135791015625
-0.27151025390625,0.13707766357421874,0.9582106103515625
-0.26324333984375,0.15276344482421875,1.046932353515625
-0.38870591796875,0.12531332763671876,0.9100403564453124
-0.2279873828125,0.14639109619140625,0.9402696484374999
-0.33667298828125003,0.12874459228515625,0.9351085498046875
-0.2630001953125,0.03561026611328125,0.9242948193359375
-0.14507509765624998,-0.0239466845703125,0.89013326171875
-0.14458880859375,0.13511694091796875,1.037101689453125
-0.27515742187500003,0.19050735595703125,1.173747919921875
-0.35272052734375,0.0280124658203125,1.0358728564453126
-0.3194097265625,0.1897720849609375,0.9677955078125
-0.292663828125,0.059874208984374996,0.97369390625
-0.26518849609375,0.00987578125,1.0771616455078126
-0.4127772265625,0.14982236083984374,1.1209081005859376
-0.3894353515625,0.026051743164062502,0.977134638671875
-0.22142248046875002,0.01159141357421875,0.75643623046875
-0.18081734375,0.1162449853515625,0.7434106005859376
-0.3427516015625,0.1549692578125,0.8495817724609375
-0.2347954296875,0.0878145068359375,0.96484630859375
-0.356853984375,0.11967625,1.1499085595703125
-0.347128203125,0.224574912109375,1.0137538623046876
-0.3116291015625,0.021640117187500002,0.745130966796875
-0.1530988671875,0.0211499365234375,0.7743771923828124
-0.347128203125,0.15619470947265626,0.8365561425781249
-0.27588685546875,0.12874459228515625,0.9007012255859375
-0.23698373046875,0.15080272216796875,1.0543053515625
-0.29874244140625,0.08242251953125,1.1258234326171874
-0.33108066406250003,0.27849478515625,1.143272861328125
-0.5367809375,0.15374380615234376,1.093136474609375
-0.45435494140625,0.13266603759765624,1.0879753759765625
-0.3388612890625,0.0191892138671875,0.910286123046875
-0.29752671875000003,0.0946770361328125,0.6453497265625
-0.2202067578125,0.08511851318359374,0.5035423974609375
-0.047087851562500005,0.03904153076171875,0.4824064697265625
-0.050491875000000006,0.111833359375,0.6067643701171875
-0.1861665234375,0.1711452197265625,1.01399962890625
-0.48304599609375,0.1515379931640625,1.4359808837890624
-0.47404964843749997,0.216732021484375,1.5984326074218749
-0.52316484375,0.20619313720703125,1.368395068359375
-0.4361191015625,0.128499501953125,0.9488714794921875
-0.11225058593750001,0.1691844970703125,0.7869112890625
-0.18884111328125,0.18413500732421875,0.6883588818359375
-0.2843969140625,0.20913422119140626,0.7321053369140624
-0.31770771484375,0.18413500732421875,0.9311762841796875
-0.339347578125,0.23756469970703126,1.1056705712890624
-0.33472783203125,0.2726126171875,1.1051790380859374
-0.18495080078125,0.0780108935546875,1.167849521484375
-0.2878009375,0.237319609375,1.2393676025390625
-0.339347578125,0.20962440185546874,1.2786902587890625
-0.38384302734375,0.1691844970703125,1.2666476953124999
-0.3889490625,0.1985953369140625,1.274020693359375
-0.34785763671875003,0.28021041748046877,1.3293181787109374
-0.3962433984375,0.065756376953125,1.155069658203125
-0.257651015625,0.2642795458984375,1.016948828125
-0.3656071875,0.15692998046875,0.88620099609375
-0.31284482421875,0.1079119140625,0.9159387548828125
-0.21899103515625,0.19001717529296874,1.0245675927734375
-0.26324333984375,0.106931552734375,1.0963314404296876
-0.242089765625,0.1133039013671875,1.1680952880859374
-0.33983386718749997,0.1319307666015625,1.1489254931640625
-0.32208431640625,0.05472731201171875,1.044966220703125
-0.2445212109375,0.021640117187500002,0.9665666748046875
-0.23917203125,-0.0435539111328125,0.9936010009765625
-0.1492085546875,-0.04330882080078125,1.032186357421875
-0.2873146484375,-0.081297822265625,1.0570087841796876
-0.1326747265625,-0.14967802490234375,1.0933822412109375
-0.2133987109375,-0.00777072265625,1.11230626953125
-0.40329458984375,-0.07468038330078125,0.9518206787109375
-0.3884627734375,-0.0621807763671875,0.7773263916015625
-0.20464550781250002,0.07335417724609375,0.7183424072265625
-0.0932853125,0.00325834228515625,0.676316318359375
-0.21899103515625,0.16991976806640624,0.8987350927734374
-0.12708240234375,0.0294830078125,1.1621968896484376
-0.22239505859375,0.167713955078125,1.2865547900390626
-0.3641483203125,0.30717035400390624,1.3610220703125
-0.330594375,0.3341302905273438,1.2305200048828124
-0.27637314453125,0.33265974853515623,1.1322133642578125
-0.30555048828125,0.3341302905273438,1.1371286962890625
-0.41885583984375,0.30668017333984376,1.1366371630859375
-0.32305689453124997,0.21550656982421876,0.8731753662109375
-0.16647181640625,0.21060476318359375,0.7436563671875001
-0.2075632421875,0.19393862060546874,0.6669771875
-0.1788721875,0.20276187255859374,0.7453767333984375
-0.24622322265625,0.27040680419921875,0.94321884765625
-0.3048210546875,0.25913264892578125,1.26566462890625
-0.1939471484375,0.2083989501953125,1.4718628076171876
-0.14969484375,0.2907493017578125,1.701163046875
-0.39089421875,0.2142811181640625,1.689857783203125
-0.44997833984375,0.169674677734375,1.59597494140625
-0.553314765625,0.13756784423828125,1.4384385498046874
-0.52097654296875,0.0221302978515625,1.222901240234375
-0.35126166015625,-0.08007237060546875,0.8667854345703125
-0.1633109375,-0.123453359375,0.5551533837890625
-0.1268392578125,-0.2013920849609375,0.415803720703125
-0.08137123046875,-0.195019736328125,0.47921150390625
-0.1258666796875,-0.251880693359375,0.669434853515625
-0.31333111328125,-0.22467566650390625,0.889641728515625
-0.42031470703125,-0.07615092529296875,0.9832788037109375
-0.3811684375,-0.1582561865234375,0.9419900146484375
-0.19224513671875,-0.20261753662109375,0.6672229541015625
-0.10665826171875001,-0.11757119140625,0.4160494873046875
-0.033714902343750006,-0.1778634130859375,0.300784951171875
-0.07796720703125,-0.18497103271484375,0.3138105810546875
-0.07699462890625,-0.16781470947265625,0.24327556640624998
-0.175954453125,-0.0567887890625,0.2757167578125
-0.24962724609375,-0.0435539111328125,0.4037611572265625
-0.16258150390625,0.10815700439453126,0.5979167724609376
-0.17084841796875,0.20913422119140626,0.9837703369140625
-0.26907880859375,0.35716878173828126,1.3435726416015625
-0.4186126953125,0.5123109619140624,1.5458385546875
-0.42177357421875,0.510840419921875,1.3892852294921876
-0.33472783203125,0.4400093139648438,1.0216183935546874
-0.29922873046875,0.363786220703125,0.8810398974609375
-0.17814275390625,0.3118270703125,0.6863927490234375
-0.100093359375,0.25815228759765624,0.6669771875
-0.10203851562499999,0.2721224365234375,0.7365291357421875
-0.35174794921875,0.20521277587890624,0.828691611328125
-0.2202067578125,0.15766525146484375,1.2049602783203124
-0.28658521484375,0.5355945434570313,1.956268779296875
-0.5810332421875,0.58436751953125,2.008371298828125
-0.75050498046875,0.444175849609375,1.831419345703125
-0.75658359375,0.25668174560546875,1.5937630419921875
-0.53507892578125,0.0123266845703125,1.0461950537109375
-0.16063634765625,-0.09379742919921875,0.5352462890625
-0.0354169140625,-0.140119501953125,0.261462294921875
-0.026420566406250002,-0.09183670654296874,0.203461376953125
0.00227048828125,-0.10605194580078126,0.4062188232421875
0.006890234374999998,-0.230312744140625,0.893573994140625
-0.32937865234375,-0.4592271142578125,1.76309623046875
-0.95036978515625,-0.32271179931640626,2.129718558349609
-0.84095474609375,0.1314405859375,2.0022271337890625
-0.59148845703125,0.273592978515625,1.5131515966796876
-0.465782734375,0.026051743164062502,0.9945840673828125
-0.33472783203125,-0.0562986083984375,0.5851369091796875
-0.25084296875,-0.0778665576171875,0.442838046875
-0.0772377734375,-0.055808427734375,0.36173506835937497
0.039957890625,-0.055808427734375,0.3118444482421875
-0.12610982421875,0.02874773681640625,0.3605062353515625
-0.2172890234375,0.05472731201171875,0.29931035156249997
-0.24962724609375,0.01183650390625,0.2914458203125
-0.24281919921875,0.08315779052734375,0.4494737451171875
-0.29776986328125,0.1005592041015625,0.5787469775390625
-0.34883021484375,0.1123235400390625,0.6922911474609375
-0.41010263671875,0.1956542529296875,0.8112421826171875
-0.419098984375,0.2848671337890625,0.974185439453125
-0.1404553515625,0.37138402099609374,1.20078224609375
-0.06386482421875,0.3655018530273437,1.7967662548828125
-0.50395642578125,0.5306927368164063,1.8577163720703125
-0.42201671875,0.3780014599609375,1.3986243603515625
-0.13729447265625,0.15692998046875,0.9547698779296875
0.0093216796875,0.0819323388671875,0.91569298828125
-0.1579617578125,0.1740863037109375,1.2253589062499999
-0.5362946484375,0.08315779052734375,1.1405694287109376
-0.46019041015625,0.1603612451171875,0.8498275390625
-0.40937320312500003,0.08462833251953125,0.6337986962890625
-0.277102578125,0.085363603515625,0.560314482421875
-0.01961251953125,0.06624655761718751,0.8058353173828126
0.1401334375,0.18707609130859376,1.45048111328125
-0.189570546875,0.5375552661132813,2.129718558349609
-0.6768321875,0.31305252197265626,2.129718558349609
-0.55987966796875,0.13364639892578126,1.5908138427734375
-0.50979189453125,0.069677822265625,1.221918173828125
-0.3485870703125,-0.0347306591796875,1.21257904296875
-0.12659611328125,0.26256391357421877,1.0889584423828125
-0.33083751953125,0.13340130859375,0.8893959619140624
-0.4127772265625,0.07482471923828125,0.73480876953125
-0.35101851562499997,-0.0621807763671875,0.61290853515625
-0.16720125,-0.18202994873046874,0.6175781005859375
-0.045628984375,-0.00752563232421875,0.868014267578125
-0.265431640625,0.29295511474609376,1.221426640625
-0.4176401171875,0.36795275634765623,1.429345185546875
-0.5032269921875,0.17727247802734375,1.4094380908203126
-0.39940427734375,0.13315621826171875,1.321207880859375
-0.43782111328125,0.0270321044921875,1.0914161083984375
-0.20926525390625,0.11158826904296874,1.0275167919921875
-0.30798193359375,-0.010711806640625,0.913235322265625
-0.3301080859375,0.0103659619140625,0.73775796875
-0.22774423828125,0.0044837939453125,0.7021218115234376
-0.1827625,-0.026397587890625,0.6745959521484375
-0.265431640625,0.04884514404296875,0.5930014404296875
-0.21072412109375,0.18119392333984374,0.752012431640625
-0.37922328125,0.0946770361328125,0.8360646093749999
-0.4030514453125,0.11109808837890625,0.88620099609375
-0.46019041015625,0.099088662109375,0.993355234375
-0.4935012109375,0.1574201611328125,1.0255506591796875
-0.23844259765625,0.05178622802734375,0.9336339501953125
-0.43004048828125,0.07041309326171875,0.8279543115234375
-0.232363984375,0.08242251953125,0.86064126953125
-0.2960678515625,-0.1004148681640625,0.8122252490234375
-0.33132380859375,-0.09183670654296874,0.8441749072265625
-0.3019033203125,0.07433453857421875,0.808047216796875
-0.316005703125,-0.0268877685546875,0.6510023583984375
-0.1073876953125,-0.0254172265625,0.52836482421875
-0.28366748046875,-0.052867343750000004,0.4998558984375
-0.30846822265625,0.12825441162109374,0.5418819873046875
-0.35272052734375,0.12972495361328126,0.5959506396484375
-0.372415234375,0.09100068115234375,0.75250396484375
-0.32694720703125,0.1887917236328125,0.9198710205078124
-0.36585033203125,0.16991976806640624,0.9913891015625
-0.31989601562500003,0.24148614501953125,1.0555341845703126
-0.30020130859375,0.12825441162109374,1.0975602734375
-0.206104375,0.12188206298828125,1.203239912109375
-0.20586123046875,0.1113431787109375,1.25681703125
-0.2620276171875,0.1133039013671875,1.2501813330078124
-0.24330548828125,0.12923477294921876,1.1199250341796876
-0.40645546875,0.04982550537109375,0.974185439453125
-0.31430369140625003,0.12188206298828125,0.952557978515625
-0.4040240234375,0.0035034326171875,0.892590927734375
-0.380195859375,0.03561026611328125,0.8773533984374999
-0.32354318359375,-0.01781942626953125,0.7552073974609375
-0.31965287109375,0.03953171142578125,0.775606025390625
-0.29339326171875,-0.03840701416015625,0.7117067089843749
-0.31333111328125,-0.0494360791015625,0.709740576171875
-0.29144810546875,0.03462990478515625,0.7822417236328125
-0.28172232421875,-0.00654527099609375,0.92650671875
-0.35588140625,-0.00409436767578125,0.964354775390625
-0.25084296875,0.03928662109375,0.9626344091796875
-0.2177753125,-0.02027032958984375,0.96877857421875
-0.30749564453125,0.03021827880859375,1.0024485986328124
-0.37508982421875,0.08805959716796875,1.08674654296875
-0.28585578125,0.09443194580078125,1.05725455078125
-0.46164927734375,0.09737302978515625,1.0334151904296875
-0.28634207031250003,0.07433453857421875,0.9980247998046875
-0.331566953125,0.04835496337890625,0.9638632421875
-0.368524921875,0.0721287255859375,0.97860923828125
-0.22628537109375,0.0770305322265625,0.945676513671875
-0.2980130078125,0.0838930615234375,0.8773533984374999
-0.2688356640625,0.021640117187500002,0.95304951171875
-0.27588685546875,0.055952763671875,0.9955671337890625
-0.28609892578125,0.09296140380859375,0.9808211376953125
-0.411318359375,0.14516564453125,0.86653966796875
-0.20294349609375,0.15692998046875,0.8387680419921875
-0.22750109375,0.03953171142578125,0.8849721630859375
-0.35393625,0.25521120361328126,1.0543053515625
-0.34299474609375,0.0770305322265625,1.1415524951171876
-0.2454937890625,0.13805802490234376,1.197833046875
-0.3913805078125,0.275553701171875,1.16244265625
-0.3602580078125,0.12163697265625,1.1336879638671875
-0.316005703125,0.1240878759765625,1.033169423828125
-0.28658521484375,0.17874302001953124,1.026287958984375
-0.346155625,0.14982236083984374,0.9768888720703125
-0.2882872265625,0.11599989501953126,0.9351085498046875
-0.21753216796875,0.1338914892578125,0.9056165576171875
-0.3894353515625,0.11060790771484375,0.9410069482421874
-0.187625390625,0.08511851318359374,1.0329236572265625
-0.32840607421875,0.07457962890625,1.02088109375
-0.27783201171875,0.11894097900390625,1.0869923095703125
-0.25400384765625,0.114774443359375,1.043983154296875
-0.4575158203125,0.0682072802734375,0.946659580078125
-0.10519939453125,0.0936966748046875,0.9926179345703126
-0.3923530859375,0.036345537109375,0.9442019140625
-0.298499296875,0.093206494140625,1.087238076171875
-0.25303126953125,0.08242251953125,1.039067822265625
-0.39697283203125,0.085363603515625,0.9965502001953125
-0.16695810546875,0.05619785400390625,0.98843990234375
-0.27005138671875,0.0760501708984375,0.9852449365234375
-0.27418484375,0.1682041357421875,1.0938737744140625
-0.30506419921875,0.04247279541015625,1.04152548828125
-0.3203823046875,0.24099596435546874,1.0189149609375
-0.21412814453125,0.12947986328125,0.9874568359375
-0.43927998046875,0.10570610107421875,0.985982236328125
-0.25254498046875,0.338296826171875,1.1017383056640626
-0.382141015625,0.1628121484375,0.94715111328125
-0.407428046875,0.2811907788085938,1.0221099267578124
-0.27272597656249997,0.18266446533203126,1.005643564453125
-0.2955815625,0.1691844970703125,0.9434646142578125
-0.17668388671875,0.19835024658203124,0.966320908203125
-0.32451576171875,0.1633023291015625,0.922082919921875
-0.21510072265625,0.2451625,0.933879716796875
-0.29971501953125,0.10178465576171875,0.917167587890625
-0.2805066015625,0.25325048095703123,1.0766701123046876
-0.345183046875,0.13021513427734374,1.02088109375
-0.27734572265625,0.21648693115234374,1.0255506591796875
-0.24914095703125,0.210849853515625,1.02579642578125
-0.30895451171875,0.0843832421875,0.9193794873046874
-0.2133987109375,0.10472573974609375,0.95894791015625
-0.3301080859375,0.14541073486328124,0.9670582080078125
-0.22531279296875,0.0691876416015625,0.9206083203125
-0.2824517578125,0.06257020263671875,0.793301220703125
-0.16720125,0.01110123291015625,0.7822417236328125
-0.2143712890625,0.05374695068359375,0.804606484375
-0.277102578125,0.08634396484375,0.84097994140625
-0.32500205078125,0.07286399658203124,0.8933282275390625
-0.28561263671875,0.15962597412109375,0.9498545458984375
-0.30457791015625,0.1250682373046875,0.99237216796875
-0.35028908203125,0.1789881103515625,1.0189149609375
-0.3583128515625,0.18413500732421875,0.99040603515625
-0.32791978515625,0.1941837109375,0.9166760546875
-0.26324333984375,0.17433139404296874,0.8215643798828125
-0.30263275390625,0.05080586669921875,0.73677490234375
-0.2279873828125,0.10521592041015625,0.7832247900390625
-0.2795340234375,0.05031568603515625,0.7709364599609375
-0.3213548828125,0.138303115234375,0.8874298291015625
-0.29582470703125,0.2034971435546875,0.9955671337890625
-0.35661083984374997,0.08756941650390625,0.956490244140625
-0.31333111328125,0.150067451171875,0.969761640625
-0.21072412109375,0.17482157470703125,1.032186357421875
-0.3592854296875,0.0270321044921875,1.0530765185546875
-0.3417790234375,0.063795654296875,1.0845346435546874
-0.333512109375,-0.0053198193359375,1.10247560546875
-0.40037685546875,0.06109966064453125,1.0471781201171875
-0.38457246093749997,-0.01732924560546875,0.8766160986328125
-0.18057419921875,-0.08007237060546875,0.76036849609375
-0.26227076171875,-0.12124754638671875,0.66599412109375
-0.20099833984375,-0.042083369140625,0.722520439453125
-0.26810623046875,-0.03252484619140625,0.831640810546875
-0.27151025390625,-0.07860182861328124,0.8105048828125
-0.28974609375,0.0809519775390625,0.8254966455078125
-0.46019041015625,0.04884514404296875,0.8672769677734375
-0.2566784375,0.04590406005859375,1.023338759765625
-0.4497351953125,0.04002189208984375,1.0152284619140626
-0.27783201171875,0.1079119140625,1.0378389892578126
-0.29728357421875,0.00325834228515625,1.0186691943359376
-0.45411179687500003,-0.0190448779296875,0.9206083203125
-0.24938410156250002,0.0922261328125,0.9638632421875
-0.32475890625,0.01575794921875,0.8766160986328125
-0.3787369921875,0.0966377587890625,1.0461950537109375
-0.31333111328125,-0.06095532470703125,0.9611598095703124
-0.35077537109375,-0.0533575244140625,0.8495817724609375
-0.2231244921875,-0.075415654296875,0.7345630029296875
-0.24184662109375,7.216796875000007e-05,0.68565544921875
-0.2250696484375,0.02360083984375,0.8333611767578125
-0.36487775390625,0.009140510253906251,1.0206353271484374
-0.38287044921875,0.05521749267578125,1.21847744140625
-0.2367405859375,0.073599267578125,1.2831140576171876
-0.27418484375,0.0515411376953125,1.2639442626953126
-0.4195852734375,0.0162481298828125,1.22634197265625
-0.392839375,0.07482471923828125,1.1233657666015624
-0.2722396875,0.03536517578125,1.0024485986328124
-0.31819400390625,-0.05899460205078125,0.9007012255859375
-0.13680818359375,-0.012672529296875,0.9011927587890625
-0.252788125,-0.05458297607421875,0.87047193359375
-0.23892888671875,-0.06732767333984375,0.9559987109375
-0.31430369140625003,0.05080586669921875,1.0889584423828125
-0.458002109375,-0.04821062744140625,0.9990078662109375
-0.345183046875,-0.00605509033203125,0.936828916015625
-0.25838044921875,-0.03840701416015625,1.0112961962890625
-0.21583015625000002,-0.13987441162109376,1.119187734375
-0.41545181640625,-0.15457983154296875,1.1017383056640626
-0.32646091796875,-0.0175743359375,1.16735798828125
-0.39089421875,-0.07271966064453125,1.1312302978515625
-0.508576171875,-0.09428760986328125,1.05233921875
-0.0597313671875,-0.0886505322265625,1.0329236572265625
-0.28658521484375,-0.19232374267578126,0.954524111328125
-0.50954875,-0.02737794921875,0.928964384765625
-0.2989855859375,-0.022476142578125,0.8498275390625
-0.380195859375,-0.032279755859375,0.80755568359375
-0.4278521875,0.04639424072265625,0.87637033203125
-0.21510072265625,0.093206494140625,0.9604225097656249
-0.273212265625,0.13119549560546875,1.055779951171875
-0.39454138671875,0.08511851318359374,1.072000546875
-0.35077537109375,0.0917359521484375,0.9877026025390625
-0.24816837890625,0.11207844970703125,0.927981318359375
-0.2630001953125,-0.044044091796875,0.99433830078125
-0.30603677734375,-0.02174087158203125,1.2253589062499999
-0.1793584765625,0.03659062744140625,1.3121145166015624
-0.46529644531250003,0.10962754638671875,1.1636714892578124
-0.38627447265625,0.17188049072265624,1.1233657666015624
-0.36050115234375,0.16354741943359374,1.0063808642578125
-0.21364185546875,0.05619785400390625,1.00810123046875
-0.24087404296875,0.0387964404296875,1.1307387646484375
-0.338375,0.05129604736328125,1.2312573046875
-0.34737134765625,0.08560869384765625,1.0938737744140625
-0.30603677734375,0.079481435546875,0.9070911572265625
-0.22944625,0.03144373046875,0.883251796875
-0.23309341796875,-0.12124754638671875,0.9621428759765625
-0.4186126953125,-0.02272123291015625,1.0683140478515625
-0.2800203125,-0.02076051025390625,1.051847685546875
-0.23212083984375,-0.108747939453125,0.924049052734375
-0.3223274609375,0.0015427099609375003,0.9419900146484375
-0.214857578125,-0.025662316894531252,0.8805483642578125
-0.19759431640625,-0.044534272460937496,0.8343442431640625
-0.088422421875,0.09639266845703125,0.902913125
-0.17862904296875,0.17531175537109375,0.9906518017578125
-0.1205175,-0.0018885546875000003,1.09854333984375
-0.36098744140625,-0.01095689697265625,1.1290183984375
-0.26056875,-0.1660990771484375,1.0319405908203125
-0.21193984375,-0.25751777099609374,0.8898874951171875
-0.25643529296875,-0.22124440185546876,0.9134810888671875
-0.23163455078125,0.0010525292968750002,0.90193005859375
-0.53556521484375,-0.1543347412109375,0.8235305126953125
-0.17376615234375,0.01159141357421875,0.7394783349609375
-0.05632734375,0.1941837109375,0.637976728515625
0.034122421875,0.148106728515625,0.8717007666015625
-0.13583560546875,0.13119549560546875,1.20274837890625
-0.146777109375,0.0387964404296875,1.3637255029296875
-0.31868029296875,0.040266982421875,1.3452930078125
-0.4511940625,0.2074185888671875,1.3076907177734376
-0.58759814453125,0.13413657958984376,1.1798920849609376
-0.41034578125,0.2427115966796875,1.1046875048828124
-0.362689453125,0.27040680419921875,1.01203349609375
-0.29169125,0.3037390893554687,0.9520664453125
-0.18981369140625,0.055952763671875,0.897506259765625
-0.299471875,-0.03644629150390625,0.87637033203125
-0.286828359375,-0.093062158203125,0.737266435546875
-0.2114535546875,-0.07222947998046875,0.6264256982421875
-0.16841697265625,-0.10262068115234375,0.4927286669921875
-0.2172890234375,-0.0371815625,0.482652236328125
-0.18349193359375,0.00276816162109375,0.594721806640625
-0.21072412109375,-0.00507472900390625,0.769707626953125
-0.2172890234375,0.11992134033203125,0.9803296044921875
-0.3009307421875,-0.07051384765625,1.263206962890625
-0.4594609765625,0.0289928271484375,1.565008349609375
-0.3884627734375,0.1005592041015625,1.6008902734375
-0.339347578125,-0.08448399658203125,1.3914971289062499
-0.4623787109375,0.16795904541015624,1.1486797265625
-0.16160892578125,-0.03889719482421875,0.984016103515625
-0.2707808203125,-0.1837455810546875,0.8191067138671875
-0.3320532421875,-0.06683749267578125,0.73087650390625
-0.23212083984375,-0.11291447509765624,0.6256883984375
-0.230418828125,-0.02027032958984375,0.47577077148437497
-0.16185207031249998,-0.010711806640625,0.4209648193359375
-0.24938410156250002,-0.124433720703125,0.41383758789062497
-0.2406308984375,-0.0053198193359375,0.48609296874999997
-0.2746711328125,0.1000690234375,0.5644925146484375
-0.29971501953125,0.190262265625,0.752012431640625
-0.19370400390625,0.20374223388671875,0.993355234375
-0.19856689453125,-0.08154291259765625,1.5028293994140625
-0.3777644140625,-0.0210056005859375,1.9127680908203124
-0.30652306640625,0.02482629150390625,1.713451376953125
-0.38335673828125,0.132420947265625,1.3755222998046874
-0.4487626171875,-0.01438816162109375,1.02972869140625
-0.403537734375,0.009140510253906251,1.0019570654296874
-0.53021603515625,0.04320806640625,1.102967138671875
-0.23917203125,0.0152677685546875,0.83311541015625
-0.20683380859375,0.046149150390625,0.6075016699218749
-0.35709712890625,0.09688284912109375,0.456109443359375
-0.330594375,-0.01634888427734375,0.36517580078125
-0.166228671875,-0.1161006494140625,0.36320966796875
-0.1555303125,-0.19869609130859375,0.6234764990234375
-0.29728357421875,-0.20065681396484375,0.8579378369140624
-0.38092529296875,-0.1013952294921875,1.06511908203125
-0.553314765625,0.0123266845703125,1.4010820263671875
-0.564013125,-0.0582593310546875,1.2914701220703124
-0.28853037109375,0.1505576318359375,1.0550426513671876
-0.05413904296875,0.124578056640625,0.9813126708984374
-0.28318119140625,0.07923634521484375,1.13098453125
-0.391866796875,0.132420947265625,0.9972875
-0.2552195703125,0.06796218994140625,0.80952181640625
-0.1988100390625,0.04835496337890625,0.6460870263671875
-0.18349193359375,0.1250682373046875,0.579975810546875
-0.10106593750000001,0.02752228515625,0.7473428662109375
-0.23917203125,-0.01879978759765625,1.1607222900390626
-0.37119951171875,0.1495772705078125,1.5642710498046875
-0.46481015625,0.083402880859375,1.7181209423828125
-0.4939875,-0.0474753564453125,1.4050142919921875
-0.59489248046875,0.0338946337890625,1.0592206835937499
-0.16890326171875,-0.04306373046875,1.0343982568359376
-0.15382830078125,0.064776015625,1.056763017578125
-0.533863203125,-0.00507472900390625,1.111323203125
-0.2795340234375,0.0172284912109375,1.139340595703125
-0.32646091796875,-0.12467881103515625,0.81738634765625
-0.189570546875,-0.116590830078125,0.6898334814453125
-0.1842213671875,-0.1670794384765625,0.725469638671875
-0.28561263671875,-0.0641414990234375,0.8549886376953125
-0.4108320703125,-0.01978014892578125,1.001711298828125
-0.2668905078125,-0.0612004150390625,1.0712632470703125
-0.47137505859375,0.0093856005859375,1.0717547802734375
-0.22434021484375,0.0020328906249999995,1.082322744140625
-0.2133987109375,0.03659062744140625,1.0683140478515625
-0.16695810546875,-0.07075893798828126,1.1582646240234376
-0.26956509765625,-0.015368522949218751,1.3710985009765624
-0.4001337109375,-0.08693489990234375,1.4310655517578126
-0.4356328125,-0.035711020507812496,1.1897227490234374
-0.21607330078125,0.02360083984375,1.04939001953125
-0.3096839453125,-0.07615092529296875,0.8977520263671875
-0.2960678515625,0.02874773681640625,0.94125271484375
-0.220693046875,0.0917359521484375,0.9685328076171875
-0.2095083984375,-0.0023787353515625003,0.94715111328125
-0.36682291015625,0.033404453125,1.0019570654296874
-0.44146828125,0.071638544921875,1.048898486328125
-0.28901666015625,0.01404231689453125,0.9026673583984375
-0.21169669921875,-0.0259074072265625,0.8441749072265625
-0.317950859375,0.0387964404296875,0.93928658203125
-0.3826273046875,-0.07468038330078125,1.0265337255859375
-0.2668905078125,-0.00507472900390625,0.909303056640625
-0.1744955859375,0.03953171142578125,1.0152284619140626
-0.2931501171875,0.1392834765625,1.259274697265625
-0.4667553125,-0.0013983740234375002,1.36397126953125
-0.36730919921875,0.1231075146484375,1.27352916015625
-0.44535859375,0.0348749951171875,1.189968515625
-0.42323244140625,-0.128355166015625,1.111323203125
-0.37946642578125,-0.13252170166015625,1.053813818359375
-0.3359435546875,-0.0866898095703125,0.85474287109375
-0.2775888671875,-0.130315888671875,0.7227662060546876
-0.213885,-0.19845100097656249,0.7242408056640625
-0.19953947265625,-0.15408965087890625,0.8879213623046875
-0.34396732421875,-0.1788437744140625,1.01399962890625
-0.52340798828125,-0.07615092529296875,1.0609410498046874
-0.45581380859375,-0.13203152099609375,0.871455
-0.36147373046875,-0.10850284912109374,0.7252238720703125
-0.27831830078124997,-0.16683434814453124,0.647807392578125
-0.17084841796875,-0.175412509765625,0.6460870263671875
-0.2377131640625,-0.10213050048828125,0.7242408056640625
-0.27151025390625,-0.147962392578125,0.792318154296875
-0.20294349609375,-0.013407800292968751,0.9523122119140625
-0.37168580078125,-0.0621807763671875,1.056763017578125
-0.31478998046875,0.08658905517578125,1.150645859375
-0.35028908203125,0.077520712890625,1.042017021484375
-0.44122513671875,-0.00311400634765625,0.8943112939453125
-0.2231244921875,-0.10556176513671875,0.8616243359375
-0.33326896484375,0.0417375244140625,0.7082659765625
-0.16987583984375,-0.0670825830078125,0.6279002978515625
-0.269321953125,-0.11095375244140625,0.73775796875
-0.36487775390625,0.00963069091796875,0.911269189453125
-0.31770771484375,0.1054610107421875,0.9960586669921875
-0.26640421875,-0.07173929931640625,0.992863701171875
-0.38432931640625,0.11452935302734375,1.068559814453125
-0.35320681640625,0.0740894482421875,1.0621698828125
-0.29631099609375,-0.0700236669921875,0.9223286865234375
-0.22434021484375,0.04394333740234375,0.8554801708984375
-0.24306234375,-0.026397587890625,0.8707177001953125
-0.25059982421875,-0.100905048828125,0.9778719384765625
-0.29242068359375,-0.0612004150390625,1.044966220703125
-0.37265837890625,-0.030319033203124998,1.0896957421875
-0.33326896484375,-0.09134652587890625,1.0936280078125
-0.41934212890625,-0.030073942871093752,1.0506188525390625
-0.30603677734375,-0.09085634521484375,1.05528841796875
-0.1560166015625,-0.06659240234375,1.11230626953125
-0.18081734375,-0.09722869384765626,1.20668064453125
-0.2620276171875,-0.112669384765625,1.292207421875
-0.32475890625,-0.095022880859375,1.1250861328125
-0.3913805078125,-0.15997181884765624,0.9513291455078126
-0.3437241796875,-0.07811164794921875,1.04349162109375
-0.44535859375,-0.1317864306640625,1.0457035205078125
-0.25594900390624997,-0.1151202880859375,0.9756600390625
-0.3111428125,-0.07468038330078125,0.835573076171875
-0.288773515625,-0.12909043701171874,0.8392595751953125
-0.2561921484375,-0.073454931640625,0.835573076171875
-0.31819400390625,-0.02468195556640625,0.8053437841796875
-0.3033621875,0.0731090869140625,0.8535140380859375
-0.27637314453125,0.09100068115234375,0.8176321142578125
-0.3301080859375,-0.0396324658203125,0.8063268505859374
-0.2022140625,0.06404074462890624,0.9213456201171875
-0.317950859375,0.03953171142578125,0.918150654296875
-0.2999581640625,0.04100225341796875,0.89406552734375
-0.2800203125,0.09737302978515625,0.9297016845703125
-0.26275705078125,0.0652661962890625,1.05528841796875
-0.29363640625,0.17090012939453125,1.24993556640625
-0.32451576171875,0.11011772705078125,1.234698037109375
-0.3670660546875,0.13021513427734374,1.1408151953125
-0.29193439453125003,0.157910341796875,0.9646005419921875
-0.31284482421875,-0.0055649096679687505,0.8183694140625
-0.347128203125,-0.0210056005859375,0.744147900390625
-0.255705859375,-0.07958218994140626,0.657638056640625
-0.1754681640625,-0.1523740185546875,0.6524769580078125
-0.2668905078125,-0.04575972412109375,0.7539785644531249
-0.21753216796875,0.0255615625,0.834590009765625
-0.314060546875,-0.014633251953124999,0.94911724609375
-0.4302836328125,0.009140510253906251,1.0098215966796875
-0.29776986328125,-0.08203309326171875,0.7635634619140625
-0.09425789062500001,-0.22173458251953124,0.626179931640625
0.005188222656249998,-0.0376717431640625,0.581941943359375
-0.07942607421875,-0.19722554931640626,0.52246642578125
-0.0772377734375,-0.1896277490234375,0.5649840478515625
-0.04392697265625,-0.0729647509765625,0.6451039599609375
-0.24379177734375002,-0.1268846240234375,0.5816961767578125
-0.063135390625,-0.014633251953124999,0.6915538476562499
-0.1477496875,0.0064445166015625,0.7611057958984375
-0.26761994140625,0.116735166015625,0.8328696435546875
-0.32354318359375,0.1789881103515625,0.85277673828125
-0.1944334375,-0.0631611376953125,1.0334151904296875
0.025612363281249998,0.2427115966796875,1.3234197802734375
-0.0840458203125,0.44197003662109374,1.7613758642578126
-0.23017568359375,0.7081381372070312,2.129718558349609
-0.4147223828125,0.7066675952148438,2.129718558349609
-0.611669453125,0.5733384545898438,1.7525282666015625
-0.74223806640625,0.4240784423828125,1.37773419921875
-0.766309375,0.22678072509765626,1.0245675927734375
-0.1827625,-0.063651318359375,0.716622041015625
-0.03420119140625,-0.1562954638671875,0.419735986328125
-0.038091503906250004,-0.1352176953125,0.34674330566406253
-0.18446451171875,-0.247959248046875,0.663536455078125
-0.34202216796875,-0.3160943603515625,1.113780869140625
-0.71695103515625,-0.38055311767578126,1.7188582421875
-0.97833140625,-0.15016820556640625,2.0607195849609377
-0.4643238671875,0.03266918212890625,1.6212889013671874
-0.48110083984375,-0.01144707763671875,1.1801378515625
-0.34639876953125,-0.280311171875,0.7964961865234375
-0.310170234375,-0.3798178466796875,0.7173593408203125
-0.25351755859375,-0.2781053588867187,0.5001016650390625
-0.1633109375,-0.23251855712890626,0.37254879882812497
-0.16112263671875,-0.257762861328125,0.4312870166015625
-0.2698082421875,-0.2798209912109375,0.66402798828125
-0.42517759765625,-0.1038461328125,0.90782845703125
-0.4584883984375,-0.21046042724609376,1.1115689697265625
-0.57981751953125,-0.02149578125,1.3946920947265624
-0.48450486328125,0.05913893798828125,1.27746142578125
-0.22336763671875,-0.07762146728515625,1.251410166015625
-0.34250845703125,0.0456589697265625,1.2516559326171874
-0.3874901953125,0.06158984130859375,1.252393232421875
-0.245980078125,0.06551128662109375,1.099034873046875
-0.2255559375,0.15717507080078125,0.9872110693359375
-0.32013916015625,0.11501953369140624,0.6849181494140625
-0.19637859375,-0.02076051025390625,0.501330498046875
-0.20634751953125,-0.0347306591796875,0.384345595703125
-0.1774133203125,0.0005623486328125002,0.2946407861328125
-0.07869664062500001,0.004973974609375,0.3560824365234375
-0.2561921484375,0.05619785400390625,0.3936847265625
-0.3349709765625,0.06281529296875,0.35706550292968753
-0.30652306640625,0.04198261474609375,0.39663392578125
-0.25983931640625,0.07580508056640625,0.4421007470703125
-0.36633662109375,0.07482471923828125,0.5207460595703125
-0.26032560546875,0.05031568603515625,0.751029365234375
0.0623271875,-0.0180645166015625,1.204222978515625
0.135270546875,-0.09134652587890625,1.8601740380859375
0.004458789062499999,0.25496611328125,2.129718558349609
-0.35977171875,-0.1808044970703125,2.129718558349609
-0.47721052734375,0.28511222412109377,1.793079755859375
-0.80885966796875,0.26084828125,1.66478958984375
-0.99219064453125,0.2819260498046875,1.812741083984375
-0.455084375,0.5218694848632812,1.500125966796875
-0.20683380859375,0.06845237060546874,0.8589209033203125
-0.27807515625,-0.13497260498046876,0.5379497216796875
-0.4730770703125,-0.2504101513671875,0.5202545263671875
-0.386031328125,-0.2062938916015625,0.4268632177734375
-0.27880458984375,-0.2582530419921875,0.3029968505859375
-0.117599765625,-0.30187912109375,0.721537373046875
-0.06021765625,-0.5006473803710938,1.260257763671875
-0.384086171875,-0.63128052734375,1.4561337451171874
-0.7103861328125,-0.37908257568359377,1.2147909423828125
-0.61628919921875,-0.34771101318359376,0.8982435595703124
-0.4507077734375,-0.26094903564453126,0.7357918359375
-0.08963814453125,-0.144040947265625,0.5600687158203125
-0.2182616015625,-0.2308029248046875,0.5846453759765625
-0.220693046875,-0.0504164404296875,0.749554765625
-0.27005138671875,-0.11830646240234374,0.8603955029296875
-0.38189787109375,-0.13717841796875,0.9169218212890625
-0.17303671874999998,-0.1161006494140625,0.90782845703125
-0.12221951171875,-0.050661530761718754,0.9080742236328125
-0.17960162109375,-0.155805283203125,1.0781447119140626
-0.26810623046875,-0.07124911865234375,1.2378930029296875
-0.40232201171875,-0.1474722119140625,1.139340595703125
-0.39745912109375,-0.10065995849609374,0.9127437890625
-0.38432931640625,-0.154824921875,0.8144371484375
-0.40572603515625,-0.0582593310546875,0.8707177001953125
-0.37411724609375,0.04933532470703125,0.980083837890625
-0.2921775390625,-0.0249270458984375,1.0658563818359374
-0.3884627734375,-0.126394443359375,1.087729609375
-0.2834243359375,-0.022476142578125,1.05135615234375
-0.27734572265625,-0.0425735498046875,0.8559717041015625
-0.1443456640625,-0.09918941650390625,0.7935469873046875
-0.24281919921875,-0.0347306591796875,0.8891501953125
-0.46894361328125,-0.07664110595703125,0.97074470703125
-0.35612455078125,-0.0308092138671875,0.9193794873046874
-0.34591248046875,-0.0386521044921875,0.7950215869140624
-0.263486484375,-0.03203466552734375,0.7394783349609375
-0.35174794921875,-0.008751083984375,0.7203085400390625
-0.397702265625,-0.1327667919921875,0.7797840576171875
-0.372415234375,-0.04379900146484375,0.7296476708984375
-0.3505322265625,-0.0798272802734375,0.655671923828125
-0.21583015625000002,-0.23791054443359375,0.6534600244140625
-0.2921775390625,-0.173451787109375,0.7827332568359375
-0.17473873046875,-0.09526797119140624,0.8485987060546875
-0.29533841796875,-0.06095532470703125,0.9862280029296875
-0.2503566796875,-0.0612004150390625,1.13196759765625
-0.31576255859375,0.024091020507812498,1.158018857421875
-0.247925234375,-0.1013952294921875,1.1051790380859374
-0.12635296875,0.05962911865234375,1.12213693359375
-0.4263933203125,-0.0724745703125,1.0791277783203126
-0.4511940625,-0.1474722119140625,0.977626171875
-0.3933256640625,-0.14967802490234375,0.8365561425781249
-0.28464005859375,-0.08644471923828125,0.75643623046875
-0.2255559375,-0.2111956982421875,0.7397241015625
-0.4283384765625,-0.16585398681640626,0.7404614013671875
-0.2571647265625,0.011346323242187501,0.8269712451171874
-0.31673513671875,-0.1719812451171875,0.8112421826171875
-0.34007701171875,0.11060790771484375,0.94223578125
-0.26664736328125,-0.006790361328125,0.9832788037109375
-0.213885,-0.1102184814453125,0.9798380712890625
-0.24865466796875,0.03953171142578125,1.03562708984375
-0.44146828125,0.0005623486328125002,1.0815854443359374
-0.18835482421875,-0.037916833496093746,0.9985163330078125
-0.51854509765625,-0.013162709960937501,0.944693447265625
-0.4088869140625,0.07580508056640625,0.954032578125
-0.349073359375,-0.16683434814453124,0.9129895556640625
-0.30530734375,0.083402880859375,1.0334151904296875
-0.2980130078125,-0.04036773681640625,0.9837703369140625
-0.3077387890625,-0.0798272802734375,1.1145181689453125
-0.33035123046875,0.07678544189453125,1.0599579833984376
-0.47088876953125003,-0.0925719775390625,0.891607861328125
-0.1647698046875,0.024091020507812498,0.777080625
-0.11443888671875,-0.09673851318359375,0.680248583984375
-0.17084841796875,-0.14624676025390626,0.8299204443359375
-0.31235853515625,-0.106787216796875,1.0068723974609375
-0.19248828125,-0.04379900146484375,1.0707717138671875
-0.27199654296875,0.07065818359375,1.0661021484375
-0.32111173828125,0.10595119140625,1.2034856787109376
-0.56182482421875,0.01992448486328125,1.17817171875
-0.4526529296875,-0.0001729223632812504,1.1238572998046874
-0.38919220703125,0.1314405859375,0.9284728515625
-0.2474389453125,-0.01046671630859375,0.7955131201171874
-0.03760521484375,0.019679394531249998,0.9203625537109374
-0.197351171875,0.1485969091796875,1.0756870458984376
-0.3913805078125,0.04492369873046875,1.137374462890625
-0.39600025390625,-0.01830960693359375,0.9936010009765625
-0.36730919921875,-0.065612041015625,0.7004014453125
-0.19905318359375002,-0.0857094482421875,0.5286105908203125
-0.07869664062500001,-0.10115013916015625,0.4942032666015625
-0.21583015625000002,-0.01879978759765625,0.634044462890625
-0.37217208984375,0.038306259765625,0.8200897802734375
-0.46164927734375,0.09933375244140626,0.9614055761718749
-0.446331171875,0.13560712158203125,0.9459222802734375
-0.28512634765625,0.03217900146484375,0.965337841796875
-0.207076953125,0.09100068115234375,1.0280083251953125
-0.170118984375,-0.08399381591796876,1.029237158203125
-0.19127255859375,-0.03350520751953125,1.268122294921875
-0.33642984375,0.02090484619140625,1.310394150390625
-0.2843969140625,0.1191860693359375,1.2147909423828125
-0.3680386328125,0.11501953369140624,1.0982975732421876
-0.352963671875,0.1378129345703125,1.022355693359375
-0.28366748046875,0.13315621826171875,1.052830751953125
-0.36001486328125,0.08217742919921875,1.1449932275390624
-0.288773515625,0.06600146728515625,1.077407412109375
-0.1827625,-0.060710234375,0.9518206787109375
-0.3505322265625,0.04051207275390625,0.978117705078125
-0.35612455078125,-0.1038461328125,1.002694365234375
-0.333512109375,-0.08423890625,1.05725455078125
-0.2814791796875,0.097127939453125,1.1179589013671876
-0.38432931640625,-0.06389640869140625,1.0621698828125
-0.23552486328125,-0.0455146337890625,1.166374921875
-0.22385392578125,0.0691876416015625,1.166374921875
-0.43782111328125,0.03512008544921875,1.0464408203125
-0.24914095703125,0.05864875732421875,1.0019570654296874
-0.24136033203125,0.0427178857421875,0.969761640625
-0.4536255078125,0.0201695751953125,1.0211268603515624
-0.45289607421875,0.09786321044921875,1.0071181640625
-0.27807515625,-0.069533486328125,0.8026403515625
-0.279047734375,0.04198261474609375,0.7655295947265625
-0.27029453125,-0.0092412646484375,0.8107506494140625
-0.1978374609375,-0.01781942626953125,0.81640328125
-0.1628246484375,0.15619470947265626,0.911269189453125
-0.39891798828125,0.1887917236328125,1.0334151904296875
-0.361716875,0.13560712158203125,1.089204208984375
-0.31284482421875,0.075559990234375,1.131476064453125
-0.366579765625,0.075559990234375,1.0395593554687501
-0.15188314453125001,-0.01585870361328125,0.8805483642578125
-0.226528515625,0.0358553564453125,0.8363103759765624
-0.29047552734375,0.13217585693359374,0.974185439453125
-0.30360533203125,0.110852998046875,1.0815854443359374
-0.35612455078125,0.21648693115234374,1.06708521484375
-0.3573402734375,0.1510478125,1.0543053515625
-0.2367405859375,0.077520712890625,0.9609140429687499
-0.28561263671875,0.09026541015625,0.9704989404296875
-0.2600824609375,0.09786321044921875,0.9483799462890625
-0.3592854296875,0.09492212646484376,0.9331424169921875
-0.36244630859375,0.103010107421875,0.9749227392578125
-0.33083751953125,0.12629368896484375,0.8599039697265625
-0.32694720703125,0.00791505859375,0.7129355419921874
-0.1958923046875,-0.00850599365234375,0.6910623144531249
-0.1482359765625,0.0152677685546875,0.7085117431640625
-0.19662173828125,0.08953013916015624,0.87047193359375
-0.30627992187499997,0.02286556884765625,1.0663479150390625
-0.31430369140625003,0.11943115966796874,1.1233657666015624
-0.3194097265625,0.14246965087890626,1.0835515771484374
-0.33910443359375,0.11894097900390625,1.17129025390625
-0.38578818359375,0.150067451171875,1.151137392578125
-0.3038484765625,0.11550971435546875,1.0923991748046875
-0.3505322265625,0.04639424072265625,0.93535431640625
-0.2795340234375,0.06355056396484375,0.7930554541015625
-0.09839134765625,0.017718671875,0.6947488134765625
-0.189570546875,-0.04698517578125,0.6510023583984375
-0.33108066406250003,0.05227640869140625,0.780521357421875
-0.21972046875,0.07065818359375,0.897506259765625
-0.32475890625,0.03413972412109375,0.8397511083984375
-0.2513292578125,0.15717507080078125,0.903404658203125
-0.23503857421875,0.11649007568359375,0.8908705615234375
-0.30846822265625,0.0809519775390625,0.9582106103515625
-0.3135742578125,0.11649007568359375,1.0648733154296874
-0.2746711328125,0.0907555908203125,1.14671359375
-0.28512634765625,0.14786163818359374,1.2290454052734374
-0.339347578125,0.253005390625,1.2575543310546875
