ax,ay,az
-0.251815546875,0.0936966748046875,0.9749227392578125
-0.247925234375,0.05497240234375,0.9513291455078126
-0.216802734375,0.0946770361328125,0.983033037109375
-0.302389609375,0.06649164794921875,1.013508095703125
-0.224583359375,0.10472573974609375,1.030220224609375
-0.1735230078125,0.08658905517578125,1.005643564453125
-0.20488865234375,0.12531332763671876,1.028254091796875
-0.2552195703125,0.08119706787109375,1.009084296875
-0.247925234375,0.06796218994140625,1.03169482421875
-0.27418484375,0.106931552734375,0.980083837890625
-0.27442798828125,0.09418685546875,0.943710380859375
-0.2834243359375,0.03315936279296875,0.9397781152343749
-0.25011353515625,0.08756941650390625,0.9419900146484375
-0.24330548828125,0.09100068115234375,0.9626344091796875
-0.23163455078125,0.12825441162109374,0.9891772021484375
-0.22701480468750002,0.07874616455078125,1.0039231982421875
-0.23212083984375,0.0686974609375,1.0157199951171876
-0.220693046875,0.05962911865234375,1.045949287109375
-0.24087404296875,0.04002189208984375,1.0034316650390624
-0.23114826171875,0.081442158203125,0.9970417333984375
-0.29144810546875,0.061834931640625,0.9759058056640625
-0.28391062499999997,0.03708080810546875,0.9621428759765625
-0.29679728515625,0.0985984814453125,1.0142453955078126
-0.25838044921875,0.04541387939453125,0.9921264013671875
-0.27540056640625,0.07237381591796875,0.953541044921875
-0.26032560546875,0.06011929931640625,0.9815584374999999
-0.1735230078125,0.02360083984375,0.9756600390625
-0.300444453125,0.01306195556640625,1.0034316650390624
-0.22190876953125,0.0495804150390625,1.0267794921875
-0.220693046875,0.04198261474609375,0.9424815478515625
-0.24306234375,0.04394333740234375,0.9407611816406249
-0.2600824609375,0.069677822265625,0.95698177734375
-0.28026345703125,0.06600146728515625,0.9827872705078124
-0.27345541015625,0.09394176513671874,1.0747039794921875
-0.28172232421875,0.1074217333984375,1.045949287109375
-0.28974609375,0.116735166015625,1.0395593554687501
-0.2882872265625,0.08242251953125,0.936828916015625
-0.19127255859375,0.0255615625,0.9370746826171875
-0.2668905078125,0.077520712890625,0.9223286865234375
-0.2240970703125,0.04100225341796875,0.9316678173828125
-0.31138595703125,0.03217900146484375,0.9547698779296875
-0.234309140625,0.063795654296875,1.0147369287109376
-0.28609892578125,0.05497240234375,0.9926179345703126
-0.2523018359375,0.07727562255859374,1.0071181640625
-0.30506419921875,0.0711483642578125,1.009084296875
-0.29631099609375,0.0584036669921875,0.9965502001953125
-0.3408064453125,0.0721287255859375,0.9999909326171875
-0.28074974609375003,0.049090234375,0.9660751416015625
-0.23260712890625002,0.03021827880859375,0.891607861328125
-0.18106048828125,0.044188427734375,0.947642646484375
-0.21801845703125,0.04712951171875,0.9609140429687499
-0.25108611328125,0.02923791748046875,1.0162115283203126
-0.25157240234375,0.030463369140625002,1.061678349609375
-0.2921775390625,0.0799716162109375,1.0071181640625
-0.22142248046875002,0.01208159423828125,0.9724650732421874
-0.249870390625,0.07923634521484375,0.91765912109375
-0.263486484375,0.0231106591796875,0.912252255859375
-0.26859251953125,0.0231106591796875,0.936828916015625
-0.20342978515625,0.05472731201171875,0.91372685546875
-0.26081189453125,0.03266918212890625,0.876861865234375
-0.191515703125,0.0436982470703125,0.9242948193359375
-0.253760703125,0.03168882080078125,0.9729566064453125
-0.23066197265625,0.0368357177734375,0.9714820068359376
-0.2367405859375,0.1000690234375,0.9704989404296875
-0.27515742187500003,0.05717821533203125,1.0009739990234374
-0.247925234375,0.04737460205078125,1.0078554638671875
-0.23990146484375,0.0995788427734375,1.0346440234375
-0.29363640625,0.05178622802734375,1.0108046630859375
-0.26907880859375,0.0299731884765625,0.9744312060546875
-0.2843969140625,0.04639424072265625,0.9638632421875
-0.22190876953125,0.0191892138671875,0.92552365234375
-0.26518849609375,0.0020328906249999995,0.93732044921875
-0.2639727734375,0.0338946337890625,0.931913583984375
-0.19467658203125,0.03266918212890625,0.9065996240234375
-0.27588685546875,0.016738310546875,0.9631259423828125
-0.252788125,0.03364954345703125,1.0599579833984376
-0.26421591796875,0.0133070458984375,1.0535680517578125
-0.30555048828125,-0.022476142578125,0.9513291455078126
-0.24768208984375,0.021885207519531248,0.903404658203125
-0.2688356640625,0.0044837939453125,0.8471241064453126
-0.271267109375,0.0133070458984375,0.897506259765625
-0.30020130859375,0.01992448486328125,0.8952943603515625
-0.25935302734375,0.01796376220703125,0.9206083203125
-0.271267109375,0.056933125,0.9439561474609375
-0.2931501171875,-0.03105430419921875,0.9370746826171875
-0.2649453515625,-0.0033590966796874996,0.9695158740234375
-0.27880458984375,0.03512008544921875,1.006626630859375
-0.2902323828125,-0.0337502978515625,1.0078554638671875
-0.3077387890625,0.03757098876953125,0.951574912109375
-0.268349375,0.014777587890624999,0.9297016845703125
-0.2503566796875,0.01110123291015625,0.917167587890625
-0.263486484375,0.0358553564453125,0.9552614111328125
-0.2581373046875,-0.0016434643554687498,0.9559987109375
-0.20440236328125,0.0319339111328125,0.9675497412109375
-0.24816837890625,0.03413972412109375,1.000728232421875
-0.27029453125,-0.0268877685546875,1.031203291015625
-0.26956509765625,0.0123266845703125,1.0516019189453125
-0.25838044921875,0.00423870361328125,1.003677431640625
-0.29533841796875,0.04320806640625,0.97860923828125
-0.26859251953125,-0.0121823486328125,0.9520664453125
-0.2960678515625,0.00178780029296875,0.9267524853515625
-0.27588685546875,-0.02272123291015625,0.949608779296875
-0.25740787109375,-0.01879978759765625,0.934862783203125
-0.23503857421875,-0.03546593017578125,0.9208540869140625
-0.21558701171875,-0.0259074072265625,0.866048134765625
-0.22288134765625,-0.04183827880859375,0.91765912109375
-0.26081189453125,0.00717978759765625,1.0167030615234376
-0.2396583203125,-0.02223105224609375,1.048898486328125
-0.3164919921875,0.0142874072265625,1.037101689453125
-0.27588685546875,0.010611052246093749,0.954524111328125
-0.26470220703125,-0.00801581298828125,0.9395323486328125
-0.26761994140625,0.0044837939453125,0.97074470703125
-0.228473671875,0.01575794921875,0.974185439453125
-0.28464005859375,-0.010221625976562499,0.954032578125
-0.2289599609375,0.026541923828125,0.969270107421875
-0.3164919921875,0.0299731884765625,0.9464138134765625
-0.27394169921875,0.044188427734375,0.97860923828125
-0.23503857421875,0.0397768017578125,0.9717277734375
-0.2746711328125,-0.01830960693359375,1.01989802734375
-0.24962724609375,0.0319339111328125,1.030220224609375
-0.29874244140625,0.03168882080078125,0.9926179345703126
-0.300444453125,-0.0455146337890625,0.989914501953125
-0.2873146484375,0.02727719482421875,0.950591845703125
-0.3135742578125,-0.011201987304687501,0.903404658203125
-0.2785614453125,0.0003172583007812497,0.90782845703125
-0.30214646484375,0.0309535498046875,0.886692529296875
-0.22531279296875,0.02090484619140625,0.9228202197265625
-0.20342978515625,0.02678701416015625,0.9999909326171875
-0.3145468359375,-0.015368522949218751,1.06118681640625
-0.19953947265625,0.01894412353515625,1.085271943359375
-0.265431640625,0.00668960693359375,1.0103131298828125
-0.26178447265625,-0.02468195556640625,1.0395593554687501
-0.29631099609375,0.00227798095703125,1.006626630859375
-0.3019033203125,-0.018554697265625,0.955507177734375
-0.2843969140625,0.009140510253906251,0.9228202197265625
-0.25449013671875,-0.01561361328125,0.8810398974609375
-0.27005138671875,-0.04134809814453125,0.935845849609375
-0.2766162890625,0.00668960693359375,0.9916348681640625
-0.23503857421875,0.0020328906249999995,0.9724650732421874
-0.2902323828125,-0.0121823486328125,0.9680412744140625
-0.2435486328125,0.01404231689453125,0.96877857421875
-0.2279873828125,0.046149150390625,1.00416896484375
-0.27248283203125,0.030463369140625002,1.043983154296875
-0.26761994140625,-0.0072805419921875,1.035135556640625
-0.27418484375,0.00178780029296875,1.0216183935546874
-0.3242726171875,0.01747358154296875,1.050864619140625
-0.234309140625,0.0270321044921875,1.00810123046875
-0.31284482421875,-0.018554697265625,0.95698177734375
-0.25473328125,0.01894412353515625,1.013508095703125
-0.34931650390625,0.06281529296875,1.0053977978515625
-0.2561921484375,-0.0011532836914062497,1.0009739990234374
-0.26567478515625,0.04492369873046875,0.9596852099609375
-0.28512634765625,0.00276816162109375,0.963371708984375
-0.2406308984375,-0.01732924560546875,0.9960586669921875
-0.2386857421875,-0.01095689697265625,0.96681244140625
-0.280992890625,-0.03154448486328125,0.9980247998046875
-0.27734572265625,-0.048945898437499996,0.9783634716796875
-0.33181009765625,-0.00997653564453125,0.9677955078125
-0.2464663671875,-0.0210056005859375,0.97369390625
-0.26956509765625,0.028502646484374998,0.958456376953125
-0.24184662109375,-0.03399538818359375,1.0049062646484375
-0.2698082421875,0.0064445166015625,1.0378389892578126
-0.27685943359375,0.0294830078125,0.96877857421875
-0.27418484375,-0.03889719482421875,0.9596852099609375
-0.2075632421875,0.01845394287109375,0.9778719384765625
-0.25254498046875,-0.011201987304687501,0.9874568359375
-0.29509527343749997,-0.034240478515625,1.0270252587890625
-0.28974609375,-0.0018885546875000003,1.031203291015625
-0.23260712890625002,-0.00458454833984375,1.0329236572265625
-0.3116291015625,0.01845394287109375,0.9813126708984374
-0.2800203125,-0.038161923828125,0.9537868115234375
-0.26275705078125,-0.00360418701171875,0.95894791015625
-0.2416034765625,0.0152677685546875,0.99040603515625
-0.28707150390625,-0.008751083984375,0.9759058056640625
-0.2396583203125,-0.02076051025390625,0.9975332666015625
-0.27394169921875,-0.0055649096679687505,1.0304659912109375
-0.2177753125,-0.0053198193359375,1.0486527197265625
-0.26518849609375,-0.01953505859375,1.0142453955078126
-0.28415376953125,-0.07909200927734375,1.023338759765625
-0.32013916015625,-0.00801581298828125,1.00515203125
-0.24573693359375,0.00521906494140625,0.98254150390625
-0.33132380859375,-0.00948635498046875,0.9567360107421875
-0.2668905078125,0.0221302978515625,0.97860923828125
-0.2989855859375,0.00227798095703125,0.9665666748046875
-0.26129818359375,-0.03497574951171875,1.009575830078125
-0.25400384765625,-0.0210056005859375,1.04152548828125
-0.29096181640625,-0.010711806640625,1.0368559228515626
-0.3033621875,-0.08154291259765625,1.0127707958984375
-0.3019033203125,-0.063651318359375,0.98942296875
-0.28026345703125,-0.0435539111328125,1.0053977978515625
-0.27248283203125,-0.0847290869140625,1.005643564453125
-0.29631099609375,-0.0464949951171875,0.941744248046875
-0.2177753125,-0.055073156738281254,0.9120064892578125
-0.26956509765625,-0.03350520751953125,0.9636174755859375
-0.3242726171875,-0.05115171142578125,0.954032578125
-0.23357970703125,-0.04870080810546875,1.0034316650390624
-0.3369161328125,-0.0151234326171875,1.0181776611328126
-0.24962724609375,-0.00262382568359375,1.071509013671875
-0.3524773828125,-0.01193725830078125,1.06020375
-0.3690112109375,0.00791505859375,1.076424345703125
-0.257651015625,0.08854977783203125,1.0378389892578126
-0.23649744140625,-0.03595611083984375,0.964354775390625
-0.2717533984375,-0.02223105224609375,0.9992536328125
-0.23819945312500002,-0.0739451123046875,1.035135556640625
-0.30141703125,-0.089140712890625,1.0034316650390624
-0.302389609375,-0.073454931640625,0.942727314453125
-0.337402421875,-0.06487677001953125,0.916184521484375
-0.3126016796875,-0.063651318359375,0.8987350927734374
-0.2746711328125,-0.07419020263671874,0.9097945898437501
-0.2309051171875,-0.1131595654296875,0.92355751953125
-0.19078626953125,-0.08987598388671875,0.9464138134765625
-0.22093619140625,-0.035711020507812496,0.954524111328125
-0.30457791015625,-0.083258544921875,1.0034316650390624
-0.30798193359375,-0.0151234326171875,0.9916348681640625
-0.2532744140625,-0.0038492773437499997,0.92159138671875
-0.2649453515625,-0.0543378857421875,0.8313950439453125
-0.20342978515625,-0.05360261474609375,0.854251337890625
-0.237226875,-0.04870080810546875,0.93732044921875
-0.29387955078125,-0.0945327001953125,0.9537868115234375
-0.23503857421875,-0.047965537109375,0.981066904296875
-0.304334765625,-0.07222947998046875,0.996795966796875
-0.25084296875,-0.11364974609375,1.0280083251953125
-0.286828359375,-0.04183827880859375,1.014491162109375
-0.2717533984375,-0.0523771630859375,0.977134638671875
-0.25157240234375,-0.011201987304687501,0.9616513427734374
-0.20342978515625,-0.09722869384765626,0.9685328076171875
-0.2999581640625,-0.02909358154296875,1.036118623046875
-0.22968939453125,-0.0254172265625,0.965829375
-0.1686601171875,-0.045024453125,0.971236240234375
-0.2805066015625,0.087324326171875,1.06020375
-0.3359435546875,0.0074248779296875,1.0189149609375
-0.19419029296875,-0.0533575244140625,1.003677431640625
-0.33035123046875,0.11967625,1.0702801806640625
-0.207076953125,-0.038161923828125,1.0702801806640625
-0.372415234375,-0.0072805419921875,0.969270107421875
-0.26859251953125,-0.025662316894531252,0.887675595703125
-0.26227076171875,-0.14232531494140624,0.8943112939453125
-0.39867484375,-0.10752248779296875,0.9604225097656249
-0.2853694921875,-0.177373232421875,0.876861865234375
-0.27685943359375,-0.09722869384765626,0.7802755908203125
-0.30020130859375,-0.04821062744140625,0.699909912109375
-0.17303671874999998,-0.03522083984375,0.6699263867187499
-0.2036729296875,0.01649322021484375,0.7952673535156249
-0.27734572265625,0.0456589697265625,0.9407611816406249
-0.25059982421875,0.06673673828125,1.06905134765625
-0.347128203125,0.08658905517578125,1.152120458984375
-0.321841171875,0.09418685546875,1.0938737744140625
-0.2878009375,0.0309535498046875,1.0963314404296876
-0.36779548828124997,-0.038161923828125,1.128526865234375
-0.411318359375,-0.12663953369140624,1.168832587890625
-0.3923530859375,-0.11389483642578124,1.056763017578125
-0.2255559375,-0.140119501953125,0.937811982421875
-0.267376796875,-0.142080224609375,0.8159117480468749
-0.22823052734375,-0.07664110595703125,0.7736398925781249
-0.1555303125,0.0037485229492187503,0.900455458984375
-0.2221519140625,-0.0028689160156250004,0.999745166015625
-0.16695810546875,0.0035034326171875,1.09657720703125
-0.265431640625,0.04590406005859375,1.252393232421875
-0.5197608203125,0.0123266845703125,1.1857904833984374
-0.237226875,-0.091101435546875,1.0914161083984375
-0.39648654296875,0.0280124658203125,1.0565172509765626
-0.42615017578125003,-0.01953505859375,0.9572275439453125
-0.28561263671875,-0.12860025634765626,0.9070911572265625
-0.40086314453125,0.02531647216796875,0.8368019091796874
-0.2333365625,-0.048945898437499996,0.8078014501953125
-0.1910294140625,-0.14575657958984375,0.7434106005859376
-0.2999581640625,-0.03889719482421875,0.8092760498046875
-0.1005796484375,-0.1190417333984375,0.899472392578125
-0.18981369140625,-0.12933552734375,1.038084755859375
-0.26081189453125,-0.1151202880859375,1.0560257177734376
-0.30117388671875,-0.028113220214843748,1.1066536376953124
-0.39891798828125,-0.08007237060546875,1.11623853515625
-0.39818855468750003,-0.0602200537109375,1.16735798828125
-0.3573402734375,-0.08007237060546875,1.2084010107421874
-0.41034578125,-0.03350520751953125,1.12803533203125
-0.27053767578125,-0.01438816162109375,1.005643564453125
-0.280992890625,-0.0376717431640625,0.9356000830078125
-0.26129818359375,-0.0018885546875000003,1.01989802734375
-0.36876806640625,-0.06928839599609375,1.0530765185546875
-0.19175884765625,-0.09624833251953124,1.047915419921875
-0.21193984375,-0.0759058349609375,0.907336923828125
-0.0937716015625,-0.21928367919921876,0.8859552294921875
-0.27442798828125,-0.21193096923828125,0.881777197265625
-0.26227076171875,-0.16340308349609375,1.0206353271484374
-0.34810078125,-0.1406096826171875,1.1051790380859374
-0.3942982421875,-0.046004814453125,1.1565442578125
-0.4263933203125,0.004973974609375,1.22634197265625
-0.44560173828125,-0.00581,1.25976623046875
-0.40378087890625003,0.11771552734375,1.18603625
-0.38189787109375,0.0907555908203125,1.0530765185546875
-0.2454937890625,-0.0960032421875,1.02776255859375
-0.2659179296875,-0.179333955078125,0.9444476806640625
-0.1851939453125,-0.1935491943359375,0.818860947265625
-0.162338359375,-0.22737166015625,0.7640549951171876
-0.2843969140625,-0.212666240234375,0.781012890625
-0.32646091796875,-0.010221625976562499,0.8967689599609375
-0.31989601562500003,-0.036201201171875,1.0621698828125
-0.42931105468749997,-0.0298288525390625,1.1754682861328125
-0.47380650390625,0.0387964404296875,1.0914161083984375
-0.35199109375,-0.05017135009765625,1.0206353271484374
-0.38092529296875,-0.0406128271484375,1.0427543212890624
-0.434660234375,-0.09012107421875,1.0402966552734374
-0.3019033203125,-0.18252012939453124,1.0373474560546876
-0.3388612890625,-0.1827652197265625,1.00613509765625
-0.269321953125,-0.1259042626953125,0.9835245703125
-0.20634751953125,-0.10262068115234375,1.0112961962890625
-0.22944625,-0.11389483642578124,1.0152284619140626
-0.15723232421875,-0.1004148681640625,1.0643817822265624
-0.2347954296875,-0.10948321044921874,1.11230626953125
-0.3806821484375,-0.07443529296875,1.16539185546875
-0.3233000390625,-0.1111988427734375,1.1091113037109375
-0.4545980859375,-0.16536380615234375,1.048898486328125
-0.46310814453125,-0.083258544921875,1.0776531787109376
-0.41739697265625,-0.0229663232421875,1.0584833837890626
-0.34226531250000003,-0.12418863037109375,0.9498545458984375
-0.27540056640625,-0.07419020263671874,0.861132802734375
-0.27102396484375,-0.10065995849609374,0.818860947265625
-0.21607330078125,-0.2607039453125,0.8304119775390625
-0.1939471484375,-0.19575500732421874,0.8918536279296875
-0.18640966796875,-0.12369844970703125,0.95304951171875
-0.1608794921875,-0.16291290283203125,0.9198710205078124
-0.25740787109375,-0.0406128271484375,0.8869382958984375
-0.2523018359375,-0.146001669921875,0.903404658203125
-0.38870591796875,-0.130315888671875,0.9520664453125
-0.40621232421875,-0.10850284912109374,1.0402966552734374
-0.3427516015625,-0.22369530517578126,1.0346440234375
-0.3972159765625,-0.2092349755859375,1.04152548828125
-0.42274615234375,-0.20212735595703124,1.004660498046875
-0.259596171875,-0.16389326416015626,0.926015185546875
-0.27442798828125,-0.09845414550781251,0.863098935546875
-0.18495080078125,-0.08987598388671875,0.884726396484375
-0.144831953125,-0.1033559521484375,0.894557060546875
-0.12513724609375,-0.2136466015625,0.94321884765625
-0.2425760546875,-0.22516584716796875,1.009575830078125
-0.3889490625,-0.19477464599609376,1.005643564453125
-0.31478998046875,-0.2111956982421875,0.9282270849609375
-0.315033125,-0.12369844970703125,0.9400238818359374
-0.47429279296875,-0.12149263671875,0.950591845703125
-0.360744296875,-0.114630107421875,0.998762099609375
-0.42371873046874997,-0.13840386962890625,0.9326508837890625
-0.35344996093750003,-0.1288453466796875,0.891116328125
-0.26421591796875,-0.1116890234375,0.866048134765625
-0.284883203125,-0.16340308349609375,0.878827998046875
-0.218747890625,-0.187176845703125,0.9070911572265625
-0.15869119140625,-0.1837455810546875,0.910286123046875
-0.259596171875,-0.20408807861328124,0.9763973388671875
-0.333512109375,-0.2013920849609375,1.0700344140625
-0.4225030078125,-0.1038461328125,1.150645859375
-0.54383212890625,-0.08742508056640624,1.0179318945312499
-0.38773333984375,-0.0670825830078125,0.8299204443359375
-0.3077387890625,-0.20114699462890626,0.6244595654296875
-0.3038484765625,-0.22124440185546876,0.617332333984375
-0.3203823046875,-0.20898988525390624,0.6706636865234374
-0.39891798828125,-0.238155634765625,0.78789435546875
-0.3223274609375,-0.18840229736328126,0.8594124365234375
-0.222638203125,-0.15752091552734376,0.7222746728515625
-0.22531279296875,-0.15408965087890625,0.8309035107421875
-0.28464005859375,-0.17614778076171875,0.89406552734375
-0.3485870703125,-0.2209993115234375,0.9614055761718749
-0.38457246093749997,-0.100905048828125,0.9400238818359374
-0.255705859375,-0.147962392578125,0.8333611767578125
-0.31381740234375,-0.1455114892578125,0.8073099169921875
-0.3631757421875,-0.07517056396484376,0.9139726220703125
-0.32281375,-0.06438658935546875,1.0240760595703124
-0.3816547265625,-0.05409279541015625,1.1435186279296874
-0.41302037109375,-0.0670825830078125,1.2064348779296874
-0.34348103515625,-0.09918941650390625,1.1440101611328124
-0.22677166015625,-0.142080224609375,1.056271484375
-0.234309140625,-0.218548408203125,1.042017021484375
-0.31746457031249997,-0.1195319140625,1.022355693359375
-0.27613,-0.2111956982421875,0.901438525390625
-0.32402947265625,-0.19330410400390624,0.871455
-0.28074974609375003,-0.18987283935546875,0.891116328125
-0.3330258203125,-0.2136466015625,0.961897109375
-0.39089421875,-0.171491064453125,1.0171945947265626
-0.3344846875,-0.09869923583984375,1.009575830078125
-0.39600025390625,-0.07713128662109375,0.957473310546875
-0.27418484375,-0.10262068115234375,0.9405154150390624
-0.26227076171875,-0.24575343505859376,0.9390408154296875
-0.2435486328125,-0.2366850927734375,1.0894499755859375
-0.40815748046875,-0.25849813232421875,1.135408330078125
-0.37168580078125,-0.218548408203125,1.08871267578125
-0.25497642578125,-0.19183356201171875,0.9503460791015625
-0.2785614453125,-0.18399067138671876,0.9100403564453124
-0.16355408203125,-0.1092381201171875,1.016948828125
-0.26372962890625,-0.13448242431640625,1.0928907080078125
-0.4040240234375,-0.0906112548828125,1.2206893408203126
-0.36147373046875,-0.1151202880859375,1.24010490234375
-0.33521412109375,-0.11046357177734376,1.1292641650390625
-0.35417939453125,-0.206784072265625,0.938303515625
-0.22482650390625,-0.128355166015625,0.8333611767578125
-0.30214646484375,-0.16144236083984376,0.79969115234375
-0.37606240234375,-0.20800952392578126,0.8554801708984375
-0.29971501953125,-0.2023724462890625,0.968287041015625
-0.36682291015625,-0.19869609130859375,0.9857364697265625
-0.2800203125,-0.22124440185546876,0.9587021435546875
-0.24306234375,-0.17663796142578125,0.9434646142578125
-0.263486484375,-0.15850127685546875,0.9088115234375
-0.26616107421875,-0.1386489599609375,0.9284728515625
-0.2688356640625,-0.10654212646484375,0.9188879541015624
-0.34639876953125,-0.17247142578125,0.922082919921875
-0.3106565234375,-0.18644157470703124,1.0112961962890625
-0.37071322265625,-0.14330567626953125,1.0004824658203124
-0.3967296875,-0.2053135302734375,0.9631259423828125
-0.358799140625,-0.1945295556640625,0.879811064453125
-0.304334765625,-0.14673694091796874,0.861132802734375
-0.2610550390625,-0.17271651611328126,0.8554801708984375
-0.300444453125,-0.1626678125,0.9724650732421874
-0.33570041015625,-0.14918784423828124,1.035135556640625
-0.3320532421875,-0.08693489990234375,1.0228472265625
-0.304334765625,-0.10115013916015625,0.9284728515625
-0.2824517578125,-0.12320826904296875,0.859166669921875
-0.17303671874999998,-0.16389326416015626,0.871946533203125
-0.30506419921875,-0.159726728515625,0.977134638671875
-0.34250845703125,-0.2371752734375,1.028254091796875
-0.34542619140624997,-0.16046199951171874,1.0781447119140626
-0.421044140625,-0.1278649853515625,1.06905134765625
-0.35588140625,-0.13693332763671875,1.0432458544921874
-0.30798193359375,-0.10948321044921874,0.993355234375
-0.302389609375,-0.13938423095703126,0.9252778857421875
-0.3359435546875,-0.18055940673828125,0.9397781152343749
-0.35952857421875,-0.19820591064453125,0.8970147265625
-0.28755779296875,-0.20506843994140625,0.86653966796875
-0.310170234375,-0.2504101513671875,0.8392595751953125
-0.28196546875,-0.22320512451171876,0.81640328125
-0.2630001953125,-0.24232217041015625,0.7473428662109375
-0.267376796875,-0.23594982177734375,0.788385888671875
-0.34883021484375,-0.18742193603515625,0.8441749072265625
-0.34542619140624997,-0.169530341796875,0.8930824609375
-0.32646091796875,-0.19134338134765624,0.8928366943359375
-0.26129818359375,-0.1406096826171875,0.95894791015625
-0.40815748046875,-0.170510703125,0.906845390625
-0.304334765625,-0.17222633544921875,0.9188879541015624
-0.28318119140625,-0.1298257080078125,0.9414984814453125
-0.3942982421875,-0.12369844970703125,0.9690243408203125
-0.26081189453125,-0.14109986328125,1.010558896484375
-0.33764556640625,-0.151883837890625,1.0176861279296876
-0.29193439453125003,-0.1376685986328125,1.0267794921875
-0.25594900390624997,-0.16879507080078124,0.937811982421875
-0.33570041015625,-0.11732610107421874,0.94223578125
-0.26956509765625,-0.1494329345703125,0.918150654296875
-0.33278267578125,-0.19183356201171875,0.9105318896484375
-0.39162365234375,-0.09085634521484375,0.974185439453125
-0.284883203125,-0.12761989501953125,0.9798380712890625
-0.33570041015625,-0.1062970361328125,0.9370746826171875
-0.34591248046875,-0.16462853515625,0.94715111328125
-0.3067662109375,-0.15286419921875,0.9599309765625
-0.27783201171875,-0.16070708984375,0.95796484375
-0.33642984375,-0.22614620849609374,0.9311762841796875
-0.23698373046875,-0.13693332763671875,0.948625712890625
-0.361716875,-0.19330410400390624,0.9223286865234375
-0.27394169921875,-0.1945295556640625,1.0255506591796875
-0.3145468359375,-0.14330567626953125,0.9739396728515625
-0.31819400390625,-0.1778634130859375,0.98647376953125
-0.25789416015625,-0.1553151025390625,1.0068723974609375
-0.347128203125,-0.15408965087890625,0.98450763671875
-0.29752671875000003,-0.15703073486328126,0.99827056640625
-0.26227076171875,-0.10752248779296875,0.9896687353515625
-0.35588140625,-0.140119501953125,1.0179318945312499
-0.28074974609375003,-0.1509034765625,1.0108046630859375
-0.34493990234375,-0.11242429443359375,1.037101689453125
-0.26154132812499997,-0.1268846240234375,1.0511103857421875
-0.3213548828125,-0.18815720703125,0.971236240234375
-0.34348103515625,-0.1141399267578125,1.015474228515625
-0.3019033203125,-0.15016820556640625,1.009084296875
-0.33813185546875,-0.15114856689453124,0.9665666748046875
-0.2882872265625,-0.09085634521484375,1.019406494140625
-0.30068759765624997,-0.132276611328125,1.0211268603515624
-0.35369310546875,-0.13399224365234375,1.0506188525390625
-0.2834243359375,-0.12124754638671875,1.0801108447265624
-0.374360390625,-0.14918784423828124,1.00220283203125
-0.31430369140625003,-0.14330567626953125,0.93437125
-0.3466419140625,-0.16046199951171874,0.9346170166015625
-0.32937865234375,-0.17320669677734374,0.9188879541015624
-0.24622322265625,-0.19085320068359374,0.8766160986328125
-0.31989601562500003,-0.1611972705078125,0.9105318896484375
-0.2678630859375,-0.1562954638671875,0.95501564453125
-0.271267109375,-0.1111988427734375,0.9385492822265625
-0.273212265625,-0.11830646240234374,0.955507177734375
-0.3787369921875,-0.1161006494140625,0.9665666748046875
-0.23917203125,-0.07713128662109375,0.965337841796875
-0.32889236328125,-0.061690595703125004,0.952557978515625
-0.34032015625,-0.1210024560546875,0.97860923828125
-0.33253953125,-0.0690433056640625,0.99237216796875
-0.30360533203125,-0.07051384765625,1.0137538623046876
-0.32743349609375,-0.1004148681640625,0.9596852099609375
-0.2649453515625,-0.1180613720703125,0.9906518017578125
-0.32062544921875,-0.048945898437499996,1.0019570654296874
-0.304334765625,-0.11487519775390626,1.0147369287109376
-0.316005703125,-0.085219267578125,1.0412797216796874
-0.346155625,-0.0960032421875,1.00613509765625
-0.284883203125,-0.16070708984375,1.0049062646484375
-0.2999581640625,-0.05654369873046875,1.088221142578125
-0.316005703125,-0.159726728515625,1.0629071826171874
-0.3033621875,-0.15114856689453124,1.036118623046875
-0.3291355078125,-0.11364974609375,0.9739396728515625
-0.335457265625,-0.20114699462890626,0.9048792578125
-0.2707808203125,-0.1925688330078125,0.8800568310546875
-0.29290697265625,-0.165608896484375,0.888658662109375
-0.2800203125,-0.18791211669921876,0.8677685009765626
-0.296554140625,-0.144040947265625,0.869980400390625
-0.30627992187499997,-0.14232531494140624,0.93142205078125
-0.27613,-0.1190417333984375,0.93535431640625
-0.3578265625,-0.1249239013671875,0.983033037109375
-0.24865466796875,-0.1151202880859375,0.986965302734375
-0.2766162890625,-0.12320826904296875,0.9127437890625
-0.286828359375,-0.11585555908203125,0.9065996240234375
-0.28658521484375,-0.1298257080078125,0.8869382958984375
-0.300444453125,-0.126394443359375,0.8417172412109375
-0.2722396875,-0.15605037353515624,0.8033776513671875
-0.2357680078125,-0.16879507080078124,0.7512751318359375
-0.24306234375,-0.11585555908203125,0.7370206689453125
-0.3111428125,-0.10752248779296875,0.82721701171875
-0.26616107421875,-0.042083369140625,0.93437125
-0.38919220703125,-0.03987755615234375,1.01596576171875
-0.29971501953125,-0.071494208984375,1.08281427734375
-0.32451576171875,-0.013407800292968751,1.0275167919921875
-0.27588685546875,-0.028358310546875,1.016457294921875
-0.27491427734375,-0.08056255126953125,1.0904330419921875
-0.3378887109375,-0.046004814453125,1.1164843017578125
-0.31624884765625,-0.0994345068359375,1.06708521484375
-0.2853694921875,-0.0881603515625,1.0457035205078125
-0.3476144921875,-0.08007237060546875,1.0486527197265625
-0.29436583984375,-0.167569619140625,1.02776255859375
-0.3339983984375,-0.089140712890625,1.0373474560546876
-0.31868029296875,-0.1651187158203125,1.079373544921875
-0.330594375,-0.134237333984375,1.08871267578125
-0.302389609375,-0.123453359375,1.068559814453125
-0.3189234375,-0.16462853515625,1.0550426513671876
-0.41156150390625,-0.11781628173828125,1.090187275390625
-0.3729015234375,-0.16389326416015626,1.0417712548828124
-0.3408064453125,-0.06977857666015624,0.93732044921875
-0.41593810546875,-0.13448242431640625,0.891116328125
-0.26081189453125,-0.12614935302734376,0.907336923828125
-0.251815546875,-0.16291290283203125,0.9324051171875
-0.39867484375,-0.0876701708984375,1.0353813232421876
-0.3067662109375,-0.0994345068359375,1.0987891064453126
-0.389921640625,-0.0857094482421875,1.0722463134765625
-0.38432931640625,-0.026397587890625,1.089204208984375
-0.3583128515625,-0.17247142578125,1.0024485986328124
-0.35977171875,-0.11585555908203125,0.9493630126953125
-0.35855599609375,-0.09967959716796874,0.883743330078125
-0.35320681640625,-0.1033559521484375,0.847369873046875
-0.3641483203125,-0.19526482666015624,0.8269712451171874
-0.26129818359375,-0.124433720703125,0.850319072265625
-0.343237890625,-0.200901904296875,0.8775991650390624
-0.3057936328125,-0.20776443359375,0.89996392578125
-0.2912049609375,-0.0915916162109375,0.9134810888671875
-0.3057936328125,-0.18301031005859375,0.9400238818359374
-0.30700935546875,-0.1239435400390625,1.0235845263671874
-0.339347578125,-0.0778665576171875,1.0560257177734376
-0.31041337890625,-0.17639287109375001,1.0909245751953125
-0.34348103515625,-0.07713128662109375,1.1233657666015624
-0.3660934765625,-0.0494360791015625,1.130492998046875
-0.27685943359375,-0.10360104248046875,1.1120605029296875
-0.33983386718749997,-0.04330882080078125,1.0975602734375
-0.34056330078125,-0.08595453857421875,1.125577666015625
-0.3427516015625,-0.0915916162109375,1.0638902490234374
-0.3067662109375,-0.08056255126953125,1.0393135888671874
-0.2736985546875,-0.10605194580078126,1.005643564453125
-0.2591098828125,-0.1131595654296875,1.0860092431640624
-0.24525064453125,-0.11364974609375,1.164900322265625
-0.40864376953125,-0.123453359375,1.1213996337890624
-0.31527626953125,-0.10507158447265624,1.05528841796875
-0.36487775390625,-0.0881603515625,0.9931094677734374
-0.34639876953125,-0.1273748046875,1.0181776611328126
-0.2873146484375,-0.09575815185546875,1.134425263671875
-0.33375525390625,-0.09428760986328125,1.161951123046875
-0.4721044921875,-0.14183513427734376,1.0791277783203126
-0.25084296875,-0.089140712890625,0.9326508837890625
-0.2912049609375,-0.17026561279296876,0.8284458447265625
-0.26324333984375,-0.154824921875,0.91569298828125
-0.23844259765625,-0.21585241455078125,0.9537868115234375
-0.33278267578125,-0.24575343505859376,0.9901602685546875
-0.34810078125,-0.1651187158203125,0.9877026025390625
-0.32500205078125,-0.155805283203125,0.9518206787109375
-0.25643529296875,-0.14820748291015626,0.9690243408203125
-0.2644590625,-0.1268846240234375,0.9896687353515625
-0.32937865234375,-0.2043331689453125,1.0117877294921875
-0.2970404296875,-0.2136466015625,0.9992536328125
-0.31697828125,-0.15261910888671876,0.9773804052734375
-0.31089966796875,-0.2013920849609375,1.015474228515625
-0.2970404296875,-0.14379585693359376,1.083305810546875
-0.30068759765624997,-0.08644471923828125,1.1130435693359375
-0.25886673828125,-0.10360104248046875,1.0751955126953125
-0.34250845703125,-0.0415931884765625,1.0466865869140625
-0.32208431640625,-0.059729873046875,1.0240760595703124
-0.327676640625,-0.04870080810546875,0.9734481396484375
-0.37557611328125,-0.01953505859375,0.954032578125
-0.29363640625,-0.01953505859375,0.950591845703125
-0.31478998046875,-0.1611972705078125,0.9837703369140625
-0.36536404296875,-0.14502130859375,0.9498545458984375
-0.2532744140625,-0.10752248779296875,0.957473310546875
-0.35588140625,-0.15948163818359376,0.8751414990234375
-0.286828359375,-0.112669384765625,0.92159138671875
-0.25157240234375,-0.07370002197265625,0.984999169921875
-0.403537734375,-0.09575815185546875,1.0034316650390624
-0.3009307421875,-0.0646316796875,1.04349162109375
-0.2834243359375,-0.1352176953125,1.0024485986328124
-0.29290697265625,-0.136198056640625,0.93437125
-0.2912049609375,-0.11634573974609375,0.9233117529296875
-0.32086859375,-0.11291447509765624,0.9818042041015624
-0.3573402734375,-0.11193411376953125,1.023338759765625
-0.38967849609375,-0.100905048828125,1.024813359375
-0.308225078125,-0.0661022216796875,1.0525849853515625
-0.31624884765625,-0.10703230712890625,1.00515203125
-0.3057936328125,-0.1102184814453125,0.97467697265625
-0.34639876953125,-0.149923115234375,0.9134810888671875
-0.2843969140625,-0.1357078759765625,0.909303056640625
-0.37168580078125,-0.0925719775390625,0.981066904296875
-0.3271903515625,-0.14624676025390626,1.0049062646484375
-0.2678630859375,-0.09428760986328125,1.0211268603515624
-0.37946642578125,-0.1180613720703125,1.0255506591796875
-0.29533841796875,-0.10752248779296875,1.039067822265625
-0.2970404296875,-0.12712971435546874,0.955507177734375
-0.3408064453125,-0.0955130615234375,0.9921264013671875
-0.29631099609375,-0.14232531494140624,0.9191337207031249
-0.32451576171875,-0.13448242431640625,0.910286123046875
-0.29874244140625,-0.08448399658203125,0.9557529443359375
-0.3111428125,-0.1543347412109375,0.904387724609375
-0.32013916015625,-0.046249904785156254,1.0088385302734375
-0.32062544921875,-0.1504132958984375,1.048898486328125
-0.32646091796875,-0.09404251953125001,1.0688055810546875
-0.325731484375,-0.10801266845703125,1.0176861279296876
-0.3067662109375,-0.1582561865234375,0.95894791015625
-0.27807515625,-0.11830646240234374,0.9129895556640625
-0.38238416015625,-0.10115013916015625,0.948625712890625
-0.2338228515625,-0.15899145751953125,0.9896687353515625
-0.36682291015625,-0.08595453857421875,0.9763973388671875
-0.34591248046875,-0.1474722119140625,0.9808211376953125
-0.30895451171875,-0.11193411376953125,0.9402696484374999
-0.296554140625,-0.08938580322265625,0.9041419580078125
-0.32257060546875,-0.1464918505859375,0.941744248046875
-0.32281375,-0.1092381201171875,0.990897568359375
-0.32354318359375,-0.0964934228515625,1.01006736328125
-0.32257060546875,-0.07762146728515625,0.98942296875
-0.34226531250000003,-0.091101435546875,0.9847534033203125
-0.24379177734375002,-0.098944326171875,0.9638632421875
-0.35028908203125,-0.08963089355468751,0.959439443359375
-0.3145468359375,-0.09722869384765626,1.0228472265625
-0.3291355078125,-0.1406096826171875,0.9434646142578125
-0.2970404296875,-0.12418863037109375,0.926998251953125
-0.31284482421875,-0.1509034765625,0.8773533984374999
-0.300444453125,-0.13693332763671875,0.91569298828125
-0.29752671875000003,-0.106787216796875,0.955507177734375
-0.35952857421875,-0.11536537841796875,1.0142453955078126
-0.29509527343749997,-0.10997339111328125,1.0402966552734374
-0.30627992187499997,-0.0641414990234375,0.955507177734375
-0.2931501171875,-0.12811007568359375,0.9459222802734375
-0.34980279296875,-0.11585555908203125,0.95698177734375
-0.314060546875,-0.11977700439453125,0.968287041015625
-0.32354318359375,-0.12541408203125,0.876861865234375
-0.29971501953125,-0.09281706787109376,0.9051250244140625
-0.3203823046875,-0.09967959716796874,0.922082919921875
-0.292663828125,-0.11879664306640625,0.942727314453125
-0.3252451953125,-0.08448399658203125,0.97369390625
-0.33472783203125,-0.0994345068359375,0.9832788037109375
-0.3271903515625,-0.08840544189453126,1.038084755859375
-0.3466419140625,-0.151883837890625,0.972219306640625
-0.299471875,-0.05556333740234375,1.0103131298828125
-0.299471875,-0.0582593310546875,0.946168046875
-0.3203823046875,-0.12933552734375,0.936828916015625
-0.31527626953125,-0.051886982421875,0.9867195361328125
-0.32791978515625,-0.13938423095703126,1.00220283203125
-0.35466568359375,-0.1053166748046875,0.9970417333984375
-0.3378887109375,-0.11144393310546875,0.978117705078125
-0.28220861328125,-0.13007079833984375,0.9321593505859375
-0.333512109375,-0.1415900439453125,0.8854636962890625
-0.3359435546875,-0.10409122314453124,0.912252255859375
-0.35028908203125,-0.114630107421875,0.9559987109375
-0.28804408203125,-0.091101435546875,1.0108046630859375
-0.34980279296875,-0.11634573974609375,0.98450763671875
-0.30311904296875003,-0.112669384765625,0.954032578125
-0.288773515625,-0.13154134033203124,0.9439561474609375
-0.29776986328125,-0.1504132958984375,0.9134810888671875
-0.33424154296874997,-0.1308060693359375,0.9127437890625
-0.29825615234375,-0.13497260498046876,0.883743330078125
-0.31576255859375,-0.13350206298828124,0.9238032861328125
-0.35952857421875,-0.13301188232421876,0.8928366943359375
-0.28998923828125,-0.09526797119140624,0.9174133544921875
-0.3164919921875,-0.11928682373046876,0.9646005419921875
-0.34834392578125,-0.11977700439453125,0.984999169921875
-0.3019033203125,-0.10409122314453124,1.00810123046875
-0.30944080078125,-0.0974737841796875,0.9596852099609375
-0.32159802734375,-0.087179990234375,0.9695158740234375
-0.2805066015625,-0.0866898095703125,0.94911724609375
-0.34032015625,-0.06879821533203125,0.9518206787109375
-0.316005703125,-0.08105273193359375,1.020389560546875
-0.3553951171875,-0.14109986328125,1.011541962890625
-0.300444453125,-0.06291604736328126,1.0019570654296874
-0.372415234375,-0.12369844970703125,0.945676513671875
-0.30506419921875,-0.1249239013671875,0.95108337890625
-0.34834392578125,-0.144040947265625,0.932896650390625
-0.3262177734375,-0.08546435791015625,0.976151572265625
-0.27418484375,-0.1690401611328125,0.9316678173828125
-0.378250703125,-0.0631611376953125,0.962388642578125
-0.28172232421875,-0.0582593310546875,1.0137538623046876
-0.37217208984375,-0.1886473876953125,0.97467697265625
-0.3145468359375,-0.09330724853515625,1.0058893310546875
-0.290718671875,-0.1509034765625,0.929947451171875
-0.3388612890625,-0.183255400390625,0.9016842919921875
-0.26470220703125,-0.15654055419921875,0.901438525390625
-0.32548833984375003,-0.1425704052734375,0.886692529296875
-0.3476144921875,-0.07615092529296875,0.8989808593749999
-0.2591098828125,-0.15997181884765624,0.9179048876953125
-0.35174794921875,-0.038161923828125,0.977134638671875
-0.28755779296875,-0.09820905517578125,1.0034316650390624
-0.35126166015625,-0.0974737841796875,1.0383305224609374
-0.32354318359375,-0.0690433056640625,0.994829833984375
-0.2800203125,-0.1102184814453125,0.933879716796875
-0.26056875,-0.108747939453125,0.8721922998046875
-0.3291355078125,-0.11389483642578124,0.902913125
-0.2532744140625,-0.12149263671875,0.9498545458984375
-0.3889490625,-0.12933552734375,0.9827872705078124
-0.31697828125,-0.0886505322265625,1.0393135888671874
-0.32694720703125,-0.0847290869140625,1.00023669921875
-0.31916658203125,-0.1170810107421875,0.99040603515625
-0.3339983984375,-0.128355166015625,0.9434646142578125
-0.2892598046875,-0.132276611328125,0.9174133544921875
-0.32013916015625,-0.081297822265625,0.9326508837890625
-0.3262177734375,-0.0837487255859375,0.9284728515625
-0.2931501171875,-0.10065995849609374,0.9886856689453125
-0.30749564453125,-0.11340465576171875,0.9992536328125
-0.31819400390625,-0.10409122314453124,1.009084296875
-0.33108066406250003,-0.09379742919921875,0.9402696484374999
-0.3135742578125,-0.138158779296875,0.90193005859375
-0.3301080859375,-0.11781628173828125,0.9011927587890625
-0.34226531250000003,-0.07713128662109375,0.903404658203125
-0.25400384765625,-0.12149263671875,0.89406552734375
-0.32159802734375,-0.12541408203125,0.947642646484375
-0.3267040625,-0.0533575244140625,1.0189149609375
-0.2980130078125,-0.0955130615234375,1.0179318945312499
-0.34737134765625,-0.06242586669921875,1.0250591259765625
-0.28561263671875,-0.07860182861328124,0.9660751416015625
-0.33642984375,-0.11242429443359375,0.923065986328125
-0.28391062499999997,-0.0729647509765625,0.979100771484375
-0.34883021484375,-0.08742508056640624,0.9729566064453125
-0.27685943359375,-0.11561046875,0.978117705078125
-0.337402421875,-0.08619962890625,0.9621428759765625
-0.29193439453125003,-0.11757119140625,0.96877857421875
-0.32354318359375,-0.10458140380859375,0.97467697265625
-0.33229638671875,-0.10801266845703125,0.95501564453125
-0.32694720703125,-0.1038461328125,0.9051250244140625
-0.31916658203125,-0.07271966064453125,0.886692529296875
-0.3427516015625,-0.09036616455078125,0.8859552294921875
-0.28585578125,-0.14428603759765624,0.9016842919921875
-0.31624884765625,-0.06830803466796875,0.9606682763671874
-0.2921775390625,-0.13325697265625,0.952557978515625
-0.27102396484375,-0.0906112548828125,0.9621428759765625
-0.2980130078125,-0.1249239013671875,0.9095488232421876
-0.36633662109375,-0.0945327001953125,0.972219306640625
-0.30871136718750003,-0.0631611376953125,0.9827872705078124
-0.34980279296875,-0.14109986328125,0.890624794921875
-0.304334765625,-0.0425735498046875,0.9906518017578125
-0.34493990234375,-0.08399381591796876,1.0088385302734375
-0.31722142578125,-0.07468038330078125,1.02579642578125
-0.279047734375,-0.014633251953124999,0.99237216796875
-0.28366748046875,-0.0690433056640625,0.9872110693359375
-0.31138595703125,-0.07811164794921875,0.9719735400390626
-0.3019033203125,-0.077376376953125,0.970253173828125
-0.33108066406250003,-0.1288453466796875,0.9272440185546875
-0.26178447265625,-0.08644471923828125,0.901438525390625
-0.32694720703125,-0.0690433056640625,0.9186421875
-0.368524921875,-0.09869923583984375,1.0206353271484374
-0.315033125,-0.06536695068359374,1.0501273193359375
-0.3466419140625,-0.1053166748046875,1.0584833837890626
-0.3096839453125,-0.07811164794921875,0.9990078662109375
-0.32257060546875,-0.08963089355468751,0.932896650390625
-0.27977716796875,-0.061690595703125004,0.931913583984375
-0.3505322265625,-0.06291604736328126,0.9287186181640625
-0.23017568359375,-0.0631611376953125,0.99040603515625
-0.31235853515625,-0.11585555908203125,0.946168046875
-0.33959072265625,-0.096983603515625,0.9936010009765625
-0.265431640625,-0.10286577148437501,0.9503460791015625
-0.29971501953125,-0.06095532470703125,0.9129895556640625
-0.345183046875,-0.091101435546875,0.9257694189453125
-0.33959072265625,-0.1111988427734375,0.936828916015625
-0.3028758984375,-0.05360261474609375,0.963371708984375
-0.31527626953125,-0.04281864013671875,0.9665666748046875
-0.26275705078125,-0.03889719482421875,0.95698177734375
-0.31965287109375,-0.029338671875,0.9815584374999999
-0.26713365234374997,-0.06732767333984375,1.0167030615234376
-0.2989855859375,-0.07320984130859375,1.001711298828125
-0.27929087890625,-0.047965537109375,0.9921264013671875
-0.26713365234374997,-0.05997496337890625,0.9375662158203125
-0.33570041015625,-0.05899460205078125,0.9228202197265625
-0.280992890625,-0.06267095703125,0.9862280029296875
-0.316005703125,-0.0719843896484375,1.0132623291015626
-0.36147373046875,-0.0082609033203125,1.0781447119140626
-0.26664736328125,-0.10556176513671875,0.9916348681640625
-0.3145468359375,-0.05605351806640625,0.9572275439453125
-0.29874244140625,-0.00458454833984375,0.9631259423828125
-0.33910443359375,-0.11364974609375,0.90389619140625
-0.2960678515625,-0.0415931884765625,0.9606682763671874
-0.31041337890625,-0.069533486328125,0.96288017578125
-0.2873146484375,-0.10458140380859375,0.9537868115234375
-0.3067662109375,-0.05556333740234375,0.9837703369140625
-0.29169125,-0.10286577148437501,1.0098215966796875
-0.30652306640625,-0.03914228515625,0.999745166015625
-0.34202216796875,-0.07909200927734375,0.923065986328125
-0.33764556640625,-0.03914228515625,0.9375662158203125
-0.28512634765625,-0.0190448779296875,0.946168046875
-0.347128203125,-0.0612004150390625,0.9206083203125
-0.26154132812499997,0.00227798095703125,0.9677955078125
-0.3339983984375,-0.01438816162109375,0.9734481396484375
-0.28804408203125,-0.04698517578125,0.984999169921875
-0.302389609375,0.00570924560546875,1.0068723974609375
-0.28707150390625,-0.044044091796875,1.032186357421875
-0.34542619140624997,-0.11193411376953125,0.964354775390625
-0.3203823046875,-0.032279755859375,0.9503460791015625
-0.2878009375,-0.06340622802734375,0.9478884130859375
-0.3126016796875,-0.0376717431640625,0.9414984814453125
-0.339347578125,-0.00850599365234375,1.00416896484375
-0.30652306640625,-0.06340622802734375,0.9852449365234375
-0.31138595703125,-0.050661530761718754,0.89603166015625
-0.32743349609375,-0.04698517578125,0.8962774267578125
-0.29874244140625,-0.08399381591796876,0.9188879541015624
-0.32013916015625,-0.040122646484374996,0.9395323486328125
-0.349073359375,-0.055808427734375,0.9365831494140625
-0.30846822265625,-0.06487677001953125,0.909303056640625
-0.25789416015625,-0.02419177490234375,0.8930824609375
-0.3145468359375,-0.0229663232421875,0.9596852099609375
-0.30627992187499997,-0.01561361328125,1.0275167919921875
-0.35612455078125,0.00472888427734375,0.9926179345703126
-0.35904228515625003,-0.013652890625,0.978117705078125
-0.35126166015625,-0.01193725830078125,0.93732044921875
-0.299471875,-0.0661022216796875,0.9196252539062499
-0.27515742187500003,-0.01389798095703125,0.96288017578125
-0.29874244140625,-0.073454931640625,0.9346170166015625
-0.26056875,-0.08350363525390625,0.959439443359375
-0.292663828125,-0.049926259765625,0.9704989404296875
-0.34202216796875,-0.08154291259765625,0.99040603515625
-0.28196546875,-0.06977857666015624,0.9650920751953125
-0.31770771484375,-0.06291604736328126,0.8820229638671875
-0.28950294921874997,-0.01438816162109375,0.9188879541015624
-0.31138595703125,-0.08007237060546875,0.9552614111328125
-0.32597462890625,-0.0023787353515625003,1.00515203125
-0.3033621875,-0.029338671875,0.9729566064453125
-0.29971501953125,-0.0778665576171875,0.984999169921875
-0.33108066406250003,-0.059729873046875,0.9901602685546875
-0.2931501171875,-0.098944326171875,0.9921264013671875
-0.3495596484375,-0.0661022216796875,0.9469053466796875
-0.2717533984375,-0.03987755615234375,0.9449392138671875
-0.30117388671875,-0.059484782714843754,0.88816712890625
-0.299471875,-0.044044091796875,0.9390408154296875
-0.34810078125,-0.03154448486328125,1.0029401318359374
-0.304334765625,-0.05556333740234375,0.9321593505859375
-0.299471875,-0.0999246875,0.867522734375
-0.273212265625,-0.0661022216796875,0.8643277685546875
-0.3339983984375,-0.047965537109375,0.8852179296875
-0.317950859375,-0.09085634521484375,0.9095488232421876
-0.304334765625,0.01257177490234375,0.9449392138671875
-0.31916658203125,-0.034240478515625,0.89996392578125
-0.2192341796875,0.00399361328125,0.94125271484375
-0.3048210546875,0.03266918212890625,0.956490244140625
-0.30749564453125,0.0309535498046875,1.008592763671875
-0.27053767578125,-0.0180645166015625,1.001219765625
-0.35515197265625,0.0069346972656249995,0.956490244140625
-0.2873146484375,0.024091020507812498,0.9636174755859375
-0.310170234375,-0.06267095703125,0.9363373828125
-0.3991611328125,0.03708080810546875,0.9606682763671874
-0.2878009375,-0.047965537109375,0.9537868115234375
-0.29169125,-0.067572763671875,0.9763973388671875
-0.32086859375,-0.0906112548828125,0.999745166015625
-0.31041337890625,-0.061690595703125004,0.9985163330078125
-0.33229638671875,-0.06291604736328126,0.9188879541015624
-0.37606240234375,-0.07958218994140626,0.8721922998046875
-0.26081189453125,-0.030319033203124998,0.9316678173828125
-0.30457791015625,-0.0043394580078125,0.9695158740234375
-0.30068759765624997,-0.0562986083984375,1.0648733154296874
-0.33229638671875,-0.00801581298828125,1.1268064990234374
-0.35028908203125,-0.00409436767578125,1.1356540966796875
-0.38870591796875,-0.04085791748046875,1.0702801806640625
-0.35417939453125,-0.00850599365234375,1.0024485986328124
-0.27345541015625,-0.0788469189453125,0.94518498046875
-0.2853694921875,-0.0190448779296875,0.9218371533203125
-0.327676640625,-0.006790361328125,0.9245405859375
-0.28853037109375,-0.055808427734375,0.9469053466796875
-0.3729015234375,0.01575794921875,0.9501003125
-0.30700935546875,0.01012087158203125,0.9321593505859375
-0.27248283203125,-0.05605351806640625,0.8830060302734375
-0.3164919921875,-0.004829638671875,0.89013326171875
-0.265431640625,-0.0268877685546875,0.8970147265625
-0.29776986328125,0.02139502685546875,0.9129895556640625
-0.3816547265625,-0.0151234326171875,0.932896650390625
-0.3067662109375,0.06257020263671875,0.9773804052734375
-0.30263275390625,0.00227798095703125,1.0147369287109376
-0.28269490234375,-0.015368522949218751,0.9874568359375
-0.237226875,0.0672269189453125,1.013508095703125
-0.32597462890625,0.0476196923828125,1.0683140478515625
-0.288773515625,0.063795654296875,1.072000546875
-0.312115390625,0.0025230712890624996,1.060695283203125
-0.35077537109375,0.0280124658203125,1.1005094726562499
-0.22336763671875,0.03462990478515625,1.075441279296875
-0.2805066015625,0.0201695751953125,1.0594664501953126
-0.30871136718750003,-0.02149578125,1.0452119873046875
-0.4020788671875,0.00570924560546875,1.0516019189453125
-0.20926525390625,-0.0268877685546875,0.9999909326171875
-0.3271903515625,-0.0327699365234375,0.9267524853515625
-0.31916658203125,-0.01561361328125,0.994829833984375
-0.25351755859375,0.02727719482421875,1.0584833837890626
-0.27394169921875,-0.07713128662109375,0.9931094677734374
-0.35223423828125,0.00472888427734375,1.0078554638671875
-0.27053767578125,-0.1415900439453125,0.9164302880859375
-0.28561263671875,-0.100905048828125,0.8223016796875
-0.26421591796875,-0.08448399658203125,0.784453623046875
-0.2736985546875,-0.1259042626953125,0.839505341796875
-0.3203823046875,-0.0327699365234375,0.8707177001953125
-0.27807515625,0.01208159423828125,0.9503460791015625
-0.33035123046875,0.00178780029296875,0.9990078662109375
-0.3495596484375,0.04884514404296875,1.0191607275390624
-0.221665625,0.0255615625,1.0294829248046875
-0.33035123046875,0.07850107421875,1.0543053515625
-0.3369161328125,0.05497240234375,1.0378389892578126
-0.29485212890625,0.0137972265625,0.9980247998046875
-0.28853037109375,-0.0308092138671875,0.9297016845703125
-0.32646091796875,-0.00703545166015625,0.90389619140625
-0.2488978125,0.02531647216796875,0.9206083203125
-0.31089966796875,0.033404453125,0.9616513427734374
-0.34299474609375,-0.0018885546875000003,1.094119541015625
-0.32086859375,0.05472731201171875,1.1179589013671876
-0.3466419140625,0.04296297607421875,1.1091113037109375
-0.3680386328125,0.05889384765625,1.0786362451171876
-0.3631757421875,0.02360083984375,1.0353813232421876
-0.271267109375,0.0427178857421875,0.9719735400390626
-0.25692158203125,-0.06928839599609375,0.93732044921875
-0.32111173828125,-0.057769150390625,0.864082001953125
-0.230418828125,-0.028113220214843748,0.8830060302734375
-0.36439146484375,-0.0719843896484375,0.9144641552734375
-0.35977171875,-0.022476142578125,0.936828916015625
-0.27102396484375,-0.0371815625,0.9459222802734375
-0.3656071875,-0.0366913818359375,0.934862783203125
-0.35369310546875,-0.02909358154296875,0.9599309765625
-0.3417790234375,-0.0411030078125,0.928964384765625
-0.27880458984375,-0.0190448779296875,0.951574912109375
-0.3359435546875,-0.05164189208984375,0.9365831494140625
-0.36585033203125,-0.0455146337890625,0.926015185546875
-0.22968939453125,-0.037916833496093746,0.8159117480468749
-0.31041337890625,-0.03252484619140625,0.7979707861328125
-0.28391062499999997,-0.04134809814453125,0.8422087744140625
-0.252788125,-0.050661530761718754,0.8928366943359375
-0.3330258203125,0.06649164794921875,0.9419900146484375
-0.29533841796875,0.03168882080078125,0.976151572265625
-0.3009307421875,0.0740894482421875,1.0461950537109375
-0.3349709765625,0.0221302978515625,1.1096028369140625
-0.29047552734375,0.07286399658203124,1.1690783544921874
-0.3301080859375,0.018699033203125,1.04742388671875
-0.31235853515625,-0.02713285888671875,0.89209939453125
-0.30068759765624997,0.0280124658203125,0.90782845703125
-0.29436583984375,-0.0016434643554687498,0.8761245654296875
-0.26859251953125,-0.050661530761718754,0.92159138671875
-0.316005703125,0.0221302978515625,1.0407881884765624
-0.31673513671875,0.0044837939453125,1.07298361328125
-0.24670951171875,-0.02223105224609375,0.9717277734375
-0.30603677734375,0.024581201171875,0.946168046875
-0.33910443359375,-0.03522083984375,0.942727314453125
-0.27345541015625,-0.052867343750000004,1.0245675927734375
-0.40815748046875,-0.00409436767578125,1.0810939111328124
-0.30263275390625,-0.044534272460937496,1.0516019189453125
-0.29290697265625,-0.03546593017578125,0.9577190771484375
-0.346155625,-0.0259074072265625,0.9616513427734374
-0.247925234375,-0.0016434643554687498,0.9537868115234375
-0.3320532421875,-0.03301502685546875,0.928964384765625
-0.22750109375,-0.01634888427734375,0.9862280029296875
-0.28804408203125,-0.01169216796875,0.959439443359375
-0.314060546875,0.00521906494140625,0.941744248046875
-0.2017277734375,0.01183650390625,0.989914501953125
-0.4254207421875,0.016738310546875,1.027271025390625
-0.265431640625,0.07139345458984375,1.04349162109375
-0.23163455078125,0.00399361328125,0.979100771484375
-0.40669861328125,0.0397768017578125,0.99040603515625
-0.2523018359375,0.0074248779296875,0.9886856689453125
-0.3281629296875,0.008895419921875,0.9267524853515625
-0.28634207031250003,0.055952763671875,0.95796484375
-0.24379177734375002,-0.0018885546875000003,0.90782845703125
-0.2931501171875,0.02727719482421875,0.974185439453125
-0.31697828125,-0.0082609033203125,0.9862280029296875
-0.26664736328125,-0.0053198193359375,0.944693447265625
-0.30530734375,0.04835496337890625,0.962388642578125
-0.3077387890625,0.0172284912109375,0.9439561474609375
-0.30263275390625,0.03413972412109375,0.9518206787109375
-0.35563826171875,-0.03399538818359375,0.976151572265625
-0.2931501171875,0.04296297607421875,1.005643564453125
-0.33813185546875,-0.0004180126953125,0.954524111328125
-0.3500459375,0.05497240234375,1.01399962890625
-0.26275705078125,0.0495804150390625,0.975168505859375
-0.36925435546875,-0.016593974609375,0.933879716796875
-0.24184662109375,0.01404231689453125,0.9591936767578125
-0.3077387890625,-0.00311400634765625,0.89013326171875
-0.268349375,-0.04968116943359375,0.883251796875
-0.255705859375,0.0740894482421875,0.931913583984375
-0.36487775390625,0.00325834228515625,0.9872110693359375
-0.2800203125,0.0152677685546875,1.003677431640625
-0.23066197265625,0.02923791748046875,0.977134638671875
-0.3563676953125,-0.01732924560546875,0.9965502001953125
-0.2318776953125,0.04247279541015625,1.00810123046875
-0.3009307421875,0.00717978759765625,0.9513291455078126
-0.335457265625,-0.0004180126953125,0.9739396728515625
-0.2644590625,0.012816865234374999,0.98647376953125
-0.3067662109375,-0.0082609033203125,0.9768888720703125
-0.31333111328125,0.026296833496093748,0.9852449365234375
-0.271267109375,0.01551285888671875,1.006626630859375
-0.3033621875,0.04541387939453125,1.040050888671875
-0.26664736328125,0.0003172583007812497,0.9975332666015625
-0.352963671875,0.0003172583007812497,0.96877857421875
-0.28318119140625,0.03266918212890625,0.938795048828125
-0.27685943359375,-0.01634888427734375,0.9065996240234375
-0.3033621875,0.0603643896484375,1.0093300634765625
-0.34639876953125,0.0348749951171875,1.0088385302734375
-0.31308796875,0.0255615625,0.987948369140625
-0.2853694921875,-0.0072805419921875,0.9532952783203125
-0.31308796875,-0.0038492773437499997,0.9493630126953125
-0.24719580078125,-0.01781942626953125,0.9749227392578125
-0.35952857421875,0.02482629150390625,0.9704989404296875
-0.29193439453125003,0.044188427734375,1.0068723974609375
-0.36001486328125,0.017718671875,1.0083469970703125
-0.29728357421875,0.05913893798828125,1.041033955078125
-0.24695265625,-0.034240478515625,0.9724650732421874
-0.3009307421875,0.04124734375,0.968287041015625
-0.2328502734375,-0.0006631030273437505,0.9773804052734375
-0.31041337890625,0.0172284912109375,0.9778719384765625
-0.3694975,0.02727719482421875,0.99040603515625
-0.25643529296875,-0.018554697265625,0.947642646484375
-0.29776986328125,0.01110123291015625,0.9483799462890625
-0.33278267578125,0.0103659619140625,0.97467697265625
-0.2644590625,0.01600303955078125,0.9717277734375
-0.31673513671875,-0.0038492773437499997,0.9454307470703125
-0.296554140625,0.04590406005859375,1.0280083251953125
-0.31673513671875,-0.01561361328125,0.958456376953125
-0.28707150390625,0.02482629150390625,0.984016103515625
-0.28658521484375,0.00865032958984375,0.9650920751953125
-0.35077537109375,0.02752228515625,0.994829833984375
-0.27199654296875,0.049090234375,0.977626171875
-0.2931501171875,0.0152677685546875,0.9070911572265625
-0.368524921875,-0.01830960693359375,0.9483799462890625
-0.268349375,0.02752228515625,0.9606682763671874
-0.30627992187499997,0.00178780029296875,0.9242948193359375
-0.35199109375,-0.02419177490234375,0.904387724609375
-0.265431640625,0.05668803466796875,0.945676513671875
-0.31187224609374997,0.03953171142578125,0.9911433349609375
-0.31722142578125,0.02874773681640625,1.040050888671875
-0.31697828125,0.0358553564453125,1.0491442529296875
-0.252788125,-0.02958376220703125,1.000728232421875
-0.345183046875,0.01404231689453125,0.9316678173828125
-0.24306234375,-0.008996174316406251,0.98647376953125
-0.31187224609374997,0.02139502685546875,0.98057537109375
-0.29193439453125003,0.00619942626953125,0.9926179345703126
-0.31284482421875,-0.0006631030273437505,0.9614055761718749
-0.296554140625,0.02752228515625,0.9520664453125
-0.27151025390625,0.0142874072265625,0.9238032861328125
-0.25692158203125,-0.02664267822265625,0.9599309765625
-0.2955815625,-0.02737794921875,0.9945840673828125
-0.32305689453124997,0.0020328906249999995,1.0029401318359374
-0.2805066015625,0.0044837939453125,1.0019570654296874
-0.2912049609375,-0.0013983740234375002,0.95501564453125
-0.33278267578125,0.028257556152343752,0.9945840673828125
-0.2450075,0.03512008544921875,0.9980247998046875
-0.321841171875,0.02286556884765625,0.94321884765625
-0.2853694921875,-0.03154448486328125,1.0034316650390624
-0.2722396875,0.0020328906249999995,0.94715111328125
-0.30919765625,0.00816014892578125,0.875387265625
-0.27783201171875,-0.04379900146484375,0.88423486328125
-0.31868029296875,0.026296833496093748,0.9523122119140625
-0.34445361328125,0.0037485229492187503,1.0171945947265626
-0.316005703125,0.03144373046875,0.998762099609375
-0.298499296875,0.01159141357421875,0.990897568359375
-0.2620276171875,-0.00801581298828125,0.9719735400390626
-0.30652306640625,0.0299731884765625,0.9778719384765625
-0.252788125,-0.008996174316406251,0.956490244140625
-0.36147373046875,-0.01732924560546875,0.9247863525390625
-0.3038484765625,0.04002189208984375,0.954032578125
-0.28804408203125,-0.0239466845703125,0.9599309765625
-0.29728357421875,0.012816865234374999,0.95108337890625
-0.31284482421875,0.03953171142578125,0.992863701171875
-0.28998923828125,-0.01978014892578125,1.00023669921875
-0.34445361328125,0.0003172583007812497,0.9822957373046874
-0.2843969140625,-0.0006631030273437505,1.0009739990234374
-0.294608984375,-0.0425735498046875,0.9174133544921875
-0.298499296875,0.030463369140625002,0.9002096923828125
-0.28853037109375,-0.030319033203124998,0.8810398974609375
-0.3019033203125,-0.0092412646484375,0.908319990234375
-0.3067662109375,0.01551285888671875,0.926015185546875
-0.26178447265625,-0.02762303955078125,0.935845849609375
-0.27588685546875,-0.01732924560546875,0.9169218212890625
-0.279047734375,-0.03522083984375,0.916184521484375
-0.28123603515625,-0.05801424072265625,0.8923451611328125
-0.35806970703125,0.01845394287109375,0.9481341796875
-0.2698082421875,-0.028113220214843748,0.9680412744140625
-0.338375,-0.01732924560546875,0.921099853515625
-0.30652306640625,0.01796376220703125,0.9677955078125
-0.24768208984375,-0.01781942626953125,0.9609140429687499
-0.35855599609375,-0.0327699365234375,0.9587021435546875
-0.26956509765625,0.061834931640625,1.021372626953125
-0.33618669921875,-0.0175743359375,0.9159387548828125
-0.29631099609375,-0.01193725830078125,0.9284728515625
-0.29825615234375,-0.00997653564453125,0.9700074072265625
-0.31697828125,0.03462990478515625,1.0486527197265625
-0.30020130859375,-0.0018885546875000003,1.0034316650390624
-0.374360390625,0.01649322021484375,0.9709904736328125
-0.3033621875,0.01306195556640625,1.0481611865234375
-0.29509527343749997,-0.028113220214843748,0.9675497412109375
-0.3213548828125,-0.0023787353515625003,0.9646005419921875
-0.3184371484375,-0.04723026611328125,0.9473968798828125
-0.33813185546875,0.01845394287109375,0.9599309765625
-0.2892598046875,-0.0072805419921875,0.9788550048828125
-0.296554140625,-0.08227818359375,0.9306847509765624
-0.28512634765625,-0.02223105224609375,0.9562444775390625
-0.25303126953125,-0.0553182470703125,0.9336339501953125
-0.29485212890625,-0.0567887890625,0.92355751953125
-0.30311904296875003,-0.042083369140625,0.9370746826171875
-0.36730919921875,-0.034240478515625,0.9429730810546875
-0.284883203125,-0.0332601171875,0.9405154150390624
-0.2970404296875,-0.02909358154296875,0.90586232421875
-0.28585578125,-0.0161037939453125,0.9567360107421875
-0.302389609375,-0.0396324658203125,0.974185439453125
-0.31478998046875,-0.0092412646484375,0.97074470703125
-0.27442798828125,-0.04821062744140625,0.969761640625
-0.3072525,-0.01953505859375,0.9223286865234375
-0.28634207031250003,-0.05090662109375,0.9311762841796875
-0.2878009375,-0.046740085449218746,0.9316678173828125
-0.29971501953125,-0.011201987304687501,0.963371708984375
-0.308225078125,-0.0347306591796875,1.00810123046875
-0.2571647265625,0.0037485229492187503,1.0481611865234375
-0.38432931640625,0.010856142578125,1.0543053515625
-0.29825615234375,-0.02517213623046875,1.000728232421875
-0.2581373046875,0.00865032958984375,0.9660751416015625
-0.34883021484375,-0.04477936279296875,0.951574912109375
-0.31235853515625,-0.050661530761718754,0.9604225097656249
-0.290718671875,-0.027868129882812502,0.9402696484374999
-0.28658521484375,-0.04306373046875,0.93142205078125
-0.28220861328125,-0.046004814453125,0.916184521484375
-0.31235853515625,0.0025230712890624996,0.9704989404296875
-0.282938046875,-0.1062970361328125,0.9483799462890625
-0.28172232421875,-0.01193725830078125,0.983033037109375
-0.34250845703125,-0.04919098876953125,0.95894791015625
-0.3417790234375,-0.01732924560546875,0.93437125
-0.28585578125,-0.04134809814453125,0.8854636962890625
-0.2989855859375,-0.05164189208984375,0.90586232421875
-0.24816837890625,0.0054641552734375,0.921099853515625
-0.35028908203125,-0.03938737548828125,0.9601767431640625
-0.218747890625,-0.05458297607421875,1.01596576171875
-0.31576255859375,-0.0006631030273437505,0.9847534033203125
-0.2707808203125,-0.0847290869140625,0.97860923828125
-0.26664736328125,-0.0097314453125,0.98647376953125
-0.3271903515625,0.02360083984375,0.9813126708984374
-0.29047552734375,-0.08252327392578125,0.9714820068359376
-0.2921775390625,-0.00997653564453125,1.014491162109375
-0.36974064453125,-0.0229663232421875,1.0280083251953125
-0.28269490234375,-0.0857094482421875,1.0186691943359376
-0.25084296875,-0.03399538818359375,0.993355234375
-0.28366748046875,-0.02958376220703125,0.9397781152343749
-0.2882872265625,-0.0651218603515625,0.8515479052734375
-0.3437241796875,-0.06659240234375,0.93535431640625
-0.26907880859375,-0.00752563232421875,0.9356000830078125
-0.29290697265625,-0.03105430419921875,0.941744248046875
-0.34542619140624997,-0.03546593017578125,1.0024485986328124
-0.3446967578125,-0.089140712890625,0.9820499707031249
-0.35393625,-0.02125069091796875,0.95501564453125
-0.3223274609375,-0.05458297607421875,0.855234404296875
-0.32111173828125,-0.045024453125,0.8427003076171875
-0.2561921484375,-0.02737794921875,0.95894791015625
-0.296554140625,-0.029338671875,0.9621428759765625
-0.26421591796875,-0.01732924560546875,0.9822957373046874
-0.2912049609375,-0.00311400634765625,0.9778719384765625
-0.2552195703125,-0.046004814453125,0.94518498046875
-0.31746457031249997,-0.030319033203124998,0.9953213671875
-0.3281629296875,-0.0406128271484375,0.951574912109375
-0.30700935546875,-0.046249904785156254,0.995812900390625
-0.3524773828125,-0.03522083984375,0.9773804052734375
-0.3242726171875,-0.05556333740234375,0.942727314453125
-0.2668905078125,-0.0190448779296875,1.0039231982421875
-0.3339983984375,-0.006790361328125,1.027271025390625
-0.2552195703125,-0.12124754638671875,0.9397781152343749
-0.29047552734375,-0.0396324658203125,0.879811064453125
-0.23917203125,-0.06267095703125,0.8530225048828125
-0.24427806640625,-0.0415931884765625,0.8461410400390625
-0.27029453125,-0.075415654296875,0.9007012255859375
-0.30457791015625,-0.0161037939453125,1.0137538623046876
-0.33521412109375,-0.0612004150390625,0.99827056640625
-0.33278267578125,0.00276816162109375,1.01399962890625
-0.2104809765625,-0.014633251953124999,0.97271083984375
-0.3923530859375,-0.013162709960937501,0.9370746826171875
-0.23455228515625,-0.07370002197265625,0.969270107421875
-0.321841171875,-0.02027032958984375,0.89209939453125
-0.3019033203125,-0.0376717431640625,0.8977520263671875
-0.2912049609375,-0.042328459472656246,0.9090572900390625
-0.3320532421875,-0.02321141357421875,0.9685328076171875
-0.24281919921875,-0.0808076416015625,0.98254150390625
-0.2853694921875,-0.011201987304687501,1.020389560546875
-0.3738741015625,-0.03252484619140625,1.00023669921875
-0.27248283203125,-0.0592396923828125,0.9419900146484375
-0.35393625,0.05105095703125,1.009084296875
-0.27102396484375,-0.00409436767578125,1.0457035205078125
-0.29144810546875,-0.01487834228515625,1.0211268603515624
-0.35758341796875,0.00816014892578125,1.024321826171875
-0.299471875,0.00227798095703125,1.006626630859375
-0.29193439453125003,-0.07370002197265625,0.8948028271484375
-0.269321953125,-0.06340622802734375,0.8638362353515625
-0.23163455078125,-0.0641414990234375,0.88620099609375
-0.28318119140625,-0.02272123291015625,0.9444476806640625
-0.26372962890625,-0.052867343750000004,0.951574912109375
-0.27588685546875,-0.0337502978515625,0.9827872705078124
-0.28950294921874997,-0.011201987304687501,1.0265337255859375
-0.31089966796875,0.00619942626953125,0.9990078662109375
-0.32937865234375,0.008895419921875,0.98450763671875
-0.27394169921875,0.023845930175781252,0.977134638671875
-0.30603677734375,-0.0719843896484375,0.903404658203125
-0.32281375,-0.00948635498046875,0.9056165576171875
-0.2722396875,0.00766996826171875,0.89504859375
-0.30846822265625,-0.030073942871093752,0.902913125
-0.28853037109375,0.042227705078125,0.993355234375
-0.3033621875,-0.03644629150390625,1.0044147314453125
-0.29242068359375,0.02090484619140625,1.0189149609375
-0.38676076171875,-0.0023787353515625003,0.9680412744140625
-0.21412814453125,0.01306195556640625,0.9759058056640625
-0.3388612890625,0.004973974609375,0.9048792578125
-0.33813185546875,-0.0006631030273437505,0.9695158740234375
-0.2260422265625,-0.03154448486328125,1.000728232421875
-0.38287044921875,0.00791505859375,0.9680412744140625
-0.21121041015625,-0.05458297607421875,0.9582106103515625
-0.2202067578125,-0.02149578125,0.892590927734375
-0.33278267578125,-0.0033590966796874996,0.9478884130859375
-0.2659179296875,-0.030319033203124998,0.974185439453125
-0.37946642578125,-0.0043394580078125,0.93928658203125
-0.22774423828125,-0.01683906494140625,0.99237216796875
-0.31697828125,0.0765403515625,1.057746083984375
-0.3057936328125,0.06158984130859375,1.0491442529296875
-0.2955815625,-0.0033590966796874996,1.004660498046875
-0.30895451171875,0.02874773681640625,0.9577190771484375
-0.21121041015625,0.00791505859375,0.9454307470703125
-0.32694720703125,-0.00507472900390625,0.995812900390625
-0.32500205078125,0.03021827880859375,0.9611598095703124
-0.25862359375,0.04320806640625,0.9193794873046874
-0.31138595703125,0.0211499365234375,0.97467697265625
-0.2566784375,-0.03203466552734375,0.9424815478515625
-0.15723232421875,0.03904153076171875,0.952557978515625
-0.3291355078125,0.02360083984375,0.9872110693359375
-0.29436583984375,0.0030132519531249997,1.005643564453125
-0.32500205078125,0.08070688720703124,1.0909245751953125
-0.35855599609375,-0.0004180126953125,1.08478041015625
-0.368524921875,0.07482471923828125,1.0407881884765624
-0.19832375,0.05325677001953125,0.95698177734375
-0.36341888671875,0.0123266845703125,0.948625712890625
-0.30311904296875003,0.0530116796875,1.0471781201171875
-0.23649744140625,0.0005623486328125002,0.9877026025390625
-0.315033125,0.008405239257812499,0.8952943603515625
-0.24087404296875,0.01796376220703125,0.9002096923828125
-0.310170234375,0.0054641552734375,0.9124980224609375
-0.24816837890625,0.0417375244140625,1.042017021484375
-0.37508982421875,0.03659062744140625,1.0565172509765626
-0.3233000390625,0.01796376220703125,1.028745625
-0.2571647265625,0.04541387939453125,0.9940925341796875
-0.26372962890625,0.0530116796875,0.9390408154296875
-0.30603677734375,-0.03252484619140625,0.9606682763671874
-0.253760703125,0.13119549560546875,1.083305810546875
-0.30068759765624997,-0.01144707763671875,0.96681244140625
-0.279047734375,0.07261890625,0.9247863525390625
-0.18738224609375,0.0731090869140625,0.9297016845703125
-0.265431640625,-0.013162709960937501,0.91077765625
-0.2800203125,0.03806116943359375,0.9734481396484375
-0.2279873828125,0.069677822265625,0.946659580078125
-0.2192341796875,-0.0028689160156250004,0.9370746826171875
-0.39867484375,0.04296297607421875,1.0110504296875
-0.23795630859375,0.1005592041015625,1.0174403613281249
-0.26251390625,0.10276501708984374,0.9940925341796875
-0.3072525,0.07482471923828125,0.975168505859375
-0.30166017578125,0.0966377587890625,0.9410069482421874
-0.199296328125,0.093206494140625,1.01203349609375
-0.26956509765625,0.03315936279296875,1.016948828125
-0.3189234375,0.0883046875,0.9744312060546875
-0.30895451171875,0.019679394531249998,0.9567360107421875
-0.29144810546875,0.056933125,0.9503460791015625
-0.1890842578125,0.04884514404296875,0.8707177001953125
-0.2566784375,0.05889384765625,0.852285205078125
-0.24306234375,0.09541230712890625,1.029237158203125
-0.32646091796875,0.1162449853515625,1.14573052734375
-0.30311904296875003,0.06551128662109375,1.07691587890625
-0.3111428125,0.05080586669921875,0.9911433349609375
-0.22823052734375,0.06355056396484375,0.8820229638671875
-0.20829267578125,0.01159141357421875,0.8304119775390625
-0.30992708984375,0.0037485229492187503,0.9591936767578125
-0.2766162890625,0.064776015625,1.0176861279296876
-0.19078626953125,0.0593840283203125,0.965337841796875
-0.32840607421875,0.06257020263671875,0.9832788037109375
-0.27418484375,0.05497240234375,0.965829375
-0.1637972265625,0.03512008544921875,0.977626171875
-0.3787369921875,0.10864718505859375,0.974185439453125
-0.265431640625,0.0417375244140625,0.9169218212890625
-0.29290697265625,0.0201695751953125,0.92945591796875
-0.26154132812499997,0.15227326416015624,0.9985163330078125
-0.3019033203125,0.04002189208984375,0.9306847509765624
-0.372415234375,0.05472731201171875,1.0142453955078126
-0.28026345703125,-0.01781942626953125,0.8997181591796874
-0.244034921875,0.016738310546875,0.7974792529296875
-0.32646091796875,0.030708459472656248,0.754961630859375
-0.17571130859375,0.057913486328125,0.756927763671875
-0.21850474609375,0.16746886474609374,0.874895732421875
-0.33472783203125,0.12874459228515625,0.963371708984375
-0.28707150390625,0.1201664306640625,1.076424345703125
-0.36925435546875,0.16624341308593749,1.0987891064453126
-0.2435486328125,0.0368357177734375,1.00515203125
-0.2143712890625,0.13536203125,1.0319405908203125
-0.4001337109375,0.0010525292968750002,0.9503460791015625
-0.20683380859375,0.053992041015625,0.8616243359375
-0.2892598046875,0.1471263671875,0.788385888671875
-0.228473671875,0.1123235400390625,0.846386806640625
-0.2450075,0.09002031982421875,0.9773804052734375
-0.34226531250000003,0.09247122314453125,1.048406953125
-0.34153587890625,0.0686974609375,1.014491162109375
-0.16306779296875,0.103010107421875,0.9351085498046875
-0.31989601562500003,0.04786478271484375,0.8613785693359375
-0.22190876953125,-0.05997496337890625,0.8323781103515625
-0.18203306640625,0.081442158203125,0.9872110693359375
-0.49812095703125,0.01257177490234375,1.0776531787109376
-0.30166017578125,-0.055073156738281254,1.055779951171875
-0.237226875,0.173596123046875,0.9370746826171875
-0.331566953125,0.03413972412109375,0.8117337158203125
-0.32864921874999997,0.07139345458984375,0.9002096923828125
-0.15771861328125,0.04149243408203125,0.93535431640625
-0.345183046875,0.0456589697265625,0.9577190771484375
-0.2484115234375,0.13021513427734374,1.057746083984375
-0.32475890625,-0.01879978759765625,1.032186357421875
-0.21607330078125,0.15080272216796875,1.1422897949218749
-0.40645546875,0.17825283935546876,1.1459762939453124
-0.28561263671875,0.093206494140625,1.1130435693359375
-0.20342978515625,0.09149086181640625,1.0997721728515626
-0.38505875,0.24344686767578125,1.1100943701171875
-0.20342978515625,0.071638544921875,0.9901602685546875
-0.25838044921875,0.04443351806640625,0.985490703125
-0.30506419921875,0.03610044677734375,0.9360916162109375
-0.251815546875,0.0152677685546875,0.9016842919921875
-0.27637314453125,0.012816865234374999,0.8830060302734375
-0.31673513671875,-0.07860182861328124,0.781012890625
-0.14118478515625,-0.0994345068359375,0.7439021337890624
-0.1608794921875,-0.0268877685546875,0.701876044921875
-0.26761994140625,-0.047965537109375,0.7380037353515625
-0.22482650390625,0.10031411376953125,0.9048792578125
-0.35417939453125,0.1005592041015625,0.963371708984375
-0.1511537109375,0.20521277587890624,1.1602307568359376
-0.26227076171875,0.303003818359375,1.30400421875
-0.46213556640625,0.320650322265625,1.34627607421875
-0.5722800390625,0.18854663330078125,1.223884306640625
-0.26129818359375,0.07261890625,1.079865078125
-0.31089966796875,0.0682072802734375,0.89504859375
-0.24573693359375,-0.02321141357421875,0.725469638671875
-0.1025248046875,0.0201695751953125,0.73874103515625
-0.2406308984375,-0.025662316894531252,0.881777197265625
-0.31770771484375,0.0858537841796875,1.1056705712890624
-0.3242726171875,0.1446754638671875,1.3347250439453124
-0.38457246093749997,0.05889384765625,1.4659644091796875
-0.45046462890625,0.21795747314453126,1.374293466796875
-0.312115390625,0.122617333984375,1.1604765234375
-0.32694720703125,-0.00507472900390625,0.9820499707031249
-0.18884111328125,-0.04723026611328125,0.9252778857421875
-0.257651015625,0.01992448486328125,0.92552365234375
-0.277102578125,-0.065612041015625,0.9257694189453125
-0.27296912109375,-0.0210056005859375,0.9734481396484375
-0.36487775390625,0.05815857666015625,1.0395593554687501
-0.428824765625,0.08756941650390625,1.0112961962890625
-0.29509527343749997,0.0765403515625,0.8655566015625
-0.09887763671875,0.02237538818359375,0.7743771923828124
-0.27442798828125,0.0466393310546875,0.82721701171875
-0.14629082031250001,-0.07664110595703125,0.9213456201171875
-0.33253953125,-0.03742665283203125,1.0162115283203126
-0.419098984375,0.0152677685546875,0.974185439453125
-0.3583128515625,0.064776015625,0.8181236474609375
-0.25692158203125,0.04737460205078125,0.7502920654296875
-0.156502890625,0.15276344482421875,0.834590009765625
-0.3271903515625,0.1544790771484375,0.9370746826171875
-0.30919765625,0.12237224365234375,1.1941465478515625
-0.329621796875,0.1780077490234375,1.2752495263671875
-0.10130908203125,0.14933218017578126,1.2742664599609375
-0.15869119140625,0.17384121337890626,1.315801015625
-0.439523125,0.11550971435546875,1.242562568359375
-0.3427516015625,-0.02076051025390625,1.0265337255859375
-0.29631099609375,-0.015368522949218751,0.9638632421875
-0.3972159765625,0.0093856005859375,0.958456376953125
-0.25935302734375,-0.02958376220703125,0.97467697265625
-0.3339983984375,-0.013652890625,0.99433830078125
-0.284883203125,0.03462990478515625,0.99237216796875
-0.31089966796875,0.0686974609375,0.9820499707031249
-0.23819945312500002,0.08242251953125,0.9572275439453125
-0.257651015625,0.1113431787109375,1.100017939453125
-0.21461443359375,0.07457962890625,1.1489254931640625
-0.31770771484375,0.06306038330078124,1.031203291015625
-0.1589343359375,-0.0386521044921875,0.926015185546875
-0.26518849609375,0.05570767333984375,0.9390408154296875
-0.31187224609374997,-0.05482806640625,0.937811982421875
-0.29509527343749997,-0.0151234326171875,1.010558896484375
-0.35806970703125,0.0436982470703125,1.076424345703125
-0.34785763671875003,0.01208159423828125,0.9877026025390625
-0.294608984375,0.07286399658203124,0.9075826904296875
-0.30166017578125,0.08242251953125,0.8972604931640625
-0.27151025390625,0.0946770361328125,0.9007012255859375
-0.30263275390625,0.0721287255859375,0.8348357763671875
-0.22920310546875,-0.01732924560546875,0.9011927587890625
-0.253760703125,0.05668803466796875,0.914218388671875
-0.2474389453125,0.01257177490234375,0.8712092333984375
-0.2766162890625,-0.0053198193359375,0.88816712890625
-0.2347954296875,0.03266918212890625,0.9395323486328125
-0.25303126953125,0.07433453857421875,0.9936010009765625
-0.27491427734375,0.10399046875,1.0270252587890625
-0.30895451171875,0.07261890625,1.06315294921875
-0.30846822265625,0.091245771484375,1.0778989453125
-0.30457791015625,0.0701680029296875,1.0830600439453124
-0.362689453125,0.0701680029296875,1.0732293798828125
-0.2882872265625,0.07457962890625,1.0874838427734375
-0.290718671875,0.02752228515625,0.974185439453125
-0.28220861328125,0.03904153076171875,0.938795048828125
-0.27102396484375,0.110852998046875,0.9862280029296875
-0.28512634765625,0.06257020263671875,0.9247863525390625
-0.25862359375,0.093206494140625,0.9501003125
-0.263486484375,0.0652661962890625,0.9542783447265625
-0.27977716796875,0.033404453125,0.9582106103515625
-0.27807515625,0.04247279541015625,0.9599309765625
-0.3252451953125,0.10521592041015625,0.998762099609375
-0.3349709765625,0.0584036669921875,0.9596852099609375
-0.32013916015625,0.09884357177734375,0.927981318359375
-0.29631099609375,0.09443194580078125,0.890624794921875
-0.2309051171875,0.04590406005859375,0.865065068359375
-0.26081189453125,0.03904153076171875,0.9284728515625
-0.24330548828125,0.053992041015625,0.9552614111328125
-0.26081189453125,0.01894412353515625,0.955507177734375
-0.26956509765625,0.03364954345703125,0.9532952783203125
-0.24938410156250002,0.02090484619140625,0.9690243408203125
-0.23552486328125,0.03610044677734375,0.9459222802734375
-0.259596171875,0.06600146728515625,0.9793465380859375
-0.32548833984375003,0.0417375244140625,0.99040603515625
-0.23601115234375,0.0270321044921875,0.9729566064453125
-0.337402421875,0.048109873046875,0.9739396728515625
-0.29776986328125,0.0505607763671875,1.0520934521484375
-0.25254498046875,0.0319339111328125,1.0250591259765625
-0.335457265625,-0.00409436767578125,0.9257694189453125
-0.2824517578125,0.06060947998046875,0.947642646484375
-0.23649744140625,0.06502110595703126,0.8879213623046875
-0.2800203125,0.038306259765625,0.9493630126953125
-0.25449013671875,0.07041309326171875,0.997779033203125
-0.2503566796875,0.0544822216796875,0.9793465380859375
-0.25935302734375,0.0250713818359375,0.9950756005859375
-0.3262177734375,0.03928662109375,1.0174403613281249
-0.2970404296875,0.07457962890625,1.0063808642578125
-0.3116291015625,0.08242251953125,0.9439561474609375
-0.36098744140625,0.1182057080078125,0.9559987109375
-0.27491427734375,0.07727562255859374,0.9788550048828125
-0.315033125,0.07457962890625,0.9402696484374999
-0.282938046875,0.05374695068359375,0.954032578125
-0.23139140625,0.014777587890624999,0.9520664453125
