ax,ay,az
-0.3271903515625,-0.14673694091796874,0.81738634765625
-0.33618669921875,-0.0876701708984375,0.91569298828125
-0.31697828125,-0.1543347412109375,0.918150654296875
-0.29047552734375,-0.0955130615234375,0.8694888671875
-0.33083751953125,-0.173451787109375,0.7768348583984375
-0.28974609375,-0.1278649853515625,0.73480876953125
-0.23601115234375,-0.093062158203125,0.74463943359375
-0.34348103515625,-0.0749254736328125,0.780521357421875
-0.3038484765625,-0.0935523388671875,0.849336005859375
-0.26859251953125,-0.12369844970703125,0.9680412744140625
-0.32500205078125,-0.08619962890625,1.04742388671875
-0.39843169921875,-0.06095532470703125,1.0358728564453126
-0.41010263671875,-0.11340465576171875,0.9832788037109375
-0.446331171875,-0.15605037353515624,1.0029401318359374
-0.46553958984375,-0.2151171435546875,0.996795966796875
-0.39575710937499997,-0.1817848583984375,1.0378389892578126
-0.32159802734375,-0.193059013671875,1.052830751953125
-0.33715927734375,-0.208744794921875,0.9685328076171875
-0.31235853515625,-0.20506843994140625,0.9075826904296875
-0.31746457031249997,-0.1935491943359375,0.943710380859375
-0.29825615234375,-0.269527197265625,1.03562708984375
-0.27515742187500003,-0.22712656982421875,1.198324580078125
-0.3485870703125,-0.20776443359375,1.3209621142578125
-0.35952857421875,-0.19820591064453125,1.3730646337890624
-0.4682141796875,-0.23006765380859376,1.3440641748046875
-0.551369609375,-0.311682734375,1.157035791015625
-0.53507892578125,-0.3462404711914063,1.0071181640625
-0.41642439453125,-0.3611909814453125,0.8363103759765624
-0.33181009765625,-0.30751619873046876,0.7050710107421875
-0.36536404296875,-0.27442900390625,0.655180390625
-0.32475890625,-0.2357047314453125,0.5959506396484375
-0.36828177734375,-0.210705517578125,0.6455954931640625
-0.25157240234375,-0.21242114990234376,0.7743771923828124
-0.24865466796875,-0.24281235107421875,0.9911433349609375
-0.3641483203125,-0.21487205322265626,1.0923991748046875
-0.33472783203125,-0.13742350830078126,1.13196759765625
-0.36244630859375,-0.14967802490234375,1.354632138671875
-0.240144609375,-0.3021242114257813,1.4851342041015625
-0.007698437500000002,-0.18202994873046874,1.5962207080078126
-0.014506484375,-0.20972515625,1.9076069921875
-0.22385392578125,-0.3374172192382813,2.021151162109375
-0.446331171875,-0.15065838623046876,2.0336852587890624
-0.63185044921875,-0.177373232421875,1.8233090478515626
-0.668078984375,-0.055073156738281254,1.74441796875
-0.60948115234375,-0.14134495361328125,1.6704422216796875
-0.3505322265625,-0.1641383544921875,1.638738330078125
-0.142886796875,-0.22957747314453125,1.637755263671875
-0.24087404296875,-0.355798994140625,1.5947461083984376
-0.22361078125,-0.3327605029296875,1.441141982421875
-0.370470078125,-0.28153662353515624,1.32661474609375
-0.4434134375,-0.3768767626953125,1.3020380859375
-0.5683897265625,-0.36658296875,1.283851357421875
-0.53896923828125,-0.42908100341796873,1.037101689453125
-0.4030514453125,-0.42025775146484373,0.818860947265625
-0.3145468359375,-0.3827589306640625,0.633061396484375
-0.29776986328125,-0.390111640625,0.5195172265625
-0.24379177734375002,-0.34526010986328126,0.39466779296875
-0.24525064453125,-0.3229568896484375,0.28874238769531246
-0.2328502734375,-0.30163403076171874,0.2194362060546875
-0.24038775390625,-0.2886442431640625,0.2209108056640625
-0.24281919921875,-0.31045728271484374,0.29734421875
-0.3184371484375,-0.3043300244140625,0.4386600146484375
-0.41058892578125,-0.34893646484375,0.7328426367187499
-0.5499107421875,-0.38594510498046875,1.000728232421875
-0.66005521484375,-0.25849813232421875,1.1248403662109374
-0.66540439453125,-0.25359632568359375,1.1341794970703125
-0.508576171875,-0.17516741943359376,0.990897568359375
-0.27929087890625,-0.206784072265625,0.8087845166015625
-0.1414279296875,-0.2523708740234375,0.6883588818359375
-0.14580453125,-0.2842326171875,0.48633873535156247
-0.17279357421875,-0.2455083447265625,0.456109443359375
-0.17692703125,-0.1464918505859375,0.6244595654296875
-0.15966376953125,-0.03056412353515625,0.7704449267578125
-0.16647181640625,0.0378160791015625,0.8431918408203125
-0.28950294921874997,0.0368357177734375,0.892590927734375
-0.4511940625,-0.05458297607421875,0.9257694189453125
-0.49520322265625,-0.07566074462890625,0.8338527099609375
-0.45435494140625,-0.083258544921875,0.74267330078125
-0.461892421875,-0.05752406005859375,0.6431378271484375
-0.4001337109375,-0.09379742919921875,0.50673736328125
-0.3028758984375,-0.1582561865234375,0.45512637695312497
-0.17571130859375,-0.21487205322265626,0.4096595556640625
-0.14629082031250001,-0.25604722900390625,0.4369396484375
-0.20877896484375,-0.277370087890625,0.543602353515625
-0.18689595703125,-0.21560732421875,0.6146289013671875
-0.30214646484375,-0.18521612304687501,0.7448852001953125
-0.39089421875,-0.13791368896484374,0.8309035107421875
-0.4808576953125,-0.1759026904296875,0.782487490234375
-0.4779399609375,-0.171491064453125,0.697943779296875
-0.44025255859375,-0.16144236083984376,0.6436293603515625
-0.35320681640625,-0.1744321484375,0.595704873046875
-0.32111173828125,-0.2670762939453125,0.5807131103515625
-0.30846822265625,-0.30408493408203124,0.5841538427734375
-0.1944334375,-0.34427974853515625,0.663044921875
-0.11200744140625,-0.34329938720703124,0.87637033203125
-0.15139685546875,-0.38447456298828125,1.09952640625
-0.27977716796875,-0.489128134765625,1.1892312158203124
-0.3096839453125,-0.5236858715820313,1.1533492919921875
-0.28658521484375,-0.328348876953125,1.0953483740234375
-0.22823052734375,-0.3249176123046875,1.118696201171875
-0.12367837890625,-0.31731981201171877,1.2506728662109374
-0.294608984375,-0.3977094409179687,1.4239383203125
-0.3515048046875,-0.39207236328125,1.438192783203125
-0.40815748046875,-0.3935429052734375,1.2364184033203125
-0.38919220703125,-0.257762861328125,1.2256046728515626
-0.56376998046875,-0.33251541259765627,1.2941735546875
-0.588327578125,-0.29477150146484377,1.2211808740234376
-0.3942982421875,-0.24722397705078125,1.02088109375
-0.24695265625,-0.3004085791015625,0.9105318896484375
-0.335457265625,-0.373445498046875,0.8648193017578125
-0.2027003515625,-0.38741564697265624,0.8456495068359375
-0.38505875,-0.302859482421875,0.84097994140625
-0.470645625,-0.30580056640625,0.7203085400390625
-0.43174250000000003,-0.34035830322265626,0.695977646484375
-0.48645001953125,-0.3638869750976563,0.8952943603515625
-0.53896923828125,-0.49917683837890625,1.0801108447265624
-0.5139253515625,-0.4778539794921875,1.1486797265625
-0.33472783203125,-0.29085005615234377,1.1331964306640625
-0.38505875,-0.2308029248046875,1.11427240234375
-0.3694975,-0.26339993896484376,1.08379734375
-0.35466568359375,-0.24477307373046875,1.1666206884765624
-0.40378087890625003,-0.22712656982421875,1.1671122216796874
-0.32500205078125,-0.1464918505859375,1.0658563818359374
-0.34883021484375,-0.210705517578125,1.07888201171875
-0.46116298828125,-0.357759716796875,1.15949345703125
-0.5110076171875,-0.3663378784179688,1.1690783544921874
-0.4361191015625,-0.3111925537109375,1.1722733203125
-0.2960678515625,-0.2406065380859375,1.177680185546875
-0.14799283203125,-0.22124440185546876,1.274020693359375
-0.22701480468750002,-0.2651155712890625,1.317275615234375
-0.40037685546875,-0.23913599609375,1.4278705859375
-0.41545181640625,-0.24575343505859376,1.51732962890625
-0.47332021484375,-0.25702759033203126,1.513888896484375
-0.46870046875,-0.14477621826171874,1.437209716796875
-0.33764556640625,-0.34722083251953123,1.212087509765625
-0.2425760546875,-0.375406220703125,1.0688055810546875
-0.28026345703125,-0.33447613525390624,1.0147369287109376
-0.2450075,-0.3511422778320312,0.95698177734375
-0.28853037109375,-0.3347212255859375,1.0112961962890625
-0.4332013671875,-0.181294677734375,1.1179589013671876
-0.42469130859375,-0.25261596435546874,1.0778989453125
-0.4370916796875,-0.285212978515625,1.14376439453125
-0.4351465234375,-0.15850127685546875,1.09067880859375
-0.3797095703125,-0.2376654541015625,0.9402696484374999
-0.32743349609375,-0.2844777075195313,0.8540055712890625
-0.33278267578125,-0.27908572021484374,0.8048522509765625
-0.2396583203125,-0.3783473046875,0.7104778759765625
-0.16647181640625,-0.3925625439453125,0.7399698681640625
-0.12635296875,-0.2945264111328125,0.8068183837890625
-0.1025248046875,-0.196980458984375,0.9088115234375
-0.33521412109375,-0.18497103271484375,1.0346440234375
-0.49179919921875,-0.2288422021484375,1.051847685546875
-0.55939337890625,-0.2484494287109375,0.989914501953125
-0.55112646484375,-0.19085320068359374,0.852285205078125
-0.4604335546875,-0.12614935302734376,0.707774443359375
-0.24306234375,-0.2043331689453125,0.5851369091796875
-0.14847912109375,-0.23300873779296874,0.557365283203125
-0.20245720703125,-0.22516584716796875,0.6274087646484375
-0.27637314453125,-0.17614778076171875,0.6234764990234375
-0.36098744140625,-0.165608896484375,0.6259341650390625
-0.3660934765625,-0.1719812451171875,0.5089492626953125
-0.290718671875,-0.29967330810546877,0.3998288916015625
-0.103983671875,-0.3469757421875,0.46348244140625
-0.13145900390625,-0.37712185302734375,0.5340174560546875
-0.26275705078125,-0.40016034423828123,0.637976728515625
-0.25254498046875,-0.440110068359375,0.677299384765625
-0.18932740234375,-0.3837392919921875,0.8230389794921875
-0.214857578125,-0.24820433837890626,0.8844806298828125
-0.07991236328125,-0.22075422119140625,0.7340714697265625
-0.09425789062500001,-0.2685468359375,0.7117067089843749
-0.226528515625,-0.2249207568359375,0.7645465283203124
-0.27005138671875,-0.21095060791015624,0.886692529296875
-0.34639876953125,-0.2798209912109375,1.0442289208984374
-0.3835998828125,-0.1837455810546875,1.1572815576171875
-0.33472783203125,-0.1484525732421875,1.0958399072265625
-0.4147223828125,-0.11928682373046876,1.0575003173828126
-0.4594609765625,-0.16144236083984376,0.969761640625
-0.40621232421875,-0.1195319140625,0.970253173828125
-0.3991611328125,-0.17761832275390624,1.120662333984375
-0.34883021484375,-0.200901904296875,1.263206962890625
-0.2931501171875,-0.18521612304687501,1.3767511328125
-0.24379177734375002,-0.2254109375,1.519787294921875
-0.16598552734375,-0.2893795141601562,1.620060068359375
-0.30944080078125,-0.29085005615234377,1.9076069921875
-0.5314317578125,-0.3156041796875,1.887454130859375
-0.37581925781250003,-0.22761675048828126,1.719349775390625
-0.3437241796875,-0.3334957739257812,1.7195955419921876
-0.53264748046875,-0.3543284521484375,1.7102564111328125
-0.50298384765625,-0.2974674951171875,1.5104481640625
-0.48985404296875,-0.4986866577148438,1.456871044921875
-0.4604335546875,-0.5533418017578124,1.4728458740234376
-0.4283384765625,-0.39182727294921876,1.4553964453125001
-0.34056330078125,-0.4570213012695313,1.318258681640625
-0.34250845703125,-0.530303310546875,1.096085673828125
-0.18397822265625,-0.3386426708984375,1.0230929931640624
-0.210967265625,-0.31928053466796874,1.181612451171875
-0.407428046875,-0.5195193359375,1.542397822265625
-0.40062,-0.6369176049804688,1.4104211572265626
-0.33132380859375,-0.5099608129882812,1.15162892578125
-0.377278125,-0.47319726318359373,0.9881941357421875
-0.40937320312500003,-0.5092255419921875,0.8144371484375
-0.34542619140624997,-0.5004022900390624,0.7247323388671875
-0.27929087890625,-0.49819647705078124,0.658621123046875
-0.31697828125,-0.5217251489257813,0.6529684912109375
-0.21899103515625,-0.5050590063476562,0.469872373046875
-0.17668388671875,-0.4415806103515625,0.3487094384765625
-0.14945169921875,-0.4092286865234375,0.3386330078125
-0.12124693359375,-0.440110068359375,0.3226581787109375
-0.1560166015625,-0.4682954565429687,0.40646458984375
-0.21023783203125002,-0.50971572265625,0.5042796972656249
-0.263486484375,-0.5072648193359375,0.53229708984375
-0.27029453125,-0.4810401538085938,0.4804403369140625
-0.25303126953125,-0.5192742456054688,0.5708824462890625
-0.1871391015625,-0.5535868920898438,0.7370206689453125
-0.15188314453125001,-0.5425578271484375,0.8785822314453124
-0.2630001953125,-0.5239309619140625,0.7719195263671875
-0.0976619140625,-0.43790425537109373,0.609467802734375
-0.14021220703125,-0.363641884765625,0.5615433154296875
-0.201241484375,-0.4602074755859375,0.50182203125
-0.10714455078125,-0.31192782470703123,0.41432912109375
-0.09255587890625,-0.21952876953125,0.4814234033203125
-0.16549923828125,-0.19575500732421874,0.540653154296875
-0.2255559375,-0.2915853271484375,0.6102051025390625
-0.34931650390625,-0.1896277490234375,0.72104583984375
-0.370470078125,-0.10016977783203125,0.7615973291015625
-0.36633662109375,-0.2692821069335937,0.781504423828125
-0.46456701171875,-0.3239372509765625,0.80067421875
-0.312115390625,-0.28741879150390626,0.6637822216796875
-0.22677166015625,-0.1901179296875,0.580958876953125
-0.18397822265625,-0.269527197265625,0.48658450195312497
-0.18008791015625,-0.1925688330078125,0.414820654296875
-0.14580453125,-0.1665892578125,0.5015762646484375
-0.15771861328125,-0.19379428466796875,0.6352732958984375
-0.3660934765625,-0.12320826904296875,0.8309035107421875
-0.42225986328125,-0.059729873046875,0.905370791015625
-0.49593265625,-0.13791368896484374,0.8038691845703125
-0.4419545703125,-0.0955130615234375,0.75250396484375
-0.407428046875,-0.03399538818359375,0.813945615234375
-0.36487775390625,0.03413972412109375,0.8903790283203125
-0.40864376953125,0.09149086181640625,0.965337841796875
-0.463837578125,-0.00605509033203125,0.80952181640625
-0.30530734375,-0.28741879150390626,0.578992744140625
-0.1827625,-0.33496631591796877,0.5708824462890625
-0.19248828125,-0.29967330810546877,0.60307787109375
-0.34883021484375,-0.2869286108398437,0.7955131201171874
-0.446331171875,-0.361681162109375,0.7733941259765625
-0.40426716796875,-0.369524052734375,0.6111881689453125
-0.35393625,-0.38447456298828125,0.5232037255859375
-0.28755779296875,-0.2957518627929687,0.46348244140625
-0.2425760546875,-0.36290661376953126,0.44185498046875
-0.29242068359375,-0.3690338720703125,0.45955017578125
-0.3456693359375,-0.36682805908203125,0.53328015625
-0.28561263671875,-0.3984447119140625,0.6554261572265625
-0.265431640625,-0.23791054443359375,0.8677685009765626
-0.47137505859375,-0.16144236083984376,1.1936550146484375
-0.36244630859375,-0.28104644287109376,1.36003900390625
-0.30846822265625,-0.33594667724609373,1.5851612109375
-0.37363095703125,-0.20972515625,1.64906052734375
-0.3835998828125,-0.26487048095703125,1.592534208984375
-0.50371328125,-0.265605751953125,1.4880834033203125
-0.30506419921875,-0.2567825,1.3322673779296874
-0.0388209375,-0.222469853515625,1.4866088037109375
-0.022287109375,-0.22908729248046875,1.7645708300781249
-0.1112780078125,-0.20408807861328124,2.046710888671875
-0.2980130078125,-0.14232531494140624,2.129718558349609
-0.475508515625,-0.26192939697265627,2.129718558349609
-0.662243515625,-0.07320984130859375,2.129718558349609
-0.792568984375,-0.10065995849609374,2.129718558349609
-0.8066713671875,-0.20727425292968749,2.129718558349609
-0.479398828125,-0.46657982421875,1.9987864013671874
-0.2542469921875,-0.328348876953125,1.642670595703125
-0.041495527343750005,-0.19624518798828125,1.5116769970703126
-0.247925234375,-0.40555233154296877,1.8252751806640626
-0.51368220703125,-0.43594353271484376,2.07472828125
-0.56279740234375,-0.5918209838867188,1.7790710595703125
-0.40086314453125,-0.6839749487304687,1.4384385498046874
-0.33983386718749997,-0.7138759692382812,1.3452930078125
-0.14069849609375001,-0.6746615161132813,1.1454847607421874
-0.21461443359375,-0.7062781689453125,1.42098912109375
-0.26154132812499997,-0.7251501245117188,1.310394150390625
-0.195406015625,-0.7111799755859375,1.13393373046875
-0.3028758984375,-0.712650517578125,1.0130165625
-0.216802734375,-0.65088775390625,0.7866655224609375
-0.19370400390625,-0.5690275830078125,0.70531677734375
-0.31916658203125,-0.46143292724609375,0.7178508740234375
-0.280992890625,-0.247959248046875,0.698926845703125
-0.2999581640625,-0.13791368896484374,0.6564092236328125
-0.30141703125,-0.15457983154296875,0.5477803857421875
-0.2411171875,-0.3906018212890625,0.4647112744140625
-0.27442798828125,-0.41682648681640627,0.46569434082031247
-0.30457791015625,-0.39991525390625,0.4172783203125
-0.271267109375,-0.4131501318359375,0.37230303222656247
-0.29825615234375,-0.355798994140625,0.40744765625
-0.354908828125,-0.32369216064453127,0.47626230468749997
-0.37557611328125,-0.33006450927734376,0.5477803857421875
-0.4147223828125,-0.38202365966796875,0.610450869140625
-0.4302836328125,-0.271487919921875,0.4681520068359375
-0.3680386328125,-0.167569619140625,0.3747606982421875
-0.30506419921875,-0.12614935302734376,0.3897524609375
-0.44900576171875,-0.18202994873046874,0.34035337402343746
-0.4730770703125,-0.22859711181640624,0.362718134765625
-0.48766574218750003,-0.2604588549804687,0.373531865234375
-0.4905834765625,-0.30114385009765626,0.4408719140625
-0.43733482421875003,-0.302859482421875,0.4824064697265625
-0.34931650390625,-0.22737166015625,0.6392055615234375
-0.44511544921875,-0.28300716552734373,0.61094240234375
-0.5285140234375,-0.271487919921875,0.6795112841796875
-0.4954463671875,-0.21536223388671874,0.6087305029296874
-0.4390368359375,-0.0803174609375,0.557365283203125
-0.35174794921875,-0.10409122314453124,0.5094407958984375
-0.148722265625,-0.26487048095703125,0.488550634765625
-0.1015522265625,-0.2371752734375,0.5273817578125
-0.27418484375,-0.25482177734375,0.626179931640625
-0.34688505859375,-0.3700142333984375,0.5411446875
-0.33570041015625,-0.3415837548828125,0.7134270751953125
-0.419098984375,-0.23006765380859376,0.929947451171875
-0.33618669921875,-0.26241957763671875,1.0130165625
-0.21850474609375,-0.13129625,1.2025026123046876
-0.4040240234375,-0.05115171142578125,1.1449932275390624
-0.59100216796875,-0.2209993115234375,0.84786140625
-0.5567187890625,-0.2567825,0.5153391943359376
-0.27296912109375,-0.19845100097656249,0.29980188476562497
-0.1005796484375,-0.17075579345703126,0.304717216796875
-0.092312734375,-0.15261910888671876,0.3442856396484375
-0.1166271875,-0.08252327392578125,0.570145146484375
-0.086477265625,-0.09134652587890625,0.866048134765625
-0.10714455078125,-0.1749223291015625,1.1558069580078125
-0.376305546875,-0.4621681982421875,1.392971728515625
-0.4409819921875,-0.5575083374023437,1.698705380859375
-0.59391990234375,-0.3837392919921875,1.5898307763671875
-0.502740703125,-0.29624204345703126,1.2904870556640624
-0.3072525,-0.271487919921875,1.0560257177734376
-0.24622322265625,-0.15801109619140624,1.0088385302734375
-0.30749564453125,-0.2504101513671875,0.780521357421875
-0.22823052734375,-0.19992154296875,0.75643623046875
-0.07018658203125,-0.23840072509765625,0.793301220703125
-0.15431458984375,-0.4018759765625,1.0417712548828124
-0.57738607421875,-0.512656806640625,1.203239912109375
-0.6379290625,-0.562655234375,1.042017021484375
-0.5683897265625,-0.5829977319335937,0.97860923828125
-0.3767918359375,-0.6197612817382813,1.0179318945312499
-0.18835482421875,-0.507755,1.2826225244140625
-0.33253953125,-0.4778539794921875,1.35414060546875
-0.37581925781250003,-0.3513873681640625,1.374293466796875
-0.5110076171875,-0.48545177978515625,1.3637255029296875
-0.520247109375,-0.40114070556640624,1.2118417431640625
-0.27734572265625,-0.389131279296875,1.0815854443359374
-0.31041337890625,-0.22957747314453125,1.1336879638671875
-0.3699837890625,-0.32540779296875,1.0597122167968749
-0.4866931640625,-0.36682805908203125,1.1287726318359375
-0.430769921875,-0.34918155517578126,1.2605035302734375
-0.40183572265625,-0.3523677294921875,1.3420980419921875
-0.3889490625,-0.1337471533203125,1.415582255859375
-0.4127772265625,-0.0866898095703125,1.354632138671875
-0.524137421875,-0.3817785693359375,1.250427099609375
-0.43149935546875,-0.31928053466796874,1.2489525
-0.405482890625,-0.22369530517578126,1.3553694384765624
-0.30652306640625,-0.416581396484375,1.37380193359375
-0.19127255859375,-0.34967173583984373,1.354632138671875
-0.23017568359375,-0.42761046142578124,1.357581337890625
-0.35709712890625,-0.5516261694335938,1.199307646484375
-0.48693630859375,-0.43839443603515627,1.1877566162109374
-0.52778458984375,-0.47515798583984376,1.0894499755859375
-0.44414287109375,-0.43912970703125,0.811979482421875
-0.296554140625,-0.24183198974609374,0.76430076171875
-0.35563826171875,-0.279330810546875,0.6755790185546875
-0.33521412109375,-0.3631517041015625,0.6699263867187499
-0.2756437109375,-0.28006608154296875,0.7733941259765625
-0.34421046875,-0.217568046875,0.9773804052734375
-0.397702265625,-0.16193254150390626,1.0621698828125
-0.49204234375,-0.15850127685546875,1.113780869140625
-0.38238416015625,-0.15016820556640625,1.06020375
-0.37168580078125,-0.12320826904296875,0.9999909326171875
-0.3962433984375,-0.2092349755859375,0.9626344091796875
-0.28172232421875,-0.10752248779296875,1.0412797216796874
-0.29339326171875,-0.195019736328125,1.041033955078125
-0.4438997265625,-0.28839915283203127,1.0624156494140624
-0.57203689453125,-0.2798209912109375,1.052830751953125
-0.6471685546875,-0.324427431640625,0.8419630078125
-0.44560173828125,-0.18497103271484375,0.7006472119140625
-0.26664736328125,-0.1249239013671875,0.651739658203125
-0.19710802734375,-0.04919098876953125,0.652722724609375
-0.14580453125,-0.05458297607421875,0.8658023681640625
-0.483289140625,-0.11928682373046876,0.9405154150390624
-0.5722800390625,-0.1170810107421875,0.9139726220703125
-0.3767918359375,-0.17516741943359376,0.851793671875
-0.34299474609375,-0.19673536865234376,0.9975332666015625
-0.28464005859375,-0.23913599609375,1.06020375
-0.338375,-0.149923115234375,1.111814736328125
-0.30166017578125,-0.19600009765625,1.0889584423828125
-0.56085224609375,-0.07909200927734375,1.0638902490234374
-0.60607712890625,-0.24330253173828126,0.8500733056640625
-0.48158712890625,-0.22271494384765625,0.6839350830078125
-0.16452666015625,-0.16977543212890625,0.6947488134765625
-0.1326747265625,-0.02958376220703125,0.7950215869140624
-0.21607330078125,-0.08056255126953125,0.763809228515625
-0.13024328125,-0.2013920849609375,0.8156659814453124
-0.14750654296875,-0.34771101318359376,0.9577190771484375
-0.3028758984375,-0.387170556640625,1.164900322265625
-0.5644994140625,-0.44868822998046876,1.1683410546875
-0.58516669921875,-0.5001571997070312,0.88816712890625
-0.50347013671875,-0.455795849609375,0.59324720703125
-0.42858162109375,-0.4092286865234375,0.43890578125
-0.36463460937500003,-0.2611941259765625,0.37697259765625
-0.15869119140625,-0.18644157470703124,0.3108613818359375
-0.0811280859375,-0.10409122314453124,0.3831167626953125
-0.1929745703125,-0.03693647216796875,0.52639869140625
-0.4045103125,-0.01193725830078125,0.72497810546875
-0.47186134765625,-0.16340308349609375,0.9191337207031249
-0.3729015234375,-0.257762861328125,0.9837703369140625
-0.3155194140625,-0.3307997802734375,1.0948568408203125
-0.4059691796875,-0.43790425537109373,1.2076637109375
-0.53751037109375,-0.44427660400390623,1.097068740234375
-0.51854509765625,-0.2543315966796875,0.91176072265625
-0.20342978515625,-0.1053166748046875,0.7741314257812499
-0.16987583984375,-0.06242586669921875,0.8658023681640625
-0.33910443359375,-0.1553151025390625,0.8682600341796876
-0.4487626171875,-0.2906049658203125,0.8242678125
-0.44171142578125,-0.22124440185546876,0.702859111328125
-0.310170234375,-0.0582593310546875,0.658621123046875
-0.33229638671875,0.0387964404296875,0.78199595703125
-0.35199109375,-0.01438816162109375,0.88030259765625
-0.47259078125,-0.23987126708984374,0.9950756005859375
-0.6082654296875,-0.26732138427734375,0.91569298828125
-0.3553951171875,-0.30751619873046876,0.6613245556640625
-0.13194529296875,-0.122472998046875,0.6839350830078125
-0.19564916015625,-0.163648173828125,0.891607861328125
-0.37703498046875,-0.33055468994140624,0.9380577490234375
-0.4186126953125,-0.4018759765625,0.92650671875
-0.19175884765625,-0.2808013525390625,0.83508154296875
-0.03322861328125,-0.2621744873046875,0.8839890966796875
-0.22288134765625,-0.2844777075195313,1.0727378466796875
-0.51027818359375,-0.24305744140625,1.13098453125
-0.41812640624999997,-0.08595453857421875,1.1120605029296875
-0.49617580078125,-0.05311243408203125,1.1484339599609374
-0.47259078125,0.0809519775390625,1.17522251953125
-0.4565432421875,0.146146005859375,1.2781987255859375
-0.36779548828124997,0.16599832275390625,1.217002841796875
-0.31478998046875,0.127519140625,1.2506728662109374
-0.55161275390625,0.0407571630859375,1.35610673828125
-0.4915560546875,-0.29403623046875,1.2745122265625
-0.107873984375,-0.34329938720703124,1.1749767529296875
-0.37265837890625,-0.098944326171875,1.208155244140625
-0.3456693359375,-0.0317895751953125,1.000728232421875
-0.40256515625,-0.05850442138671875,1.15949345703125
-0.59391990234375,-0.11193411376953125,1.2870463232421876
-0.70868412109375,-0.0994345068359375,1.0722463134765625
-0.46359443359375,0.0030132519531249997,0.946659580078125
-0.22701480468750002,0.06158984130859375,0.9655836083984375
-0.2795340234375,0.085363603515625,0.9837703369140625
-0.39551396484375,-0.10409122314453124,1.01006736328125
-0.62017951171875,-0.1406096826171875,1.05233921875
-0.62163837890625,-0.1533543798828125,0.893573994140625
-0.3378887109375,-0.17663796142578125,0.730384970703125
-0.17182099609375,0.00399361328125,0.7950215869140624
-0.210967265625,0.05129604736328125,0.953541044921875
-0.37654869140625,-0.09526797119140624,1.176697119140625
-0.4278521875,0.02776737548828125,1.553211552734375
-0.54431841796875,0.08021670654296875,1.6520097265625
-0.49593265625,-0.0016434643554687498,1.574839013671875
-0.60899486328125,-0.1239435400390625,1.3878106298828126
-0.41204779296875,-0.046740085449218746,1.06118681640625
-0.31673513671875,-0.14502130859375,0.7183424072265625
-0.25862359375,0.030463369140625002,0.7527497314453125
-0.265431640625,0.04541387939453125,0.6571465234375
-0.4361191015625,0.021885207519531248,0.7365291357421875
-0.55161275390625,-0.029338671875,0.871455
-0.55842080078125,-0.02419177490234375,0.9203625537109374
-0.37849384765625,0.02923791748046875,0.7989538525390625
-0.14191421875,-0.00605509033203125,0.733825703125
-0.2800203125,-0.05213207275390625,0.792318154296875
-0.4978778125,-0.1190417333984375,0.9247863525390625
-0.4993366796875,-0.2935460498046875,0.8540055712890625
-0.2960678515625,-0.26536066162109373,0.8014115185546875
-0.12027435546875,-0.0038492773437499997,0.87440419921875
-0.24233291015625,0.06404074462890624,0.9537868115234375
-0.36682291015625,-0.0788469189453125,1.0245675927734375
-0.57373890625,-0.006790361328125,1.057746083984375
-0.5810332421875,0.07923634521484375,1.029237158203125
-0.40280830078125,0.05913893798828125,0.864082001953125
-0.43149935546875,0.09933375244140626,0.8923451611328125
-0.36633662109375,0.10227483642578125,0.7729025927734375
-0.4589746875,-0.03546593017578125,0.6824604833984375
-0.4789125390625,-0.10065995849609374,0.5863657421875
-0.3252451953125,-0.01830960693359375,0.60701013671875
-0.25594900390624997,-0.025662316894531252,0.7593854296875
-0.4526529296875,-0.1533543798828125,0.9591936767578125
-0.3972159765625,0.02335574951171875,0.984999169921875
-0.28950294921874997,0.014777587890624999,0.7768348583984375
-0.33570041015625,0.08021670654296875,0.77216529296875
-0.33472783203125,0.04002189208984375,0.6760705517578125
-0.3145468359375,0.0289928271484375,0.7561904638671875
-0.19419029296875,0.03806116943359375,0.828691611328125
-0.25011353515625,-0.01978014892578125,0.904387724609375
-0.36730919921875,0.0012976196289062499,0.93535431640625
-0.4691867578125,-0.15457983154296875,0.827708544921875
-0.47332021484375,-0.13840386962890625,0.662553388671875
-0.455084375,-0.16977543212890625,0.6185611669921875
-0.18786853515625002,-0.04772044677734375,0.6682060205078125
-0.08039865234375,0.06453092529296875,0.7832247900390625
-0.22968939453125,0.0878145068359375,0.90389619140625
-0.36439146484375,-0.0053198193359375,0.962388642578125
-0.48255970703125,0.122617333984375,0.9837703369140625
-0.48158712890625,0.111833359375,1.06905134765625
-0.42663646484375,0.02776737548828125,1.035135556640625
-0.442440859375,0.0280124658203125,1.1548238916015625
-0.5003092578125,-0.00654527099609375,1.169815654296875
-0.6238266796875,-0.059484782714843754,1.00023669921875
-0.50395642578125,0.0574233056640625,0.7856824560546875
-0.44292714843750003,0.0613447509765625,0.616349267578125
-0.09255587890625,-0.028358310546875,0.5566279833984376
-0.04733099609375,-0.0543378857421875,0.7345630029296875
-0.408400625,-0.06144550537109375,0.9906518017578125
-0.506631015625,-0.004829638671875,1.0791277783203126
-0.5450478515625,0.10399046875,1.1388490625
-0.524137421875,0.09100068115234375,1.17718865234375
-0.46845732421874997,0.08756941650390625,1.2192147412109375
-0.26251390625,0.0701680029296875,1.2924531884765624
-0.40232201171875,0.08364797119140625,1.4332774511718749
-0.465782734375,0.06060947998046875,1.400836259765625
-0.52049025390625,0.0535018603515625,1.1410609619140626
-0.47575166015625,0.00791505859375,0.9134810888671875
-0.40378087890625003,0.0456589697265625,0.82721701171875
-0.2124261328125,0.085363603515625,0.761843095703125
-0.30846822265625,0.15766525146484375,0.9228202197265625
-0.40280830078125,0.161831787109375,1.0582376171875
-0.28269490234375,0.04786478271484375,1.217985908203125
-0.4828028515625,0.09688284912109375,1.4143534228515624
-0.5440752734375,0.06894255126953125,1.2885209228515624
-0.43441708984375,0.0721287255859375,1.0904330419921875
-0.51927453125,-0.0011532836914062497,0.970253173828125
-0.49471693359375,-0.0298288525390625,0.97467697265625
-0.37119951171875,0.0456589697265625,1.0078554638671875
-0.36220316406249997,-0.04036773681640625,0.9837703369140625
-0.1355924609375,0.016738310546875,0.8658023681640625
-0.209022109375,-0.07051384765625,0.9174133544921875
-0.39016478515624997,-0.2214894921875,0.9405154150390624
-0.4935012109375,-0.28398752685546874,0.854251337890625
-0.524137421875,-0.253841416015625,0.712689775390625
-0.4434134375,-0.12860025634765626,0.669434853515625
-0.28901666015625,-0.2366850927734375,0.591772607421875
-0.35515197265625,-0.0513968017578125,0.621264599609375
-0.3699837890625,0.019679394531249998,0.6161035009765625
-0.3048210546875,0.083402880859375,0.787402822265625
-0.34542619140624997,0.12825441162109374,1.1233657666015624
-0.44365658203125,0.01992448486328125,1.21257904296875
-0.58808443359375,-0.04919098876953125,1.2192147412109375
-0.3500459375,0.0750698095703125,1.1843158837890626
-0.3952708203125,-0.1719812451171875,1.0879753759765625
-0.29825615234375,-0.1729616064453125,1.0486527197265625
-0.12221951171875,-0.046740085449218746,0.8962774267578125
-0.16160892578125,-0.1053166748046875,0.814928681640625
-0.4122909375,-0.2484494287109375,1.025304892578125
-0.6807225,-0.22908729248046875,0.9862280029296875
-0.6566511914062501,-0.1788437744140625,0.7736398925781249
-0.566930859375,-0.13791368896484374,0.6347817626953125
-0.44414287109375,-0.0254172265625,0.5590856494140625
-0.199296328125,0.01404231689453125,0.42022751953125
-0.154557734375,-0.0141430712890625,0.306683349609375
-0.18738224609375,-0.06389640869140625,0.2970984521484375
-0.27394169921875,-0.0190448779296875,0.42440555175781247
-0.2722396875,0.06355056396484375,0.710723642578125
-0.52000396484375,0.12678386962890625,1.200290712890625
-0.755611015625,0.167713955078125,1.5972037744140626
-0.8883679296875,0.24736831298828124,1.7589181982421875
-0.85894744140625,0.28633767578125,1.39739552734375
-0.58370783203125,0.28217114013671873,1.0049062646484375
-0.2853694921875,0.1868310009765625,0.8490902392578125
-0.1219763671875,0.04443351806640625,0.7792925244140625
-0.39745912109375,0.026051743164062502,0.8102591162109375
-0.4351465234375,0.10472573974609375,0.8028861181640625
-0.4536255078125,-0.07762146728515625,0.87637033203125
-0.2610550390625,0.04394333740234375,1.0948568408203125
-0.38505875,-0.010221625976562499,1.24403716796875
-0.5168430859375,-0.0881603515625,1.20078224609375
-0.625285546875,-0.0337502978515625,1.12017080078125
-0.51222333984375,0.0012976196289062499,0.9213456201171875
-0.36876806640625,-0.16977543212890625,0.790352021484375
-0.17692703125,-0.17614778076171875,0.8989808593749999
-0.321841171875,-0.06977857666015624,0.9139726220703125
-0.450221484375,-0.11781628173828125,0.7606142626953125
-0.33326896484375,0.03757098876953125,0.741198701171875
-0.1268392578125,-0.013407800292968751,0.850319072265625
-0.3096839453125,0.1280093212890625,1.16932412109375
-0.4584883984375,0.0799716162109375,1.3956751611328124
-0.39162365234375,0.1799684716796875,1.50848203125
-0.54869501953125,0.17384121337890626,1.4354893505859374
-0.55453048828125,0.06894255126953125,1.2084010107421874
-0.48426171875,0.0608545703125,1.127052265625
-0.44803318359375,-0.00262382568359375,1.0806023779296874
-0.3797095703125,0.19295825927734375,1.2113502099609375
-0.3816547265625,0.01306195556640625,1.3052330517578126
-0.45168035156249997,-0.0612004150390625,1.26173236328125
-0.45921783203125,-0.0494360791015625,0.8820229638671875
-0.33959072265625,-0.1562954638671875,0.5969337060546875
-0.23260712890625002,-0.212666240234375,0.50182203125
-0.3417790234375,-0.26805665527343747,0.400074658203125
-0.42371873046874997,-0.24771415771484376,0.3840998291015625
-0.44511544921875,-0.1102184814453125,0.4057272900390625
-0.32013916015625,-0.0016434643554687498,0.5391785546875
-0.19370400390625,0.06992291259765625,0.733334169921875
-0.4234755859375,-0.01978014892578125,0.94125271484375
-0.5907590234375,-0.03693647216796875,1.095102607421875
-0.45046462890625,0.069677822265625,1.1676037548828124
-0.549424453125,-0.02909358154296875,1.3942005615234374
-0.5654719921875,0.0182088525390625,1.4841511376953125
-0.3709563671875,0.1250682373046875,1.3642170361328125
-0.24865466796875,0.140263837890625,1.22240970703125
-0.377278125,0.1133039013671875,1.15752732421875
-0.465782734375,-0.15752091552734376,1.024321826171875
-0.51854509765625,-0.200901904296875,0.8485987060546875
-0.49034033203125,-0.01953505859375,0.6716467529296875
-0.4030514453125,-0.11046357177734376,0.53229708984375
-0.346155625,-0.11683592041015625,0.381396396484375
-0.32475890625,-0.14526639892578125,0.3482179052734375
-0.368524921875,-0.1857063037109375,0.34551447265625
-0.3991611328125,-0.12075736572265625,0.435465048828125
-0.1803310546875,0.03266918212890625,0.5762893115234375
-0.080641796875,0.1103628173828125,0.9007012255859375
-0.13948277343749999,0.2897689404296875,1.3440641748046875
-0.59683763671875,0.206928408203125,1.5057785986328125
-0.72473166015625,0.27383806884765627,1.7633419970703126
-0.528027734375,-0.076396015625,1.4050142919921875
-0.52681201171875,0.02237538818359375,1.0953483740234375
-0.1210037890625,0.0025230712890624996,0.9100403564453124
-0.107873984375,-0.04919098876953125,0.94911724609375
-0.38311359375,-0.0288484912109375,0.9714820068359376
-0.5431026953125,-0.0886505322265625,0.780521357421875
-0.51951767578125,-0.01438816162109375,0.6824604833984375
-0.46991619140625,0.061834931640625,0.6873758154296875
-0.49909353515625,0.0309535498046875,0.80165728515625
-0.37168580078125,0.16550814208984374,0.8338527099609375
-0.405482890625,0.1809488330078125,0.84294607421875
-0.41593810546875,0.11771552734375,0.7266984716796875
-0.41058892578125,0.034384814453125,0.6755790185546875
-0.26956509765625,-0.028113220214843748,0.63453599609375
-0.33083751953125,-0.01438816162109375,0.75643623046875
-0.430769921875,-0.06879821533203125,0.8112421826171875
-0.37508982421875,0.07923634521484375,0.915201455078125
-0.471618203125,-0.06659240234375,0.875387265625
-0.35417939453125,0.0427178857421875,0.9097945898437501
-0.20342978515625,0.12433296630859375,1.014491162109375
-0.205131796875,0.1172253466796875,1.1054248046875
-0.28196546875,0.1897720849609375,1.2909785888671874
-0.58905701171875,0.0069346972656249995,1.320224814453125
-0.52000396484375,0.08658905517578125,1.37380193359375
-0.4721044921875,0.12163697265625,1.2290454052734374
-0.48985404296875,-0.14526639892578125,1.0614325830078124
-0.3729015234375,0.0093856005859375,1.0388220556640624
-0.29242068359375,-0.051886982421875,0.9051250244140625
-0.29509527343749997,-0.01144707763671875,0.94715111328125
-0.47575166015625,-0.0543378857421875,0.9208540869140625
-0.58516669921875,0.01453249755859375,0.8783364648437499
-0.47332021484375,0.018699033203125,0.757910830078125
-0.1944334375,0.05717821533203125,0.7380037353515625
-0.32257060546875,0.16477287109375,1.0071181640625
-0.4234755859375,0.04982550537109375,1.131476064453125
-0.648627421875,-0.04306373046875,1.198324580078125
-0.60899486328125,0.148106728515625,1.260257763671875
-0.4225030078125,-0.11242429443359375,1.159001923828125
-0.25254498046875,-0.11536537841796875,1.1174673681640626
-0.3811684375,-0.04821062744140625,1.1666206884765624
-0.58613927734375,-0.189137568359375,1.01203349609375
-0.486206875,-0.21781313720703124,0.7468513330078125
-0.47818310546875,-0.24673379638671875,0.727435771484375
-0.49714837890625,-0.2580079516601563,0.671400986328125
-0.4244481640625,-0.19771572998046874,0.521974892578125
-0.26227076171875,-0.04968116943359375,0.432515849609375
-0.197351171875,-0.0406128271484375,0.3457602392578125
-0.1307295703125,-0.06389640869140625,0.3349465087890625
-0.32402947265625,-0.0347306591796875,0.634044462890625
-0.541643828125,-0.0945327001953125,0.868014267578125
-0.6763458984375,-0.081297822265625,1.0919076416015625
-0.6841265234375,0.10202974609375,1.2418252685546876
-0.31308796875,0.1770273876953125,1.1867735498046874
-0.1783858984375,0.18070374267578124,1.2614865966796875
-0.323786328125,0.01747358154296875,1.277952958984375
-0.36779548828124997,0.03462990478515625,1.016948828125
-0.2133987109375,0.0037485229492187503,0.89603166015625
-0.0996070703125,0.05717821533203125,0.9292101513671875
-0.34226531250000003,-0.060710234375,0.87243806640625
-0.3913805078125,0.05472731201171875,0.7910893212890625
-0.3690112109375,-0.07075893798828126,0.7360376025390625
-0.45702953125,-0.1347275146484375,0.842454541015625
-0.39940427734375,0.0446786083984375,0.8301662109375
-0.4886383203125,0.040266982421875,0.7345630029296875
-0.380195859375,0.13560712158203125,0.65026505859375
-0.44171142578125,0.04198261474609375,0.5472888525390625
-0.3223274609375,-0.01683906494140625,0.4470160791015625
-0.09085386718749999,-0.06144550537109375,0.6033236376953125
-0.054868476562500004,0.075559990234375,0.9287186181640625
-0.20877896484375,0.20374223388671875,1.20078224609375
-0.65616490234375,-0.02737794921875,1.36692046875
-0.85213939453125,-0.09281706787109376,1.297614287109375
-0.6792636328125,0.01306195556640625,0.862115869140625
-0.50395642578125,0.11354899169921875,0.6571465234375
-0.2717533984375,0.10717664306640624,0.6003744384765625
-0.08744984375,0.09492212646484376,0.568670546875
-0.045872128906250004,0.06747200927734374,0.622247666015625
-0.01474962890625,-0.059484782714843754,0.73775796875
-0.42955419921875,-0.11928682373046876,1.00810123046875
-0.71549216796875,-0.13056097900390626,1.096085673828125
-0.71695103515625,-0.1509034765625,1.1110774365234375
-0.19808060546875,0.02531647216796875,1.02579642578125
-0.1589343359375,0.1525183544921875,1.2718087939453124
-0.4487626171875,0.05129604736328125,1.367412001953125
-0.62017951171875,-0.0170841552734375,1.3135891162109374
-0.59319046875,0.13707766357421874,0.9483799462890625
-0.43782111328125,0.0819323388671875,0.6780366845703125
-0.28074974609375003,0.05668803466796875,0.563263681640625
-0.3578265625,0.07433453857421875,0.5605602490234375
-0.2396583203125,0.1314405859375,0.66599412109375
-0.42979734375,0.04345315673828125,0.8854636962890625
-0.46481015625,-0.08227818359375,1.0545511181640626
-0.479398828125,-0.07320984130859375,1.2745122265625
-0.34931650390625,-0.00213364501953125,1.3273520458984376
-0.54529099609375,0.1691844970703125,1.429345185546875
-0.4594609765625,-0.042083369140625,1.328089345703125
-0.240144609375,-0.07026875732421875,1.3008092529296875
-0.63403875,-0.07222947998046875,1.1526119921875
-0.3339983984375,0.04884514404296875,0.9820499707031249
-0.3962433984375,-0.10752248779296875,0.8805483642578125
-0.44730375,-0.132276611328125,0.7389868017578125
-0.2921775390625,-0.042328459472656246,0.6195442333984374
-0.3865176171875,0.052031318359375,0.591772607421875
-0.2873146484375,-0.0327699365234375,0.6141373681640625
-0.392839375,-0.0866898095703125,0.850319072265625
-0.4925286328125,-0.08938580322265625,1.00220283203125
-0.54650671875,-0.098944326171875,1.15162892578125
-0.576656640625,-0.028113220214843748,1.284342890625
-0.67877734375,-0.00581,1.3003177197265625
-0.4448723046875,0.11354899169921875,1.0928907080078125
-0.3855450390625,-0.1170810107421875,0.8721922998046875
-0.1764407421875,-0.0798272802734375,0.8967689599609375
-0.0538958984375,-0.0023787353515625003,0.9434646142578125
-0.19029998046875,-0.036201201171875,1.039067822265625
-0.5576913671875,-0.1229631787109375,0.9835245703125
-0.6549491796875,-0.1474722119140625,0.7625803955078125
-0.599998515625,-0.1337471533203125,0.6964691796875
-0.52049025390625,0.0451687890625,0.6003744384765625
-0.209022109375,0.13732275390625,0.747097099609375
-0.3748466796875,0.09051050048828126,0.8540055712890625
-0.65470603515625,-0.1180613720703125,0.733825703125
-0.56766029296875,-0.06340622802734375,0.6623076220703125
-0.30944080078125,0.0387964404296875,0.7463597998046875
-0.160393203125,0.11771552734375,0.9820499707031249
-0.1715778515625,0.14737145751953126,1.2531305322265625
-0.36390517578125,-0.03889719482421875,1.4698966748046876
-0.53410634765625,0.0182088525390625,1.36790353515625
-0.59878279296875,-0.1180613720703125,0.9434646142578125
-0.38700390625000003,-0.093062158203125,0.635027529296875
-0.32281375,-0.149923115234375,0.508211962890625
-0.23406599609375,-0.06585713134765625,0.4558636767578125
-0.3563676953125,-0.057769150390625,0.5074746630859375
-0.30506419921875,-0.03056412353515625,0.512144228515625
-0.2542469921875,0.08854977783203125,0.7026133447265624
-0.3826273046875,0.08266760986328126,1.1327048974609375
-0.74321064453125,0.03315936279296875,1.30105501953125
-0.6218815234375,0.03413972412109375,1.3514371728515624
-0.29752671875000003,-0.07075893798828126,1.0815854443359374
-0.2581373046875,0.1113431787109375,0.8820229638671875
-0.37168580078125,0.1534987158203125,0.7613515625
-0.44073884765625,0.15766525146484375,0.727435771484375
-0.46699845703125,0.15325362548828125,0.8058353173828126
-0.432715078125,0.26011301025390626,0.972219306640625
-0.54334583984375,0.09394176513671874,1.1582646240234376
-0.32111173828125,0.1211467919921875,1.1558069580078125
-0.370470078125,0.2466330419921875,1.12803533203125
-0.3797095703125,0.08364797119140625,1.0108046630859375
-0.22920310546875,0.12678386962890625,1.03661015625
-0.48742259765625,0.09345158447265625,1.2536220654296875
-0.6335524609375,0.1603612451171875,1.31875021484375
-0.7959730078125,0.00521906494140625,1.16539185546875
-0.66102779296875,-0.14624676025390626,0.8938197607421875
-0.35344996093750003,-0.08423890625,0.718588173828125
-0.23528171875,-0.0523771630859375,0.537703955078125
-0.19175884765625,-0.15556019287109374,0.3983542919921875
-0.3670660546875,-0.20653898193359374,0.3779556640625
-0.32694720703125,-0.19085320068359374,0.333226142578125
-0.327676640625,-0.18595139404296876,0.3963881591796875
-0.19346085937500002,-0.1744321484375,0.60111173828125
-0.15625974609374998,0.004973974609375,0.95304951171875
-0.21193984375,0.1319307666015625,1.3828952978515625
-0.6734281640625,0.05105095703125,1.5161007958984376
-0.796459296875,0.212810576171875,1.4286078857421876
-0.6923934375,0.2593777392578125,1.315801015625
-0.55793451171875,0.11796061767578125,1.2351895703125
-0.308225078125,0.2593777392578125,1.24403716796875
-0.35174794921875,0.10276501708984374,0.987948369140625
-0.39575710937499997,-0.108747939453125,0.716622041015625
-0.32475890625,-0.15605037353515624,0.628146064453125
-0.43344451171875,-0.2214894921875,0.6932742138671875
-0.49277177734375,-0.2180582275390625,0.727435771484375
-0.3437241796875,-0.04134809814453125,0.77806369140625
-0.29874244140625,-0.11291447509765624,0.814928681640625
-0.3612305859375,-0.16879507080078124,0.831640810546875
-0.40572603515625,-0.02125069091796875,0.8078014501953125
-0.38578818359375,-0.1935491943359375,0.8923451611328125
-0.4049966015625,-0.15850127685546875,1.1440101611328124
-0.640846796875,-0.03154448486328125,1.12213693359375
-0.49763466796875,-0.02272123291015625,0.9380577490234375
-0.44535859375,-0.0249270458984375,0.975168505859375
-0.25935302734375,-0.09085634521484375,0.847369873046875
-0.21996361328125,-0.0023787353515625003,0.8368019091796874
-0.3267040625,0.1534987158203125,0.9513291455078126
-0.52729830078125,-0.0175743359375,0.839996875
-0.5314317578125,-0.07173929931640625,0.7925639208984375
-0.42371873046874997,0.0515411376953125,0.7945300537109374
-0.39016478515624997,-0.1406096826171875,0.8176321142578125
-0.345183046875,-0.083258544921875,1.03759322265625
-0.29825615234375,0.0436982470703125,0.9862280029296875
-0.19248828125,0.04320806640625,1.0149826953125
-0.346155625,0.02678701416015625,1.18112091796875
-0.2717533984375,-0.008996174316406251,1.228799638671875
-0.3660934765625,-0.0327699365234375,1.260257763671875
-0.784788359375,-0.0180645166015625,1.3116229833984374
-0.7123312890625,-0.04870080810546875,1.079373544921875
-0.22239505859375,0.11305881103515625,1.0992806396484376
-0.314060546875,0.0809519775390625,1.0968229736328126
-0.32086859375,-0.11291447509765624,0.9395323486328125
-0.30919765625,0.1907524462890625,1.029237158203125
-0.55258533203125,0.15962597412109375,1.106899404296875
-0.79718873046875,-0.1621776318359375,1.100017939453125
-0.6496,0.0922261328125,1.0806023779296874
-0.34250845703125,-0.0043394580078125,0.928964384765625
-0.218747890625,0.03315936279296875,0.6357648291015625
-0.14215736328125,-0.03497574951171875,0.49297443359375
-0.13778076171875,-0.0999246875,0.5890691748046875
-0.33521412109375,-0.2670762939453125,0.762826162109375
-0.58711185546875,-0.25114542236328125,0.8215643798828125
-0.70965669921875,-0.20408807861328124,1.0314490576171875
-0.3553951171875,-0.04036773681640625,1.080356611328125
-0.30214646484375,0.14516564453125,1.082322744140625
-0.3476144921875,0.1505576318359375,0.8382765087890625
-0.39818855468750003,-0.0464949951171875,0.80952181640625
-0.3233000390625,0.0593840283203125,0.837539208984375
-0.43344451171875,0.079481435546875,0.987948369140625
-0.4594609765625,0.0250713818359375,1.09952640625
-0.55064017578125,0.06109966064453125,1.1764513525390625
-0.5139253515625,0.05325677001953125,1.0643817822265624
-0.31746457031249997,-0.052867343750000004,0.895540126953125
-0.48815203125,-0.0974737841796875,0.945676513671875
-0.54431841796875,-0.076396015625,0.9198710205078124
-0.4643238671875,-0.0788469189453125,0.95108337890625
-0.34785763671875003,-0.1415900439453125,0.962388642578125
-0.34299474609375,0.01845394287109375,1.0412797216796874
-0.463837578125,0.17237067138671874,0.8360646093749999
-0.27783201171875,0.1093824560546875,0.74267330078125
-0.2581373046875,0.0623251123046875,0.698926845703125
-0.52535314453125,0.055952763671875,0.7380037353515625
-0.44317029296875,-0.12712971435546874,0.6696806201171875
-0.2600824609375,-0.167569619140625,0.7905977880859375
-0.4312562109375,-0.05997496337890625,0.987948369140625
-0.631121015625,-0.12026718505859375,0.973202373046875
-0.37946642578125,-0.12467881103515625,1.0137538623046876
-0.27588685546875,0.1221271533203125,1.230765771484375
-0.3942982421875,0.22187891845703125,1.3216994140625
-0.37217208984375,0.0054641552734375,1.3047415185546876
-0.587355,-0.0249270458984375,1.2152824755859375
-0.3967296875,0.00521906494140625,0.916184521484375
-0.25449013671875,-0.19722554931640626,0.8422087744140625
-0.48450486328125,-0.20408807861328124,0.837539208984375
-0.56571513671875,-0.154824921875,0.822793212890625
-0.5576913671875,-0.14820748291015626,0.69941837890625
-0.36147373046875,-0.1092381201171875,0.674350185546875
-0.16136578125,0.011346323242187501,0.8785822314453124
-0.36366203125,-0.046004814453125,0.9650920751953125
-0.377278125,-0.1543347412109375,1.096085673828125
-0.601943671875,-0.11683592041015625,1.105916337890625
-0.4915560546875,-0.05213207275390625,0.9036504248046875
-0.1866528125,0.06306038330078124,0.9026673583984375
-0.137051328125,0.1235976953125,1.1135351025390625
-0.23139140625,0.20276187255859374,1.0589749169921876
-0.52778458984375,0.12482314697265626,0.9596852099609375
-0.360744296875,-0.036201201171875,0.6913080810546874
-0.35563826171875,-0.09477779052734375,0.6905707812499999
-0.52486685546875,0.036345537109375,0.83901380859375
-0.5751977734375,-0.12933552734375,0.990897568359375
-0.38141158203125003,-0.08693489990234375,1.20471451171875
-0.20245720703125,0.0829127001953125,1.3597932373046875
-0.290718671875,-0.049926259765625,1.3420980419921875
-0.31989601562500003,-0.23202837646484376,1.442125048828125
-0.47866939453125,-0.0259074072265625,1.2437914013671876
-0.6452233984375,0.02335574951171875,0.765775361328125
-0.3048210546875,0.030463369140625002,0.614383134765625
-0.32500205078125,0.1064413720703125,0.6637822216796875
-0.31770771484375,0.03266918212890625,0.5625263818359375
-0.483289140625,-0.0945327001953125,0.60111173828125
-0.5679034375,-0.15065838623046876,0.6382224951171875
-0.617504921875,-0.063651318359375,0.6908165478515624
-0.574711484375,0.07825598388671876,0.7670041943359375
-0.53264748046875,0.11256863037109376,0.822793212890625
-0.56328369140625,0.0231106591796875,0.865065068359375
-0.3189234375,-0.03693647216796875,0.81640328125
-0.470645625,0.1368325732421875,0.921099853515625
-0.49423064453125,0.130460224609375,0.9166760546875
-0.46262185546875,0.01551285888671875,0.810996416015625
-0.29242068359375,0.0358553564453125,0.899472392578125
-0.24136033203125,-0.095022880859375,0.9599309765625
-0.30530734375,-0.0847290869140625,1.114763935546875
-0.54431841796875,-0.0097314453125,1.104933271484375
-0.4857205859375,-0.1259042626953125,0.8525309716796875
-0.31187224609374997,-0.09085634521484375,0.838522275390625
-0.3223274609375,-0.03546593017578125,0.9818042041015624
-0.3126016796875,0.16354741943359374,1.07888201171875
-0.21266927734375,0.171635400390625,1.1703071875
-0.299471875,0.18119392333984374,1.4571168115234374
-0.53410634765625,0.0008074389648437498,1.5328129248046876
-0.6379290625,-0.0327699365234375,1.2958939208984375
-0.36341888671875,0.15178308349609376,0.896523193359375
-0.423961875,-0.04821062744140625,0.6492819921874999
-0.279047734375,-0.06242586669921875,0.499364365234375
-0.1307295703125,-0.1273748046875,0.572111279296875
-0.28512634765625,-0.222469853515625,0.74660556640625
-0.47404964843749997,-0.18252012939453124,1.03562708984375
-0.61653234375,-0.1572758251953125,1.2177401416015625
-0.5012818359375,-0.03105430419921875,1.1887396826171874
-0.4215304296875,0.0907555908203125,1.0621698828125
-0.3563676953125,-0.0033590966796874996,0.80558955078125
-0.19273142578125,0.10717664306640624,0.899472392578125
-0.18786853515625002,0.1123235400390625,0.9169218212890625
-0.33570041015625,0.02237538818359375,1.14769666015625
-0.4759948046875,-0.2308029248046875,1.21847744140625
-0.64157623046875,-0.2955067724609375,1.1073909375
-0.640846796875,-0.28398752685546874,0.9577190771484375
-0.3641483203125,-0.31731981201171877,0.7085117431640625
-0.0947441796875,-0.1822750390625,0.7242408056640625
-0.06240595703125,-0.08938580322265625,1.0673309814453125
-0.38773333984375,-0.17516741943359376,1.2364184033203125
-0.6131283203125,-0.142080224609375,1.230765771484375
-0.67561646484375,0.01306195556640625,1.1172216015625
-0.60267310546875,0.09100068115234375,0.977626171875
-0.391866796875,-0.06095532470703125,0.65616345703125
-0.15066742187499998,0.02727719482421875,0.6623076220703125
-0.38773333984375,0.12923477294921876,0.7380037353515625
-0.50541529296875,0.00178780029296875,0.5605602490234375
-0.5421301171875,-0.0259074072265625,0.6387140283203125
-0.63136416015625,-0.107767578125,0.656654990234375
-0.63403875,-0.05654369873046875,0.5974252392578125
-0.284883203125,0.01306195556640625,0.8864467626953125
-0.32597462890625,0.06109966064453125,0.9641090087890625
-0.2955815625,-0.0337502978515625,1.00023669921875
-0.50930560546875,0.0221302978515625,1.237647236328125
-0.578601796875,0.14933218017578126,1.2138078759765625
-0.30506419921875,-0.03448556884765625,0.9985163330078125
-0.1608794921875,0.00963069091796875,1.040542421875
-0.16306779296875,0.04933532470703125,1.09952640625
-0.45386865234375,-0.05874951171875,1.1125520361328125
-0.62747384765625,-0.10286577148437501,0.938795048828125
-0.59829650390625,-0.07860182861328124,0.9095488232421876
-0.439523125,-0.0768861962890625,0.90193005859375
-0.24038775390625,-0.023456503906250002,0.8397511083984375
-0.32743349609375,0.064776015625,0.6224934326171875
-0.3816547265625,-0.04723026611328125,0.6047982373046875
-0.34785763671875003,-0.0857094482421875,0.6573922900390625
-0.40621232421875,0.0711483642578125,0.91176072265625
-0.50347013671875,0.0731090869140625,1.216019775390625
-0.55696193359375,0.04247279541015625,1.1703071875
-0.24038775390625,-0.073454931640625,0.9660751416015625
-0.14702025390625,-0.19379428466796875,0.905370791015625
-0.2873146484375,-0.07075893798828126,0.798216552734375
-0.4400094140625,0.03904153076171875,0.8436833740234375
-0.389921640625,0.13217585693359374,0.9945840673828125
-0.53751037109375,0.12041152099609376,1.2098756103515624
-0.48061455078125,0.15962597412109375,1.3701154345703126
-0.64303509765625,-0.0004180126953125,1.1784174853515625
-0.547479296875,0.199085517578125,1.0108046630859375
-0.579574375,0.1319307666015625,0.741198701171875
-0.46651216796875,0.13070531494140625,0.68172318359375
-0.2450075,0.1368325732421875,0.9007012255859375
-0.31673513671875,-0.01732924560546875,1.061678349609375
-0.5061447265625,-0.05213207275390625,1.2020110791015626
-0.44511544921875,-0.17957904541015626,1.1838243505859376
-0.2406308984375,-0.091101435546875,1.0162115283203126
-0.21266927734375,-0.030319033203124998,1.0496357861328125
-0.6034025390625,-0.154824921875,0.930930517578125
-0.65762376953125,-0.1180613720703125,0.8515479052734375
-0.59002958984375,0.05472731201171875,0.8918536279296875
-0.41423609375,0.099088662109375,0.8161575146484374
-0.273212265625,0.07065818359375,0.8009199853515625
-0.40815748046875,0.01257177490234375,0.8989808593749999
-0.4118046484375,0.01698340087890625,0.9803296044921875
-0.576656640625,-0.11193411376953125,1.118696201171875
-0.68680111328125,-0.10703230712890625,1.0589749169921876
-0.5119801953125,-0.11144393310546875,0.9149556884765625
-0.1866528125,-0.0651218603515625,0.8318865771484375
-0.115654609375,-0.0053198193359375,1.0329236572265625
-0.31381740234375,0.03953171142578125,1.17915478515625
-0.6461959765625,-0.0366913818359375,1.110831669921875
-0.5168430859375,-0.00703545166015625,0.93535431640625
-0.4866931640625,0.04320806640625,0.85081060546875
-0.333512109375,0.05031568603515625,0.8544971044921875
-0.19224513671875,-0.008996174316406251,0.871946533203125
-0.27151025390625,0.01012087158203125,0.9429730810546875
-0.470645625,-0.04306373046875,0.902913125
-0.5445615625,-0.13252170166015625,0.897506259765625
-0.55550306640625,-0.029338671875,0.92945591796875
-0.5895433007812501,-0.028358310546875,0.943710380859375
-0.41058892578125,-0.04698517578125,0.9097945898437501
-0.39891798828125,0.0603643896484375,0.8997181591796874
-0.3111428125,-0.020515419921875,0.7291561376953125
-0.3612305859375,-0.092081796875,0.5659671142578125
-0.24573693359375,-0.08007237060546875,0.5148476611328126
-0.32354318359375,0.0008074389648437498,0.53622935546875
-0.30263275390625,0.03928662109375,0.5276275244140625
-0.308225078125,-0.1102184814453125,0.789368955078125
-0.46602587890625,-0.067572763671875,0.99237216796875
-0.48766574218750003,-0.03644629150390625,1.11034013671875
-0.5304591796875,0.03413972412109375,1.1857904833984374
-0.5995122265625,0.08217742919921875,1.0781447119140626
-0.53216119140625,0.0750698095703125,1.028254091796875
-0.43344451171875,0.06404074462890624,1.1371286962890625
-0.40815748046875,0.05668803466796875,1.1617053564453126
-0.405482890625,0.0059543359375,1.115747001953125
-0.23747001953125,0.03315936279296875,0.999745166015625
-0.339347578125,-0.13644314697265625,0.7640549951171876
-0.3835998828125,-0.08007237060546875,0.7778179248046875
-0.42274615234375,0.01404231689453125,0.7699533935546875
-0.415208671875,0.00668960693359375,0.739232568359375
-0.4866931640625,-0.01634888427734375,0.8977520263671875
-0.529972890625,-0.01438816162109375,0.8783364648437499
-0.50371328125,-0.10360104248046875,0.93928658203125
-0.44317029296875,0.0373258984375,1.0540595849609375
-0.41982841796875,0.136342392578125,0.977134638671875
-0.3213548828125,0.10962754638671875,0.959439443359375
-0.347128203125,0.185360458984375,1.006626630859375
-0.41058892578125,0.18830154296875,1.12213693359375
-0.58079009765625,0.0652661962890625,1.2236385400390626
-0.40815748046875,-0.0023787353515625003,1.08379734375
-0.38432931640625,0.0005623486328125002,1.1238572998046874
-0.37557611328125,0.07065818359375,1.092153408203125
-0.4278521875,0.01012087158203125,1.0063808642578125
-0.467727890625,-0.059729873046875,0.97271083984375
-0.31284482421875,-0.09012107421875,0.9665666748046875
-0.52924345703125,-0.07909200927734375,1.0378389892578126
-0.4526529296875,-0.1102184814453125,0.9277355517578125
-0.10082279296875,0.0182088525390625,0.9970417333984375
-0.38238416015625,0.07090327392578125,1.0629071826171874
-0.35758341796875,-0.0190448779296875,1.079373544921875
-0.46870046875,0.03561026611328125,1.1159927685546875
-0.59319046875,0.12629368896484375,1.0471781201171875
-0.55428734375,0.14908708984375,0.9481341796875
-0.38432931640625,-0.00507472900390625,0.823776279296875
-0.3967296875,0.02727719482421875,0.724486572265625
-0.3408064453125,-0.03840701416015625,0.6146289013671875
-0.2931501171875,0.06257020263671875,0.610450869140625
-0.43247193359375,0.12678386962890625,0.5998829052734375
-0.36682291015625,0.19442880126953124,0.8065726171875
-0.439523125,0.19589934326171876,0.95796484375
-0.52316484375,0.19222298828125,1.1268064990234374
-0.4458448828125,0.0946770361328125,1.0034316650390624
-0.463837578125,0.050070595703125,0.8554801708984375
-0.47283392578125,0.05276658935546875,0.7129355419921874
-0.35223423828125,-0.0719843896484375,0.6249510986328125
-0.39697283203125,-0.12565917236328125,0.5890691748046875
-0.37703498046875,-0.10752248779296875,0.5423735205078125
-0.38627447265625,-0.030319033203124998,0.6510023583984375
-0.34396732421875,-0.0827683642578125,0.606518603515625
-0.29971501953125,-0.00458454833984375,0.8431918408203125
-0.346155625,0.048109873046875,1.0329236572265625
-0.338375,0.08168724853515624,1.0179318945312499
-0.53264748046875,0.12433296630859375,1.149171259765625
-0.62747384765625,0.1182057080078125,1.0179318945312499
-0.50347013671875,-0.06977857666015624,0.8220559130859375
-0.3223274609375,0.07286399658203124,0.7117067089843749
-0.24914095703125,0.124578056640625,0.70335064453125
-0.27637314453125,0.07065818359375,0.71318130859375
-0.1647698046875,0.09051050048828126,0.8515479052734375
-0.3466419140625,0.16256705810546876,1.08281427734375
-0.66102779296875,0.01600303955078125,1.1636714892578124
-0.6812087890625,0.0069346972656249995,1.2777071923828125
-0.5683897265625,0.14099910888671874,1.302529619140625
-0.50249755859375,0.16501796142578126,1.1046875048828124
-0.2795340234375,0.11698025634765626,1.0132623291015626
-0.24233291015625,-0.01634888427734375,0.9980247998046875
-0.5056584375,-0.05482806640625,1.0481611865234375
-0.45678638671875,0.0162481298828125,0.981066904296875
-0.4701593359375,-0.06267095703125,0.9009469921875
-0.4954463671875,0.028257556152343752,0.8933282275390625
-0.4759948046875,-0.0016434643554687498,0.8132083154296875
-0.5674171484375,0.07237381591796875,0.8667854345703125
-0.5946493359375,0.09443194580078125,0.9326508837890625
-0.4643238671875,-0.05874951171875,0.8825144970703125
-0.29509527343749997,0.146146005859375,1.0343982568359376
-0.23139140625,0.21991819580078126,1.0732293798828125
-0.316005703125,0.1505576318359375,1.25681703125
-0.68266765625,0.13732275390625,1.275986826171875
-0.635011328125,-0.0011532836914062497,0.9921264013671875
-0.44122513671875,-0.10311086181640625,0.70335064453125
-0.2250696484375,0.0059543359375,0.6829520166015625
-0.12829812499999999,0.08413815185546875,0.6470700927734375
-0.049276152343750004,0.0593840283203125,0.7365291357421875
-0.300444453125,0.09492212646484376,1.0407881884765624
-0.61142630859375,0.0976181201171875,1.13000146484375
-0.753665859375,0.0319339111328125,1.248460966796875
-0.5392123828125,0.238299970703125,1.127052265625
-0.40815748046875,0.307905625,1.134916796875
-0.3816547265625,0.267710810546875,1.071509013671875
-0.3446967578125,0.181439013671875,0.95501564453125
-0.24476435546875,0.19393862060546874,0.9685328076171875
-0.31624884765625,0.21844765380859374,1.10640787109375
-0.6024299609375,0.03021827880859375,0.9444476806640625
-0.51757251953125,-0.02223105224609375,0.716622041015625
-0.30652306640625,-0.0268877685546875,0.4902710009765625
-0.3048210546875,0.05864875732421875,0.5005931982421875
-0.44706060546875,0.0672269189453125,0.5384412548828125
-0.42371873046874997,0.103010107421875,0.6126627685546875
-0.39575710937499997,0.17090012939453125,0.8269712451171874
-0.4059691796875,0.24246650634765626,0.9198710205078124
-0.46942990234375,0.30618999267578123,1.100017939453125
-0.58565298828125,0.22972180908203124,1.1722733203125
-0.52097654296875,-0.02664267822265625,1.079865078125
-0.206104375,-0.0641414990234375,1.0700344140625
-0.27491427734375,-0.0631611376953125,0.925032119140625
-0.3320532421875,-0.092081796875,0.997779033203125
-0.29582470703125,-0.00654527099609375,0.892590927734375
-0.4978778125,-0.016593974609375,0.6834435498046875
-0.298499296875,0.05815857666015625,0.7060540771484375
-0.255705859375,0.07188363525390624,0.73677490234375
-0.14969484375,0.08242251953125,0.71711357421875
-0.4614061328125,0.10521592041015625,0.8279543115234375
-0.5217059765625,0.011346323242187501,0.8461410400390625
-0.5567187890625,0.1201664306640625,0.7746229589843749
-0.48499115234375,0.0368357177734375,0.674350185546875
-0.07188859375000001,-0.00752563232421875,0.77806369140625
-0.09741876953125,0.11550971435546875,1.0840431103515624
-0.32548833984375003,0.1809488330078125,1.285817490234375
-0.3797095703125,0.08021670654296875,1.155069658203125
-0.2566784375,0.09051050048828126,1.11034013671875
-0.2333365625,0.1000690234375,1.0053977978515625
-0.1710915625,0.0309535498046875,1.1513831591796875
-0.39502767578125,0.0584036669921875,1.357581337890625
-0.63574076171875,0.08242251953125,1.3263689794921876
-0.38967849609375,0.057913486328125,1.0304659912109375
-0.35199109375,0.246142861328125,0.99433830078125
-0.18397822265625,0.05472731201171875,0.8579378369140624
-0.41691068359375,0.15717507080078125,1.102967138671875
-0.63185044921875,0.0927163134765625,1.1690783544921874
-0.5732526171875,0.07629526123046874,1.2821309912109375
-0.510521328125,0.16795904541015624,1.16932412109375
-0.4356328125,0.1593808837890625,0.8928366943359375
-0.3096839453125,0.03806116943359375,0.7134270751953125
-0.299471875,0.07531489990234375,0.677299384765625
-0.315033125,0.034384814453125,0.7262069384765625
-0.3038484765625,0.07580508056640625,1.014491162109375
-0.56522884765625,0.14516564453125,1.3268605126953126
-0.76266220703125,-0.01144707763671875,1.278936025390625
-0.63598390625,-0.01953505859375,0.95796484375
-0.594163046875,0.05325677001953125,0.777080625
-0.4662690234375,0.03217900146484375,0.663044921875
-0.40937320312500003,0.0936966748046875,0.6040609375
-0.42590703125,0.128499501953125,0.6755790185546875
-0.4215304296875,0.0936966748046875,0.544585419921875
-0.4438997265625,0.0917359521484375,0.62667146484375
-0.45484123046875,0.00963069091796875,0.6087305029296874
-0.3889490625,-0.1092381201171875,0.4932202001953125
-0.24184662109375,-0.0651218603515625,0.5509753515625
-0.354908828125,-0.05090662109375,0.5389327880859375
-0.38141158203125003,0.05080586669921875,0.5040339306640624
-0.209022109375,0.06845237060546874,0.5873488085937499
-0.39891798828125,0.1113431787109375,0.8697346337890625
-0.5367809375,0.114774443359375,1.102967138671875
-0.4721044921875,0.1652630517578125,1.2595204638671875
-0.41812640624999997,0.2485937646484375,1.2575543310546875
-0.24695265625,0.1784979296875,1.0466865869140625
-0.20026890625,0.0897752294921875,0.9567360107421875
-0.26713365234374997,0.06502110595703126,0.96484630859375
-0.33715927734375,0.0505607763671875,0.8230389794921875
-0.45727267578124997,0.0280124658203125,0.7399698681640625
-0.50249755859375,-0.0170841552734375,0.6079932031249999
-0.458002109375,0.01796376220703125,0.5354920556640625
-0.36439146484375,0.06673673828125,0.5797300439453125
-0.2766162890625,0.0525214990234375,0.57161974609375
-0.3699837890625,0.0387964404296875,0.654688857421875
-0.45435494140625,0.010856142578125,0.822793212890625
-0.46894361328125,0.024581201171875,0.915201455078125
-0.58711185546875,0.10178465576171875,1.025304892578125
-0.442440859375,0.18315464599609374,1.0402966552734374
-0.33132380859375,0.10399046875,1.0130165625
-0.37654869140625,0.1740863037109375,0.935845849609375
-0.42274615234375,0.00865032958984375,0.828691611328125
-0.43198564453125,-0.03546593017578125,0.714655908203125
-0.4818302734375,-0.00605509033203125,0.676316318359375
-0.51270962890625,0.00668960693359375,0.7075286767578125
-0.467727890625,-0.07664110595703125,0.76921609375
-0.5226785546875,-0.12222790771484375,0.8579378369140624
-0.49593265625,-0.0651218603515625,0.756927763671875
-0.39891798828125,-0.0033590966796874996,0.6800028173828125
-0.3495596484375,-0.00262382568359375,0.6942572802734375
-0.50760359375,-0.08448399658203125,0.7065456103515625
-0.35952857421875,0.030708459472656248,0.816894814453125
-0.40475345703125,0.0515411376953125,0.9110234228515625
-0.44535859375,0.05374695068359375,0.9196252539062499
-0.46310814453125,-0.013652890625,0.9881941357421875
-0.4672416015625,-0.013652890625,0.9867195361328125
-0.53021603515625,-0.0038492773437499997,0.86064126953125
-0.44706060546875,0.024091020507812498,0.8795652978515625
-0.4351465234375,0.07041309326171875,0.9277355517578125
-0.470645625,0.00791505859375,1.0619241162109374
-0.43587595703125,-0.08007237060546875,1.052830751953125
-0.3505322265625,-0.03056412353515625,1.0899415087890625
-0.40864376953125,-0.05458297607421875,1.0560257177734376
-0.40937320312500003,0.05031568603515625,0.9159387548828125
-0.32986494140625,-0.0768861962890625,0.880794130859375
-0.298499296875,-0.0092412646484375,1.0378389892578126
-0.331566953125,-0.11561046875,1.1096028369140625
-0.43976626953125,-0.09526797119140624,1.1209081005859376
-0.3446967578125,-0.09134652587890625,0.9346170166015625
-0.44511544921875,-0.2219796728515625,0.8874298291015625
-0.35612455078125,-0.1651187158203125,0.9881941357421875
-0.2746711328125,-0.0200252392578125,0.993846767578125
-0.4409819921875,-0.00311400634765625,1.0909245751953125
-0.43733482421875003,-0.06977857666015624,1.048898486328125
-0.294608984375,-0.0817880029296875,0.8697346337890625
-0.30992708984375,0.008405239257812499,0.8274627783203125
-0.3456693359375,-0.17026561279296876,0.7114609423828124
-0.27272597656249997,-0.0661022216796875,0.6603414892578126
-0.32548833984375003,-0.1778634130859375,0.769707626953125
-0.37338781249999997,-0.1053166748046875,0.879811064453125
-0.34980279296875,-0.169530341796875,0.9827872705078124
-0.483289140625,0.0003172583007812497,1.0555341845703126
-0.63963107421875,0.00717978759765625,0.9832788037109375
-0.38335673828125,0.05080586669921875,0.8967689599609375
-0.16598552734375,-0.03350520751953125,0.7969877197265625
-0.1735230078125,0.11771552734375,0.7279273046875
-0.23406599609375,0.0525214990234375,0.627162998046875
-0.4122909375,0.0294830078125,0.6696806201171875
-0.44462916015625,0.07923634521484375,0.7286646044921875
-0.45313921875,0.06624655761718751,0.788877421875
-0.55039703125,0.1113431787109375,0.8613785693359375
-0.5353220703125,0.106931552734375,0.9191337207031249
-0.594163046875,0.14933218017578126,0.9537868115234375
-0.4118046484375,0.04884514404296875,1.010558896484375
-0.44924890625,-0.02615249755859375,0.8599039697265625
-0.3826273046875,0.11403917236328125,0.8279543115234375
-0.3583128515625,-0.08987598388671875,0.765283828125
-0.40767119140625,-0.13105115966796876,0.8579378369140624
-0.304334765625,-0.1406096826171875,0.8195982470703125
-0.31746457031249997,-0.154824921875,0.6200357666015625
-0.39259623046875003,0.01012087158203125,0.5753062451171875
-0.434660234375,-0.05605351806640625,0.6141373681640625
-0.4079143359375,-0.05556333740234375,0.7788009912109375
-0.5110076171875,-0.22345021484375,0.9267524853515625
-0.46505330078125,-0.23521455078125,1.1046875048828124
-0.3811684375,-0.19183356201171875,1.2138078759765625
-0.35661083984374997,-0.052867343750000004,1.3307927783203124
-0.428824765625,-0.0798272802734375,1.331530078125
-0.23163455078125,-0.06830803466796875,1.181612451171875
-0.2698082421875,-0.1562954638671875,1.028745625
-0.5448047070312501,-0.057769150390625,0.9282270849609375
-0.37363095703125,-0.0082609033203125,0.7561904638671875
-0.1608794921875,-0.13301188232421876,0.7517666650390625
-0.286828359375,-0.210705517578125,0.992863701171875
-0.60656341796875,-0.12173772705078124,1.096085673828125
-0.6705104296875,-0.106787216796875,1.0149826953125
-0.47575166015625,-0.14109986328125,1.050864619140625
-0.54918130859375,-0.13129625,1.132459130859375
-0.3767918359375,-0.0621807763671875,1.24796943359375
-0.31916658203125,-0.10654212646484375,1.2489525
-0.3067662109375,-0.1509034765625,1.1400778955078126
-0.28318119140625,-0.18104958740234375,0.90389619140625
-0.34299474609375,-0.08227818359375,0.8810398974609375
-0.4302836328125,-0.014633251953124999,1.056271484375
-0.5683897265625,-0.104826494140625,1.169815654296875
-0.551369609375,-0.00654527099609375,1.1130435693359375
-0.45921783203125,-0.0175743359375,1.0088385302734375
-0.5586639453125,-0.01978014892578125,0.9380577490234375
-0.5601228125,-0.08619962890625,0.9149556884765625
-0.45289607421875,0.16109651611328124,1.098051806640625
-0.45678638671875,0.1064413720703125,1.1427813281249999
-0.329621796875,-0.14918784423828124,1.2546051318359375
-0.47283392578125,-0.0729647509765625,1.139340595703125
-0.52583943359375,-0.02370159423828125,0.7475886328125
-0.41642439453125,-0.09428760986328125,0.538687021484375
-0.39551396484375,-0.1464918505859375,0.523941025390625
-0.3524773828125,-0.19403937500000001,0.6296206640625
-0.26567478515625,-0.2200189501953125,0.7851909228515626
-0.22190876953125,-0.05311243408203125,1.111814736328125
-0.56984859375,-0.17614778076171875,1.28729208984375
-0.69117771484375,-0.2004117236328125,1.44851498046875
-0.55039703125,0.10962754638671875,1.3008092529296875
-0.6277169921875,0.11845079833984375,1.05528841796875
-0.45435494140625,0.01600303955078125,0.7301392041015625
-0.2678630859375,-0.0141430712890625,0.610450869140625
-0.15917748046875,0.073599267578125,0.6500192919921874
-0.2007551953125,0.16869431640625,0.7321053369140624
-0.39113736328125,0.00276816162109375,0.91176072265625
-0.59051587890625,-0.07835673828125,1.01399962890625
-0.650572578125,-0.03203466552734375,1.01989802734375
-0.46456701171875,-0.065612041015625,0.9424815478515625
-0.49763466796875,-0.2092349755859375,1.064136015625
-0.384086171875,-0.26977228759765626,0.9980247998046875
-0.48207341796875003,-0.2013920849609375,0.8144371484375
-0.27613,-0.17516741943359376,0.6610787890625
-0.1433730859375,0.03536517578125,0.6453497265625
-0.1521262890625,0.12947986328125,0.8844806298828125
-0.109819140625,0.093206494140625,1.1617053564453126
-0.60170052734375,-0.15507001220703126,1.2963854541015625
-0.685585390625,-0.306780927734375,1.085271943359375
-0.51927453125,-0.2474690673828125,0.7242408056640625
-0.37460353515625,-0.15408965087890625,0.558348349609375
-0.1657423828125,-0.16830489013671876,0.42219365234375
-0.09085386718749999,-0.18055940673828125,0.43202431640625
-0.11881548828124999,-0.24673379638671875,0.832623876953125
-0.5100350390625,-0.2268814794921875,1.0963314404296876
-0.67026728515625,-0.10801266845703125,1.0621698828125
-0.6316073046875,0.0397768017578125,0.9051250244140625
-0.28512634765625,0.08242251953125,0.764792294921875
-0.14799283203125,0.11649007568359375,0.922082919921875
-0.29631099609375,0.22432982177734376,0.9842618701171875
-0.28391062499999997,0.01845394287109375,0.957473310546875
-0.40669861328125,-0.15899145751953125,1.002694365234375
-0.57446833984375,-0.0866898095703125,1.1336879638671875
-0.56182482421875,-0.11144393310546875,1.0425085546875
-0.52827087890625,-0.0641414990234375,1.0914161083984375
-0.54042810546875,-0.10164031982421876,1.1759598193359375
-0.586382421875,-0.07958218994140626,1.1174673681640626
-0.39356880859375,-0.154824921875,1.0112961962890625
-0.44997833984375,-0.0308092138671875,0.7266984716796875
-0.1599069140625,0.0564429443359375,0.5981625390625
-0.11249373046875,0.03119864013671875,0.6097135693359375
-0.09061072265625,-0.04036773681640625,0.7905977880859375
-0.3544225390625,-0.108747939453125,1.2270792724609374
-0.6549491796875,-0.11389483642578124,1.3470133740234376
-0.642791953125,-0.010221625976562499,1.287783623046875
-0.50881931640625,-0.09722869384765626,1.1607222900390626
-0.346155625,-0.23104801513671874,1.0825685107421874
-0.35758341796875,0.08242251953125,1.2467406005859374
-0.53945552734375,0.19638952392578124,1.1430270947265626
-0.46164927734375,0.01796376220703125,0.969761640625
-0.39210994140625,-0.07664110595703125,0.7817501904296875
-0.42615017578125003,-0.21952876953125,0.78592822265625
-0.3865176171875,-0.151883837890625,0.7203085400390625
-0.14653396484375,-0.03105430419921875,0.673367119140625
-0.047574140625,0.01110123291015625,0.866048134765625
-0.2561921484375,-0.14477621826171874,1.079865078125
-0.66832212890625,-0.17124597412109374,1.2310115380859374
-0.80983224609375,-0.22345021484375,1.138357529296875
-0.7687408203125,-0.1700205224609375,0.95698177734375
-0.56911916015625,0.10202974609375,0.9990078662109375
-0.1929745703125,0.1000690234375,0.9324051171875
-0.22823052734375,0.01845394287109375,0.89209939453125
-0.37460353515625,0.04835496337890625,0.843929140625
-0.36585033203125,0.02482629150390625,0.8820229638671875
-0.4380642578125,0.024581201171875,1.127543798828125
-0.4993366796875,0.008895419921875,1.3691323681640626
-0.39648654296875,-0.0288484912109375,1.155069658203125
-0.2824517578125,-0.12320826904296875,1.07298361328125
-0.34299474609375,-0.08742508056640624,1.1459762939453124
-0.61969322265625,-0.15507001220703126,1.0112961962890625
-0.6923934375,-0.1386489599609375,0.818860947265625
-0.57981751953125,-0.0729647509765625,0.7212916064453125
-0.304334765625,-0.24134180908203126,0.7866655224609375
-0.29363640625,-0.122472998046875,0.845403740234375
-0.45702953125,-0.04428918212890625,0.8026403515625
-0.36487775390625,0.07482471923828125,0.5942302734375
-0.2552195703125,0.05913893798828125,0.599637138671875
-0.21607330078125,0.0250713818359375,0.8368019091796874
-0.5129527734375,-0.114630107421875,1.002694365234375
-0.53605150390625,-0.1494329345703125,1.0545511181640626
-0.4589746875,-0.08693489990234375,0.98450763671875
-0.42371873046874997,0.0069346972656249995,0.9749227392578125
-0.51173705078125,-0.2844777075195313,0.8183694140625
-0.5528284765625,-0.19600009765625,0.76823302734375
-0.43927998046875,-0.03252484619140625,0.6510023583984375
-0.23990146484375,0.1633023291015625,0.718096640625
-0.1706052734375,0.07261890625,0.78986048828125
-0.33813185546875,0.024581201171875,0.97860923828125
-0.3578265625,-0.0001729223632812504,0.903404658203125
-0.40621232421875,0.016738310546875,0.91765912109375
-0.49860724609375,0.05423713134765625,1.0031858984375
-0.587355,-0.0866898095703125,0.983033037109375
-0.49228548828125,-0.12418863037109375,1.0452119873046875
-0.4915560546875,-0.0415931884765625,0.961897109375
-0.45240978515625,-0.08987598388671875,0.77806369140625
-0.32986494140625,-0.11291447509765624,0.72891037109375
-0.2805066015625,-0.071494208984375,0.72202890625
-0.2678630859375,-0.1979608203125,0.77019916015625
-0.33253953125,0.11967625,0.9709904736328125
-0.3797095703125,0.21354584716796876,0.96288017578125
-0.2022140625,0.1231075146484375,0.9677955078125
-0.41010263671875,0.1358522119140625,1.23027423828125
-0.728378828125,-0.0347306591796875,1.2585373974609375
-0.70989984375,-0.1513936572265625,1.1587561572265626
-0.22823052734375,0.032424091796875,1.1695698876953124
-0.483289140625,-0.03105430419921875,1.0575003173828126
-0.48790888671875,-0.1151202880859375,0.8771076318359375
-0.4020788671875,-0.26241957763671875,0.749554765625
-0.3485870703125,-0.2820268041992188,0.6318325634765625
-0.3913805078125,-0.15752091552734376,0.5974252392578125
-0.20683380859375,-0.0533575244140625,0.6677144873046875
-0.0869635546875,0.055952763671875,0.7950215869140624
-0.1978374609375,-0.01169216796875,1.0319405908203125
-0.44608802734374997,-0.20114699462890626,1.1184504345703126
-0.72764939453125,-0.14698203125,0.9815584374999999
-0.6559217578125,-0.028113220214843748,0.78199595703125
-0.53896923828125,-0.014633251953124999,0.6807401171875
-0.43782111328125,0.0368357177734375,0.8535140380859375
-0.51562736328125,0.03536517578125,0.9048792578125
-0.48450486328125,0.16991976806640624,0.908319990234375
-0.3359435546875,0.1780077490234375,0.922082919921875
-0.21583015625000002,0.1878113623046875,1.028254091796875
-0.2075632421875,0.22138873779296875,1.185544716796875
-0.3330258203125,0.06943273193359376,1.1518746923828125
-0.46262185546875,0.16648850341796875,1.011541962890625
-0.3271903515625,0.08364797119140625,1.09461107421875
-0.5212196875,-0.093062158203125,1.35807287109375
-0.73980662109375,-0.1611972705078125,1.387073330078125
-0.50152498046875,-0.024436865234375,1.07101748046875
-0.28366748046875,-0.1327667919921875,0.8648193017578125
-0.26470220703125,-0.2876638818359375,0.76430076171875
-0.3904079296875,-0.36339679443359374,0.8830060302734375
-0.50249755859375,-0.27712499755859377,0.95501564453125
-0.29752671875000003,-0.0562986083984375,0.7640549951171876
-0.11054857421875,0.0012976196289062499,0.6529684912109375
-0.04781728515625,-0.00409436767578125,0.5133730615234375
-0.19175884765625,-0.0038492773437499997,0.554416083984375
-0.36196001953125,-0.1268846240234375,0.7296476708984375
-0.55890708984375,0.0221302978515625,1.0835515771484374
-0.719625625,0.11845079833984375,1.42983671875
-0.78308634765625,0.0765403515625,1.4020650927734375
-0.6782910546875,-0.012672529296875,1.16539185546875
-0.43636224609375,-0.02737794921875,0.827708544921875
-0.35855599609375,0.0015427099609375003,0.5807131103515625
-0.12756869140625,-0.0543378857421875,0.6018490380859375
-0.0752926171875,-0.01095689697265625,0.6190527001953126
-0.04052294921875,-0.00850599365234375,0.72301197265625
-0.16598552734375,-0.1611972705078125,0.9714820068359376
-0.46553958984375,0.0020328906249999995,1.01399962890625
-0.57689978515625,0.106931552734375,1.005643564453125
-0.42420501953125,-0.02149578125,0.833606943359375
-0.5671740039062501,-0.159726728515625,0.867031201171875
-0.574711484375,0.0211499365234375,0.79575888671875
-0.42128728515625,0.2113400341796875,0.7999369189453125
-0.31527626953125,0.301043095703125,1.0444746875
-0.38043900390625,0.350061162109375,1.2270792724609374
-0.6442508203125,0.1250682373046875,1.4020650927734375
-0.45484123046875,-0.17859868408203125,1.000728232421875
-0.2873146484375,0.17923320068359375,0.846386806640625
-0.4886383203125,-0.013407800292968751,0.6264256982421875
-0.43830740234375,-0.027868129882812502,0.5878403417968749
-0.191515703125,0.0020328906249999995,0.7488174658203125
-0.321841171875,0.112813720703125,1.2993346533203125
-0.5732526171875,-0.08644471923828125,1.55468615234375
-0.7796823242187501,-0.18055940673828125,1.5261772265625
-0.450221484375,-0.06487677001953125,1.1007552392578126
-0.52340798828125,-0.13595296630859374,0.6274087646484375
-0.34445361328125,-0.071494208984375,0.6396970947265626
-0.29047552734375,-0.1278649853515625,0.821810146484375
-0.5985396484375,-0.0719843896484375,1.0058893310546875
-0.58030380859375,-0.016593974609375,0.7790467578125
-0.38773333984375,-0.0013983740234375002,0.7463597998046875
-0.154557734375,-0.11830646240234374,0.6672229541015625
-0.42128728515625,-0.15703073486328126,0.765283828125
-0.5236511328125,0.0020328906249999995,0.7743771923828124
-0.599998515625,-0.0641414990234375,0.9734481396484375
-0.75658359375,0.12678386962890625,1.0801108447265624
-0.53702408203125,0.1231075146484375,0.8043607177734375
-0.2333365625,-0.042083369140625,0.790352021484375
-0.28974609375,-0.0455146337890625,0.89603166015625
-0.20391607421875,0.01110123291015625,0.9901602685546875
-0.3072525,0.1191860693359375,1.2108586767578124
-0.6342818945312501,0.0995788427734375,1.4875918701171875
-0.64765484375,-0.02027032958984375,1.2954023876953125
-0.38238416015625,-0.2455083447265625,0.9798380712890625
-0.5071173046875,-0.11732610107421874,0.7832247900390625
-0.44146828125,-0.03129939453125,0.66009572265625
-0.2056180859375,-0.1259042626953125,0.4357108154296875
-0.21607330078125,-0.16389326416015626,0.4263716845703125
-0.2902323828125,-0.05899460205078125,0.5549076171875
-0.38505875,-0.01928996826171875,0.69548611328125
-0.430769921875,0.108892275390625,0.8761245654296875
-0.2620276171875,0.1436951025390625,0.9166760546875
-0.13000013671875,0.099088662109375,1.013508095703125
-0.2357680078125,0.12555841796875,1.4984056005859374
-0.8066713671875,0.17261576171875,1.7318838720703125
-0.70771154296875,0.20006587890625,1.6048225390625
-0.53848294921875,0.20570295654296875,1.4084550244140626
-0.52000396484375,-0.09232688720703125,1.015474228515625
-0.5559893554687501,-0.12933552734375,0.9857364697265625
-0.39794541015625,-0.15457983154296875,0.6436293603515625
-0.4001337109375,-0.08619962890625,0.4406261474609375
-0.290718671875,-0.1102184814453125,0.273259091796875
-0.20026890625,-0.0371815625,0.21771583984374998
-0.12805498046875,0.01159141357421875,0.3256073779296875
-0.06580998046875,0.04786478271484375,0.457092509765625
