ax,ay,az
-0.38676076171875,0.07629526123046874,1.2840971240234376
-0.28074974609375003,0.13315621826171875,1.0818312109375
-0.2143712890625,0.06011929931640625,0.9002096923828125
-0.0694571484375,0.0897752294921875,0.791335087890625
-0.02909515625,-0.0151234326171875,0.87047193359375
-0.015235917968750002,-0.030073942871093752,1.1211538671875
-0.32281375,-0.1111988427734375,1.2565712646484375
-0.26372962890625,0.09492212646484376,1.2010280126953126
-0.347128203125,-0.095022880859375,1.0678225146484375
-0.34202216796875,-0.106787216796875,1.077407412109375
-0.2513292578125,-0.042328459472656246,0.9442019140625
-0.2357680078125,-0.0043394580078125,0.7758517919921875
-0.12854126953125,-0.0396324658203125,0.8441749072265625
-0.252788125,-0.165608896484375,0.9582106103515625
-0.20245720703125,-0.155805283203125,1.0471781201171875
-0.2416034765625,-0.0621807763671875,0.97664310546875
-0.210967265625,-0.0621807763671875,0.8466325732421875
-0.15674603515625,-0.10556176513671875,0.8436833740234375
-0.21193984375,-0.14330567626953125,0.802148818359375
-0.22190876953125,-0.1043363134765625,0.7161305078125
-0.1944334375,0.03364954345703125,0.6362563623046875
-0.1307295703125,0.07531489990234375,0.58145041015625
-0.13948277343749999,0.050070595703125,0.6047982373046875
-0.1239215234375,-0.03448556884765625,0.8557259375
-0.15358515625,-0.06830803466796875,1.2332234375
-0.3291355078125,0.08315779052734375,1.594500341796875
-0.2912049609375,0.205948046875,1.346767607421875
-0.07383375,-0.167569619140625,1.0250591259765625
-0.2377131640625,-0.19183356201171875,0.9926179345703126
-0.31624884765625,-0.0553182470703125,0.9267524853515625
-0.1949197265625,0.01159141357421875,0.835573076171875
-0.18008791015625,-0.00507472900390625,0.617332333984375
-0.1297569921875,0.023845930175781252,0.633061396484375
-0.144831953125,0.02237538818359375,0.823776279296875
-0.30700935546875,-0.09575815185546875,1.1543323583984375
-0.48547744140625,-0.0121823486328125,1.3919886621093749
-0.29509527343749997,0.004973974609375,1.1159927685546875
-0.2056180859375,0.1319307666015625,0.8471241064453126
-0.19175884765625,-0.08840544189453126,0.8485987060546875
-0.148722265625,-0.04968116943359375,1.0516019189453125
-0.44025255859375,-0.04698517578125,1.3204705810546875
-0.37898013671874997,0.00276816162109375,1.311377216796875
-0.27685943359375,-0.03129939453125,0.904387724609375
-0.28609892578125,0.00987578125,0.700892978515625
-0.17717017578125,-0.11193411376953125,0.7556989306640625
-0.12854126953125,-0.0670825830078125,0.724486572265625
-0.09352845703125,0.12041152099609376,0.8498275390625
-0.17522501953125,-0.093062158203125,0.8365561425781249
-0.12465095703125,-0.03350520751953125,0.8254966455078125
-0.156502890625,0.02752228515625,0.781012890625
-0.30700935546875,-0.049926259765625,0.7060540771484375
-0.19613544921875,0.024581201171875,0.663044921875
-0.11103486328125,0.15423398681640624,0.8461410400390625
-0.24306234375,0.0348749951171875,1.11230626953125
-0.27272597656249997,-0.25653740966796873,1.3180129150390625
-0.42955419921875,-0.14232531494140624,1.3853529638671875
-0.26129818359375,-0.067572763671875,0.9975332666015625
-0.06386482421875,0.0584036669921875,0.9508376123046876
-0.23017568359375,0.13021513427734374,1.058729150390625
-0.2659179296875,0.085363603515625,1.0992806396484376
-0.28974609375,-0.05409279541015625,1.171781787109375
-0.13680818359375,-0.1317864306640625,1.0806023779296874
-0.14410251953125,0.0103659619140625,1.01399962890625
-0.21072412109375,-0.06095532470703125,0.992863701171875
-0.41836955078125,7.216796875000007e-05,1.055779951171875
-0.30457791015625,-0.14477621826171874,1.1150097021484375
-0.38481560546875,0.00619942626953125,1.37380193359375
-0.24184662109375,-0.1406096826171875,1.53109255859375
-0.16452666015625,-0.0670825830078125,1.756706298828125
-0.4759948046875,0.1035002880859375,1.7490875341796874
-0.477453671875,0.06404074462890624,1.163917255859375
-0.3690112109375,-0.1239435400390625,0.8289373779296875
-0.09061072265625,-0.20751934326171875,0.5753062451171875
-0.06337853515625,0.00521906494140625,0.4637282080078125
-0.01572220703125,-0.13129625,0.3998288916015625
-0.0315266015625,-0.01169216796875,0.5187799267578125
-0.280992890625,-0.04134809814453125,0.6175781005859375
-0.32305689453124997,-0.10801266845703125,0.6475616259765625
-0.36487775390625,-0.012427438964843749,0.7488174658203125
-0.32475890625,0.0995788427734375,0.6652568212890625
-0.33910443359375,0.02286556884765625,0.62667146484375
-0.15577345703125,0.0456589697265625,0.9783634716796875
-0.2960678515625,0.0010525292968750002,1.253376298828125
-0.50395642578125,0.0686974609375,1.33447927734375
-0.2960678515625,0.0686974609375,1.2275708056640624
-0.11395259765625,0.14688127685546876,1.0658563818359374
-0.10860341796875,-0.05311243408203125,1.0117877294921875
-0.09887763671875,-0.09526797119140624,1.08084814453125
-0.28974609375,0.04786478271484375,1.0619241162109374
-0.28464005859375,-0.0602200537109375,0.8333611767578125
-0.195406015625,0.026541923828125,0.759876962890625
-0.17084841796875,0.0123266845703125,0.7866655224609375
-0.33132380859375,-0.013652890625,1.165883388671875
-0.4390368359375,-0.0288484912109375,1.41902298828125
-0.4497351953125,0.05227640869140625,1.459820244140625
-0.39794541015625,-0.0023787353515625003,1.337920009765625
-0.279047734375,0.00521906494140625,1.2457575341796876
-0.174981875,0.05913893798828125,1.1798920849609376
-0.21704587890625,-0.11193411376953125,1.048406953125
-0.12610982421875,-0.046249904785156254,0.9002096923828125
-0.1599069140625,-0.11487519775390626,0.8825144970703125
-0.15188314453125001,-0.11879664306640625,1.074458212890625
-0.27199654296875,-0.140119501953125,1.0692971142578125
-0.1647698046875,-0.0778665576171875,0.8520394384765625
-0.22920310546875,-0.123453359375,0.8019030517578125
-0.21510072265625,-0.11757119140625,0.9665666748046875
-0.28196546875,0.063795654296875,0.9913891015625
-0.32305689453124997,0.00766996826171875,0.932896650390625
-0.175954453125,0.040266982421875,0.9749227392578125
-0.2722396875,0.0008074389648437498,1.068559814453125
-0.20051205078125,0.10178465576171875,1.1597392236328126
-0.244034921875,0.13021513427734374,1.180629384765625
-0.3164919921875,-0.0866898095703125,1.0402966552734374
-0.2192341796875,-0.05556333740234375,1.00220283203125
-0.14847912109375,-0.07909200927734375,0.901438525390625
-0.1540714453125,-0.06879821533203125,0.8065726171875
-0.181789921875,-0.05556333740234375,0.7271900048828125
-0.23066197265625,-0.1062970361328125,0.7357918359375
-0.28707150390625,-0.09379742919921875,0.8490902392578125
-0.310170234375,-0.05752406005859375,1.0235845263671874
-0.21558701171875,0.00325834228515625,1.1459762939453124
-0.29971501953125,0.02531647216796875,1.12213693359375
-0.24768208984375,0.030708459472656248,1.0506188525390625
-0.27296912109375,-0.0670825830078125,1.1390948291015626
-0.14069849609375001,0.0289928271484375,1.111814736328125
-0.23066197265625,-0.0033590966796874996,1.1017383056640626
-0.27442798828125,-0.140119501953125,1.02383029296875
-0.20634751953125,-0.130315888671875,0.926998251953125
-0.2552195703125,-0.013652890625,0.8377849755859375
-0.13024328125,-0.010711806640625,0.8377849755859375
-0.2202067578125,-0.0229663232421875,0.8313950439453125
-0.25862359375,-0.060710234375,0.94518498046875
-0.221665625,-0.006790361328125,1.0592206835937499
-0.32159802734375,0.04884514404296875,1.2437914013671876
-0.36974064453125,0.07776580322265625,1.12213693359375
-0.2902323828125,0.0348749951171875,1.0368559228515626
-0.34883021484375,0.02139502685546875,0.95501564453125
-0.30020130859375,-0.08595453857421875,0.882760263671875
-0.1477496875,-0.14820748291015626,0.7788009912109375
-0.1866528125,-0.073454931640625,0.6996641455078125
-0.11103486328125,-0.10654212646484375,0.81738634765625
-0.32281375,-0.0043394580078125,0.989914501953125
-0.240144609375,-0.06242586669921875,1.043000087890625
-0.20026890625,-0.14330567626953125,0.928964384765625
-0.22336763671875,-0.11438501708984375,0.94223578125
-0.26227076171875,0.00791505859375,0.9818042041015624
-0.212912421875,-0.05874951171875,0.965829375
-0.31089966796875,0.01208159423828125,0.9542783447265625
-0.26324333984375,0.0005623486328125002,1.08674654296875
-0.23139140625,-0.00654527099609375,1.0267794921875
-0.19953947265625,0.08021670654296875,0.952557978515625
-0.07869664062500001,0.0397768017578125,1.0216183935546874
-0.30603677734375,-0.10409122314453124,0.9611598095703124
-0.228473671875,-0.004829638671875,0.995812900390625
-0.224583359375,-0.1038461328125,0.8250051123046875
-0.07845349609375,-0.06291604736328126,0.7301392041015625
-0.09085386718749999,-0.0229663232421875,0.734317236328125
-0.14847912109375,-0.16340308349609375,0.7198170068359375
-0.10568568359375,-0.09428760986328125,0.89603166015625
-0.1949197265625,-0.0719843896484375,1.1120605029296875
-0.25789416015625,-0.01683906494140625,1.1174673681640626
-0.18227621093750002,0.069677822265625,1.2069264111328124
-0.24865466796875,0.03266918212890625,1.126560732421875
-0.30749564453125,0.019434304199218752,1.0176861279296876
-0.2960678515625,0.06453092529296875,1.0575003173828126
-0.0986344921875,-0.048455717773437504,1.030220224609375
-0.3242726171875,-0.034240478515625,0.926015185546875
-0.187625390625,-0.048455717773437504,0.7581565966796875
-0.119544921875,-0.01487834228515625,0.8264797119140626
-0.21801845703125,-0.07958218994140626,0.9867195361328125
-0.33375525390625,-0.05605351806640625,0.98450763671875
-0.32402947265625,-0.036201201171875,0.964354775390625
-0.220693046875,-0.04698517578125,0.9783634716796875
-0.27807515625,-0.008996174316406251,0.9277355517578125
-0.2250696484375,0.03610044677734375,0.7876485888671875
-0.212912421875,-0.08595453857421875,0.8419630078125
-0.1783858984375,-0.02027032958984375,0.975168505859375
-0.16987583984375,0.03610044677734375,1.1174673681640626
-0.17376615234375,0.010611052246093749,1.2457575341796876
-0.302389609375,0.0201695751953125,1.2727918603515624
-0.21412814453125,-0.0009081933593750001,1.07101748046875
-0.19953947265625,0.0270321044921875,1.076424345703125
-0.21704587890625,0.02360083984375,1.129509931640625
-0.16452666015625,-0.0759058349609375,1.10247560546875
-0.25108611328125,0.02972809814453125,0.9709904736328125
-0.228473671875,-0.027868129882812502,0.76921609375
-0.224583359375,-0.077376376953125,0.9638632421875
-0.23406599609375,-0.02027032958984375,1.0604495166015624
-0.20804953125,-0.10507158447265624,0.8338527099609375
-0.183735078125,-0.036201201171875,0.914218388671875
-0.2357680078125,-0.1288453466796875,0.9559987109375
-0.17473873046875,-0.071494208984375,0.9655836083984375
-0.183735078125,-0.02370159423828125,1.156052724609375
-0.1579617578125,-0.0406128271484375,0.9469053466796875
-0.1832487890625,-0.045024453125,0.8495817724609375
-0.15066742187499998,-0.0523771630859375,0.8574463037109374
-0.1219763671875,-0.01879978759765625,0.9827872705078124
-0.11200744140625,-0.0175743359375,0.9852449365234375
-0.056084199218750005,-0.0053198193359375,1.1010010058593749
-0.18470765625,0.028257556152343752,1.27549529296875
-0.3437241796875,0.08217742919921875,1.1749767529296875
-0.29679728515625,0.0020328906249999995,1.08478041015625
-0.314060546875,0.040266982421875,1.0260421923828125
-0.1151683203125,-0.0749254736328125,0.892590927734375
-0.1764407421875,-0.1357078759765625,0.8795652978515625
-0.19662173828125,-0.0288484912109375,0.76921609375
-0.19662173828125,-0.03301502685546875,0.907336923828125
-0.15966376953125,0.0012976196289062499,1.0063808642578125
-0.18251935546875,0.0015427099609375003,1.1484339599609374
-0.1686601171875,-0.0004180126953125,1.0167030615234376
-0.1949197265625,-0.08350363525390625,0.997779033203125
-0.22336763671875,-0.08840544189453126,1.0457035205078125
-0.29193439453125003,-0.08840544189453126,0.9960586669921875
-0.1958923046875,-0.067572763671875,1.13196759765625
-0.2523018359375,-0.051886982421875,1.0815854443359374
-0.240144609375,-0.06144550537109375,1.05135615234375
-0.28269490234375,-0.0317895751953125,1.0289913916015625
-0.24525064453125,-0.008996174316406251,0.9186421875
-0.12659611328125,-0.089140712890625,0.956490244140625
-0.271267109375,-0.04526954345703125,0.8839890966796875
-0.2017277734375,-0.02958376220703125,0.8220559130859375
-0.1637972265625,-0.09722869384765626,0.9444476806640625
-0.1715778515625,0.02090484619140625,0.85867513671875
-0.21801845703125,0.0250713818359375,0.8242678125
-0.2445212109375,-0.05801424072265625,0.7950215869140624
-0.21801845703125,0.030708459472656248,0.9700074072265625
-0.2065906640625,0.0093856005859375,0.975168505859375
-0.179844765625,-0.0072805419921875,0.9680412744140625
-0.14750654296875,0.00963069091796875,1.156052724609375
-0.162338359375,-0.07958218994140626,1.0914161083984375
-0.2260422265625,0.030463369140625002,1.2037314453125
-0.26470220703125,-0.12271808837890624,0.9985163330078125
-0.20683380859375,0.0059543359375,1.0334151904296875
-0.19370400390625,-0.0249270458984375,0.9980247998046875
-0.15480087890625,-0.08301345458984374,0.9065996240234375
-0.11298001953125,-0.03595611083984375,1.0240760595703124
-0.1715778515625,-0.12933552734375,1.067576748046875
-0.327676640625,-0.09722869384765626,1.097068740234375
-0.2309051171875,-0.09845414550781251,0.8655566015625
-0.236254296875,-0.02860340087890625,0.8171405810546875
-0.2561921484375,-0.095022880859375,0.9331424169921875
-0.26032560546875,-0.1288453466796875,1.0314490576171875
-0.29047552734375,-0.06046514404296875,1.079373544921875
-0.23503857421875,-0.01487834228515625,1.0245675927734375
-0.24525064453125,-0.0004180126953125,0.93338818359375
-0.18543708984375,0.00178780029296875,0.8505648388671875
-0.22482650390625,-0.08987598388671875,0.8918536279296875
-0.21704587890625,-0.04134809814453125,0.950591845703125
-0.2386857421875,-0.00311400634765625,0.965829375
-0.2523018359375,-0.04698517578125,1.0260421923828125
-0.23309341796875,0.00619942626953125,0.97664310546875
-0.22336763671875,-0.014633251953124999,0.923065986328125
-0.247925234375,-0.0543378857421875,0.8810398974609375
-0.25011353515625,-0.0504164404296875,0.9798380712890625
-0.2800203125,-0.1337471533203125,1.0058893310546875
-0.29509527343749997,-0.1141399267578125,0.929947451171875
-0.21996361328125,0.022620478515625,0.816894814453125
-0.20464550781250002,-0.0376717431640625,0.7724110595703125
-0.21266927734375,-0.0298288525390625,0.895540126953125
-0.20586123046875,-0.0411030078125,1.0899415087890625
-0.22361078125,-0.093062158203125,1.2713172607421874
-0.17036212890625,-0.068553125,1.2823767578125
-0.1813036328125,-0.01634888427734375,1.3059703515625
-0.26664736328125,-0.02027032958984375,1.2875378564453124
-0.24136033203125,-0.00458454833984375,0.989914501953125
-0.2328502734375,0.030463369140625002,0.86260740234375
-0.2357680078125,-0.02762303955078125,0.7856824560546875
-0.2333365625,-0.14820748291015626,0.8653108349609375
-0.20683380859375,-0.15261910888671876,1.1037044384765624
-0.1978374609375,-0.12933552734375,1.1447474609375
-0.2503566796875,-0.063651318359375,1.245511767578125
-0.1929745703125,-0.016593974609375,1.03759322265625
-0.112736875,-0.0028689160156250004,0.9862280029296875
-0.19759431640625,0.008405239257812499,1.249444033203125
-0.213885,0.0686974609375,1.2079094775390624
0.008592246093749999,-0.10580685546875,0.920116787109375
-0.1715778515625,0.05962911865234375,0.7736398925781249
-0.29728357421875,-0.04575972412109375,0.601603271484375
-0.3826273046875,-0.01634888427734375,0.6618160888671875
-0.51149390625,-0.14183513427734376,1.20668064453125
-0.31235853515625,-0.16854998046875,1.0363643896484376
-0.17376615234375,-0.036201201171875,1.2315030712890624
-0.13802390625,-0.13889405029296875,1.2546051318359375
-0.1399690625,0.06796218994140625,1.1577730908203125
-0.3262177734375,0.07065818359375,1.0633987158203124
-0.32694720703125,0.0603643896484375,1.1174673681640626
-0.33253953125,0.0397768017578125,1.057746083984375
-0.27491427734375,-0.03129939453125,0.9331424169921875
-0.18981369140625,0.0530116796875,1.0117877294921875
-0.29290697265625,-0.138158779296875,1.001711298828125
-0.22823052734375,-0.15286419921875,1.0425085546875
-0.314060546875,-0.15065838623046876,1.1250861328125
-0.33667298828125003,-0.10752248779296875,1.0348897900390626
-0.2425760546875,-0.08448399658203125,0.8584293701171875
-0.2882872265625,-0.0798272802734375,0.8132083154296875
-0.18786853515625002,-0.05482806640625,0.8608870361328125
-0.1754681640625,-0.0837487255859375,0.94223578125
-0.1813036328125,0.0172284912109375,1.0206353271484374
-0.31770771484375,-0.05556333740234375,0.95894791015625
-0.247925234375,-0.1111988427734375,0.9528037451171875
-0.35466568359375,-0.08497417724609375,0.9835245703125
-0.2488978125,-0.04698517578125,1.0506188525390625
-0.16209521484375,0.038306259765625,1.0427543212890624
-0.25303126953125,-0.04428918212890625,0.9827872705078124
-0.317950859375,0.00766996826171875,0.9739396728515625
-0.22677166015625,-0.05262225341796875,1.02088109375
-0.207076953125,-0.05605351806640625,1.2260962060546876
-0.37314466796875,-0.0268877685546875,1.0781447119140626
-0.09547361328125001,0.00521906494140625,1.0078554638671875
-0.19029998046875,-0.0504164404296875,0.9940925341796875
-0.3048210546875,-0.04036773681640625,1.0540595849609375
-0.26567478515625,-0.0999246875,1.1666206884765624
-0.16355408203125,-0.03129939453125,1.2010280126953126
-0.36585033203125,0.023845930175781252,1.1548238916015625
-0.27418484375,-0.0719843896484375,1.0127707958984375
-0.257651015625,0.05080586669921875,1.0319405908203125
-0.21023783203125002,-0.0425735498046875,0.8859552294921875
-0.25740787109375,-0.11389483642578124,0.9665666748046875
-0.20464550781250002,-0.09183670654296874,1.0112961962890625
-0.240144609375,-0.226391298828125,1.0167030615234376
-0.2902323828125,-0.09722869384765626,1.119679267578125
-0.2347954296875,-0.1180613720703125,0.94223578125
-0.24914095703125,-0.1474722119140625,0.8773533984374999
-0.1657423828125,-0.14109986328125,0.88816712890625
-0.3417790234375,-0.05090662109375,1.0186691943359376
-0.12416466796875,-0.0994345068359375,0.9559987109375
-0.27345541015625,-0.02149578125,0.9523122119140625
-0.26470220703125,0.12947986328125,0.9242948193359375
-0.25862359375,0.00521906494140625,0.8338527099609375
-0.213885,0.0407571630859375,0.926998251953125
-0.24622322265625,0.0201695751953125,1.0589749169921876
-0.13826705078125,-0.0749254736328125,1.139340595703125
-0.26713365234374997,-0.10850284912109374,1.1562984912109375
-0.315033125,0.02286556884765625,1.0771616455078126
-0.27102396484375,-0.07517056396484376,0.9513291455078126
-0.22044990234375,-0.07320984130859375,0.93338818359375
-0.21364185546875,-0.01781942626953125,1.0162115283203126
-0.3033621875,-0.052867343750000004,1.0437373876953124
-0.156502890625,-0.00507472900390625,1.001711298828125
-0.232363984375,0.05913893798828125,0.9021758251953125
-0.24038775390625,-0.01634888427734375,0.8820229638671875
-0.144831953125,-0.142080224609375,0.998762099609375
-0.25886673828125,-0.11193411376953125,0.887675595703125
-0.32864921874999997,-0.1043363134765625,0.876861865234375
-0.2542469921875,-0.008996174316406251,0.932896650390625
-0.21607330078125,-0.08154291259765625,0.859658203125
-0.27418484375,-0.076396015625,0.879811064453125
-0.20732009765625,-0.07124911865234375,0.9311762841796875
-0.17960162109375,-0.07811164794921875,0.96484630859375
-0.249870390625,0.019679394531249998,0.9886856689453125
-0.35806970703125,-0.05262225341796875,0.994829833984375
-0.25983931640625,-0.08546435791015625,0.9245405859375
-0.23260712890625002,-0.13987441162109376,0.948625712890625
-0.1774133203125,0.032424091796875,0.97467697265625
-0.21412814453125,-0.13717841796875,0.918150654296875
-0.15577345703125,-0.12369844970703125,0.95894791015625
-0.31989601562500003,-0.038161923828125,0.8240220458984375
-0.271267109375,0.07188363525390624,0.9572275439453125
-0.17522501953125,0.0843832421875,1.0791277783203126
-0.25546271484375,0.05080586669921875,1.0589749169921876
-0.27491427734375,-0.03938737548828125,1.0157199951171876
-0.2177753125,0.11305881103515625,1.011541962890625
-0.20780638671875,-0.00409436767578125,0.969761640625
-0.286828359375,-0.0553182470703125,0.9174133544921875
-0.20026890625,-0.08840544189453126,0.853268271484375
-0.2017277734375,-0.16340308349609375,0.9803296044921875
-0.199296328125,0.0672269189453125,0.9852449365234375
-0.23357970703125,0.026296833496093748,1.0761785791015626
-0.21704587890625,-0.08301345458984374,0.9955671337890625
-0.23819945312500002,0.04002189208984375,0.8638362353515625
-0.21583015625000002,0.10202974609375,1.0130165625
-0.19273142578125,-0.0016434643554687498,0.9818042041015624
-0.221665625,0.075559990234375,1.012525029296875
-0.23163455078125,-0.09404251953125001,0.95894791015625
-0.28853037109375,-0.106787216796875,1.0184234277343749
-0.1871391015625,-0.146001669921875,1.056763017578125
-0.27296912109375,-0.09379742919921875,0.9493630126953125
-0.2338228515625,-0.08546435791015625,0.9036504248046875
-0.17084841796875,-0.12712971435546874,1.030220224609375
-0.28220861328125,-0.07566074462890625,1.0383305224609374
-0.2255559375,-0.01928996826171875,1.0486527197265625
-0.21558701171875,0.0037485229492187503,1.0206353271484374
-0.086477265625,0.063795654296875,1.0339067236328126
-0.25983931640625,-0.0788469189453125,1.2025026123046876
-0.26372962890625,-0.1396293212890625,1.0034316650390624
-0.18981369140625,-0.049926259765625,0.9397781152343749
-0.252788125,-0.04330882080078125,0.905370791015625
-0.32281375,-0.09134652587890625,1.0363643896484376
-0.2600824609375,-0.0464949951171875,1.1621968896484376
-0.26664736328125,-0.03129939453125,1.00613509765625
-0.12440781249999999,-0.06683749267578125,0.8967689599609375
-0.23309341796875,-0.10801266845703125,1.095102607421875
-0.32864921874999997,0.0280124658203125,1.1744852197265625
-0.27588685546875,0.046149150390625,1.165883388671875
-0.35028908203125,0.04639424072265625,1.064627548828125
-0.32451576171875,-0.0876701708984375,0.9695158740234375
-0.21583015625000002,-0.11193411376953125,0.6886046484375
-0.013290761718750002,-0.02713285888671875,0.6699263867187499
-0.004294414062500002,-0.15065838623046876,0.907336923828125
-0.011831894531250001,-0.11928682373046876,1.0191607275390624
-0.26956509765625,0.07482471923828125,1.2423168017578126
-0.380195859375,-0.11781628173828125,1.3219451806640625
-0.46529644531250003,0.0037485229492187503,1.3475049072265626
-0.5071173046875,0.09198104248046875,1.221918173828125
-0.42858162109375,-0.03546593017578125,0.93142205078125
-0.1764407421875,-0.18153976806640626,0.8692431005859375
0.011023691406250001,-0.14820748291015626,0.78592822265625
-0.044899550781250006,-0.175412509765625,0.759876962890625
-0.0529233203125,-0.0817880029296875,0.7689703271484375
-0.16209521484375,-0.06536695068359374,0.9606682763671874
-0.16793068359375,-0.21536223388671874,1.0759328125
-0.2688356640625,-0.0161037939453125,1.2806563916015625
-0.29387955078125,-0.05360261474609375,1.2988431201171875
-0.29631099609375,0.0348749951171875,1.013508095703125
-0.27977716796875,-0.034240478515625,0.7311222705078125
-0.2143712890625,-0.1023755908203125,0.7596311962890625
-0.1443456640625,-0.11585555908203125,0.824759345703125
-0.21193984375,-0.04477936279296875,0.9324051171875
-0.27977716796875,-0.0268877685546875,1.095594140625
-0.10325423828125,-0.032279755859375,1.0348897900390626
-0.14702025390625,-0.12933552734375,1.26566462890625
0.10001458984375,0.01208159423828125,1.52322802734375
-0.2454937890625,0.0436982470703125,1.5008632666015624
-0.42420501953125,-0.0023787353515625003,1.233714970703125
-0.37144265625,7.216796875000007e-05,0.9105318896484375
-0.32889236328125,-0.10850284912109374,0.8903790283203125
-0.2240970703125,-0.1111988427734375,0.9542783447265625
-0.117599765625,-0.053847705078125,0.8328696435546875
-0.23017568359375,-0.13693332763671875,0.6313410302734375
-0.17571130859375,-0.16242272216796874,0.619298466796875
-0.12805498046875,-0.016593974609375,0.8783364648437499
-0.12465095703125,-0.1680597998046875,0.983033037109375
-0.27029453125,-0.030073942871093752,1.101984072265625
-0.27783201171875,0.00521906494140625,1.0186691943359376
-0.27418484375,-0.03914228515625,1.0019570654296874
-0.3189234375,-0.12149263671875,1.062661416015625
-0.25862359375,-0.06977857666015624,0.907336923828125
-0.24136033203125,-0.11536537841796875,0.734317236328125
-0.18300564453125,-0.19036302001953126,0.5595771826171875
-0.15139685546875,-0.22369530517578126,0.5096865625
-0.0932853125,-0.24232217041015625,0.6382224951171875
-0.11857234375,-0.25261596435546874,0.7999369189453125
-0.14847912109375,-0.1592365478515625,1.0174403613281249
-0.28026345703125,-0.07320984130859375,1.110831669921875
-0.3203823046875,-0.03497574951171875,1.0206353271484374
-0.22531279296875,0.0133070458984375,0.9395323486328125
-0.220693046875,-0.08203309326171875,0.80067421875
-0.1064151171875,-0.0200252392578125,0.7586481298828125
-0.12319208984375,0.010611052246093749,0.7434106005859376
-0.1321884375,-0.059729873046875,0.804114951171875
-0.21558701171875,-0.13056097900390626,0.9520664453125
-0.33764556640625,-0.042328459472656246,1.0108046630859375
-0.28123603515625,-0.0778665576171875,0.9913891015625
-0.25011353515625,-0.02223105224609375,1.0896957421875
-0.27053767578125,-0.1298257080078125,1.091170341796875
-0.14167107421875,0.028502646484374998,0.938303515625
-0.201241484375,0.0152677685546875,0.844420673828125
-0.1813036328125,-0.079337099609375,0.926015185546875
-0.27418484375,0.01159141357421875,1.134425263671875
-0.2600824609375,0.0142874072265625,1.0520934521484375
-0.2795340234375,0.17580193603515626,1.02186416015625
-0.14629082031250001,0.01747358154296875,0.9778719384765625
-0.284883203125,-0.122472998046875,1.001219765625
-0.27613,-0.09232688720703125,1.072000546875
-0.29242068359375,-0.00360418701171875,0.988931435546875
-0.29752671875000003,-0.091101435546875,0.989914501953125
-0.22336763671875,-0.08889562255859375,0.9972875
-0.3028758984375,-0.1474722119140625,1.0373474560546876
-0.25254498046875,-0.15114856689453124,0.8537598046875
-0.269321953125,-0.220509130859375,0.870963466796875
-0.16647181640625,-0.17810850341796874,0.8215643798828125
-0.0626491015625,0.012816865234374999,1.048406953125
-0.20342978515625,-0.01732924560546875,1.3381657763671875
-0.4088869140625,0.06624655761718751,1.3642170361328125
-0.47526537109375,0.05864875732421875,1.12312
-0.29436583984375,0.02335574951171875,1.0658563818359374
-0.30555048828125,-0.00581,1.1287726318359375
-0.218747890625,-0.085219267578125,1.1762055859375
-0.22361078125,0.021885207519531248,1.1703071875
-0.2566784375,-0.09796396484375,1.0444746875
-0.121490078125,-0.04723026611328125,1.07888201171875
-0.2007551953125,0.02237538818359375,1.1833328173828126
-0.27588685546875,-0.05752406005859375,1.195375380859375
-0.16549923828125,-0.0935523388671875,1.0874838427734375
-0.329621796875,0.02678701416015625,1.0201437939453124
-0.22750109375,0.02360083984375,1.138357529296875
-0.17036212890625,0.02752228515625,1.1096028369140625
-0.15723232421875,0.0883046875,1.072000546875
-0.31576255859375,-0.05311243408203125,1.1641630224609374
-0.2941226953125,0.06943273193359376,1.1621968896484376
-0.24306234375,-0.08423890625,0.9483799462890625
-0.1997826171875,0.08315779052734375,0.985982236328125
-0.103983671875,-0.0011532836914062497,0.9621428759765625
-0.0256911328125,-0.26830174560546877,1.0029401318359374
-0.009400449218749999,-0.22908729248046875,1.293682021484375
-0.41156150390625,-0.11144393310546875,1.19095158203125
-0.26713365234374997,-0.1102184814453125,0.8874298291015625
-0.08915185546875,-0.05262225341796875,1.0643817822265624
-0.2435486328125,-0.123453359375,1.2113502099609375
-0.23309341796875,0.026296833496093748,1.2364184033203125
-0.3573402734375,0.03144373046875,1.0865007763671874
-0.1550440234375,-0.0200252392578125,0.8908705615234375
-0.27296912109375,-0.10115013916015625,1.0707717138671875
-0.271267109375,0.0819323388671875,1.176697119140625
-0.2367405859375,-0.0268877685546875,1.2364184033203125
-0.2065906640625,-0.07468038330078125,1.028254091796875
-0.1044699609375,0.00865032958984375,0.8938197607421875
-0.152612578125,-0.14673694091796874,0.874895732421875
-0.14410251953125,0.04492369873046875,1.1565442578125
-0.4127772265625,-0.15703073486328126,0.972219306640625
-0.13145900390625,-0.048945898437499996,0.9670582080078125
-0.2503566796875,0.04149243408203125,1.0073639306640625
-0.30798193359375,-0.22516584716796875,0.9174133544921875
-0.2644590625,-0.1273748046875,0.89996392578125
-0.12829812499999999,-0.18055940673828125,0.8262339453125
-0.1317021484375,-0.0945327001953125,0.7183424072265625
-0.21947732421875,-0.093062158203125,0.7969877197265625
-0.14629082031250001,0.1544790771484375,1.2054518115234374
-0.1321884375,0.01404231689453125,1.18701931640625
-0.30555048828125,0.1574201611328125,1.1508916259765625
-0.09498732421875,0.10619628173828125,0.9166760546875
-0.31722142578125,-0.12369844970703125,1.08084814453125
-0.25497642578125,-0.11487519775390626,0.9906518017578125
-0.32159802734375,-0.20163717529296876,0.72202890625
-0.16112263671875,-0.19992154296875,0.7082659765625
-0.2318776953125,-0.21340151123046874,0.7827332568359375
-0.26907880859375,-0.244037802734375,0.8623616357421875
-0.17522501953125,-0.008996174316406251,0.88423486328125
-0.18397822265625,-0.1376685986328125,0.8751414990234375
-0.16598552734375,-0.07370002197265625,0.821810146484375
-0.23406599609375,-0.013407800292968751,0.66402798828125
-0.090367578125,-0.04477936279296875,0.6234764990234375
-0.17182099609375,-0.08227818359375,0.7746229589843749
-0.1744955859375,-0.08693489990234375,0.915201455078125
-0.14604767578125,-0.08644471923828125,0.7736398925781249
-0.1793584765625,-0.11242429443359375,0.7547158642578125
-0.26032560546875,-0.11732610107421874,0.895540126953125
-0.2056180859375,-0.020515419921875,0.8589209033203125
-0.21510072265625,-0.0386521044921875,0.89799779296875
-0.3339983984375,0.08805959716796875,1.0830600439453124
-0.16258150390625,0.03708080810546875,0.9218371533203125
-0.28196546875,-0.0651218603515625,0.9931094677734374
-0.2260422265625,-0.04526954345703125,0.9827872705078124
-0.24038775390625,-0.01928996826171875,0.7989538525390625
-0.16452666015625,-0.02174087158203125,0.7050710107421875
-0.1112780078125,0.0037485229492187503,0.75840236328125
-0.13948277343749999,-0.06267095703125,0.76430076171875
-0.12221951171875,-0.05090662109375,0.983033037109375
-0.29339326171875,0.07531489990234375,1.15752732421875
-0.42590703125,0.00963069091796875,1.103950205078125
-0.32864921874999997,0.2270258154296875,0.9695158740234375
-0.327676640625,-0.0170841552734375,0.8358188427734374
-0.19346085937500002,-0.00654527099609375,0.871455
-0.30506419921875,-0.096983603515625,0.9026673583984375
-0.20464550781250002,-0.285212978515625,0.9992536328125
-0.18543708984375,0.028257556152343752,1.174730986328125
-0.32305689453124997,0.05105095703125,0.9407611816406249
-0.0869635546875,-0.06977857666015624,0.937811982421875
-0.2678630859375,-0.013652890625,1.1371286962890625
-0.2644590625,-0.0641414990234375,1.048898486328125
-0.3203823046875,0.12384278564453124,1.0363643896484376
-0.34104958984375,-0.0411030078125,0.9341254833984375
-0.19321771484375,0.1231075146484375,1.0019570654296874
-0.20342978515625,0.05178622802734375,0.993846767578125
-0.24695265625,-0.03056412353515625,1.0565172509765626
-0.40621232421875,0.01992448486328125,0.9203625537109374
-0.31187224609374997,0.08805959716796875,0.7886316552734375
-0.26470220703125,0.03168882080078125,0.8938197607421875
-0.20732009765625,-0.008751083984375,0.920116787109375
-0.02204396484375,-0.0268877685546875,0.95698177734375
-0.1521262890625,-0.0425735498046875,1.0702801806640625
-0.20051205078125,0.028257556152343752,1.03169482421875
-0.296554140625,-0.11095375244140625,0.93142205078125
-0.2722396875,0.07188363525390624,1.0240760595703124
-0.3476144921875,-0.023456503906250002,1.1135351025390625
-0.265431640625,0.040266982421875,1.3440641748046875
-0.3816547265625,0.017718671875,1.3248943798828126
-0.3641483203125,0.10080429443359375,1.0024485986328124
-0.024232265625,0.04590406005859375,0.8328696435546875
-0.13510617187500001,-0.00409436767578125,1.136391396484375
-0.24184662109375,0.09590248779296875,1.1880023828125
-0.27248283203125,0.053992041015625,1.3180129150390625
-0.2450075,-0.00801581298828125,1.1250861328125
-0.1803310546875,0.09100068115234375,1.11034013671875
-0.15236943359375,-0.0097314453125,0.9916348681640625
-0.21412814453125,-0.110708662109375,1.00023669921875
-0.24306234375,-0.07517056396484376,1.0346440234375
-0.24573693359375,-0.189137568359375,1.0810939111328124
-0.27418484375,-0.1249239013671875,0.9166760546875
-0.23892888671875,-0.1719812451171875,0.8603955029296875
-0.21753216796875,-0.1866866650390625,0.977626171875
-0.3291355078125,-0.112669384765625,1.0501273193359375
-0.36098744140625,-0.09722869384765626,0.9768888720703125
-0.2036729296875,-0.0955130615234375,1.0702801806640625
-0.29874244140625,0.0037485229492187503,0.9395323486328125
-0.30944080078125,0.03928662109375,1.0476696533203125
-0.280992890625,-0.18153976806640626,1.1027213720703124
-0.18057419921875,-0.10409122314453124,0.8102591162109375
-0.20245720703125,-0.08644471923828125,0.72497810546875
-0.1326747265625,0.04688442138671875,0.8191067138671875
-0.19127255859375,-0.067572763671875,0.876861865234375
-0.27248283203125,-0.02909358154296875,1.0579918505859376
-0.32111173828125,-0.03105430419921875,1.0294829248046875
-0.33472783203125,-0.10972830078125,1.15752732421875
-0.41788326171875,-0.13791368896484374,1.1164843017578125
-0.3077387890625,-0.015368522949218751,1.1680952880859374
-0.42469130859375,0.020659755859375,1.0633987158203124
-0.27613,-0.079337099609375,0.7399698681640625
-0.18154677734375,-0.1038461328125,0.565229814453125
-0.148722265625,-0.0543378857421875,0.466431640625
-0.0529233203125,-0.0092412646484375,0.7746229589843749
-0.04538583984375,-0.09624833251953124,0.8554801708984375
-0.23066197265625,-0.04968116943359375,0.8353273095703125
-0.39454138671875,-0.012427438964843749,0.7768348583984375
-0.33618669921875,0.05497240234375,0.946168046875
-0.3680386328125,0.02752228515625,1.163917255859375
-0.38238416015625,0.05570767333984375,1.1813666845703126
-0.38432931640625,0.0770305322265625,1.1690783544921874
-0.2347954296875,-0.1435507666015625,0.9591936767578125
-0.19637859375,-0.089140712890625,0.920116787109375
-0.10908970703125,-0.05850442138671875,1.0697886474609375
-0.1365650390625,-0.055073156738281254,1.3534033056640624
-0.1861665234375,0.16011615478515626,1.347750673828125
-0.50201126953125,0.07482471923828125,0.9972875
-0.23406599609375,-0.046740085449218746,0.999745166015625
-0.037362070312499995,-0.18399067138671876,1.172764853515625
-0.20634751953125,-0.2805562622070312,1.28729208984375
-0.38505875,-0.11046357177734376,1.3548779052734374
-0.36366203125,-0.0337502978515625,1.1366371630859375
-0.38432931640625,0.0231106591796875,1.0395593554687501
-0.3962433984375,-0.06977857666015624,0.8692431005859375
-0.36050115234375,-0.1038461328125,0.64633279296875
-0.07845349609375,0.089285048828125,0.65223119140625
-0.055354765624999996,0.12678386962890625,0.625196865234375
0.03314984375,-0.1494329345703125,0.722520439453125
-0.1015522265625,-0.2788406298828125,0.8889044287109376
-0.2630001953125,-0.17639287109375001,0.916184521484375
-0.32159802734375,-0.09134652587890625,0.6917996142578124
-0.31697828125,-0.01830960693359375,0.8382765087890625
-0.18057419921875,-0.110708662109375,0.930930517578125
-0.12562353515625,-0.04134809814453125,0.942727314453125
-0.23357970703125,0.11305881103515625,0.985490703125
-0.34104958984375,0.15325362548828125,1.0442289208984374
-0.24525064453125,0.2221240087890625,1.0987891064453126
-0.23941517578125,0.04884514404296875,1.1223827001953124
-0.011588750000000002,-0.006790361328125,1.0346440234375
-0.11687033203125,-0.0210056005859375,0.8783364648437499
-0.03322861328125,-0.0999246875,0.6962234130859375
-0.07407689453124999,-0.198941181640625,0.6003744384765625
-0.026420566406250002,-0.2023724462890625,0.8019030517578125
-0.01620849609375,-0.13007079833984375,1.1268064990234374
-0.3806821484375,-0.0935523388671875,1.3897767626953126
-0.4905834765625,0.16795904541015624,1.2993346533203125
-0.415208671875,0.1721255810546875,1.0948568408203125
-0.1949197265625,0.169674677734375,0.8879213623046875
-0.1501811328125,-0.08301345458984374,0.8834975634765625
-0.03298546875,-0.10065995849609374,0.97664310546875
-0.038091503906250004,-0.1641383544921875,0.9577190771484375
-0.22968939453125,-0.20212735595703124,1.0938737744140625
-0.33715927734375,-0.09036616455078125,1.3588101708984375
-0.4186126953125,-0.20359789794921876,1.090187275390625
-0.37217208984375,0.0721287255859375,0.915201455078125
-0.30530734375,0.0005623486328125002,0.716622041015625
-0.0714023046875,0.0030132519531249997,0.812962548828125
-0.21947732421875,0.0201695751953125,1.02186416015625
-0.34834392578125,-0.01978014892578125,0.8859552294921875
-0.34007701171875,0.0358553564453125,0.718096640625
-0.308225078125,-0.03742665283203125,0.5556449169921875
-0.19321771484375,-0.1680597998046875,0.568670546875
-0.18470765625,-0.0759058349609375,0.7861739892578125
-0.221665625,-0.04330882080078125,0.8392595751953125
-0.251815546875,-0.042083369140625,0.9857364697265625
-0.37946642578125,0.13560712158203125,1.093136474609375
-0.40037685546875,0.10962754638671875,0.920116787109375
-0.22823052734375,0.00227798095703125,0.9572275439453125
-0.39210994140625,0.11354899169921875,0.994829833984375
-0.41982841796875,0.0270321044921875,0.7969877197265625
-0.04684470703125,-0.06928839599609375,0.633061396484375
-0.22677166015625,-0.1455114892578125,0.621264599609375
-0.29363640625,-0.18252012939453124,0.4558636767578125
-0.26154132812499997,-0.2869286108398437,0.83508154296875
-0.34931650390625,-0.0210056005859375,1.1572815576171875
-0.33229638671875,0.2152614794921875,1.268613828125
-0.3155194140625,0.181439013671875,1.1322133642578125
-0.2474389453125,-0.026397587890625,1.283851357421875
-0.15771861328125,0.05815857666015625,1.455887978515625
-0.1628246484375,-0.1092381201171875,1.2162655419921875
-0.1949197265625,-0.09085634521484375,0.911269189453125
-0.2882872265625,-0.126394443359375,0.7478343994140625
-0.25059982421875,-0.28643843017578124,0.840488408203125
-0.2114535546875,-0.061690595703125004,1.1032129052734374
-0.1453182421875,-0.142080224609375,1.2020110791015626
-0.18300564453125,-0.07271966064453125,1.2821309912109375
-0.268349375,-0.00948635498046875,1.431311318359375
-0.36876806640625,-0.01144707763671875,1.207172177734375
-0.29509527343749997,-0.13448242431640625,0.94223578125
-0.3369161328125,-0.087179990234375,0.8766160986328125
-0.1920019921875,-0.0646316796875,0.8544971044921875
-0.16112263671875,-0.0038492773437499997,0.938303515625
-0.09450103515625,-0.06242586669921875,1.2029941455078126
-0.0198556640625,0.042227705078125,1.279919091796875
-0.36828177734375,-0.03301502685546875,1.3710985009765624
-0.32402947265625,0.14124419921875,1.157035791015625
-0.226528515625,0.01208159423828125,1.084288876953125
-0.41545181640625,0.1280093212890625,1.089204208984375
-0.20245720703125,-0.08840544189453126,1.0919076416015625
-0.35028908203125,0.14737145751953126,1.3573355712890625
-0.405482890625,0.15227326416015624,1.4802188720703124
-0.084532109375,0.05619785400390625,1.5731186474609375
-0.23455228515625,0.09786321044921875,1.55566921875
-0.4468174609375,0.0682072802734375,1.2919616552734374
-0.2182616015625,0.063795654296875,1.3086737841796876
-0.31235853515625,-0.11830646240234374,1.3180129150390625
-0.1258666796875,-0.0366913818359375,1.3096568505859374
-0.24622322265625,-0.2376654541015625,1.3502083398437499
-0.21266927734375,-0.09575815185546875,1.3177671484375
-0.15042427734375,0.00570924560546875,0.9734481396484375
-0.17619759765625,-0.18031431640625,0.6689433203125
-0.2007551953125,-0.2092349755859375,0.7591396630859375
-0.18008791015625,-0.249919970703125,0.8510563720703125
-0.25643529296875,-0.16070708984375,1.0511103857421875
-0.30627992187499997,-0.2974674951171875,1.2037314453125
-0.347128203125,0.02923791748046875,1.3300554785156251
-0.29922873046875,-0.03938737548828125,0.97074470703125
-0.20051205078125,0.0495804150390625,0.72694423828125
-0.279047734375,-0.02076051025390625,0.58145041015625
-0.12270580078125,-0.065612041015625,0.61192546875
-0.1399690625,-0.07320984130859375,0.6244595654296875
-0.11443888671875,-0.04306373046875,0.80558955078125
-0.046358417968749996,-0.085219267578125,1.0427543212890624
-0.15625974609374998,-0.0033590966796874996,1.1784174853515625
-0.48790888671875,0.03536517578125,1.2958939208984375
-0.5265688671875,0.16085142578125,1.121645400390625
-0.36585033203125,0.1819291943359375,0.787402822265625
-0.35077537109375,0.18364482666015625,0.6721382861328125
-0.26956509765625,0.300062734375,0.758893896484375
-0.111764296875,0.3101114379882812,1.02383029296875
0.0832376171875,0.0613447509765625,1.222901240234375
-0.26567478515625,0.085363603515625,1.0978060400390626
-0.38432931640625,-0.1278649853515625,0.847369873046875
-0.17619759765625,-0.11879664306640625,0.9488714794921875
-0.4361191015625,-0.128355166015625,0.8495817724609375
-0.315033125,-0.2406065380859375,0.6156119677734375
-0.16938955078125,-0.25751777099609374,0.66206185546875
-0.2435486328125,-0.2450181640625,0.7746229589843749
-0.09304216796875,-0.2239403955078125,0.8427003076171875
-0.35028908203125,-0.04575972412109375,0.7365291357421875
-0.1560166015625,-0.02860340087890625,0.6854096826171875
-0.1803310546875,-0.11585555908203125,0.8365561425781249
-0.2989855859375,-0.14526639892578125,0.895540126953125
-0.1710915625,-0.09183670654296874,0.9469053466796875
-0.30360533203125,-0.2668312036132813,0.9847534033203125
-0.22288134765625,-0.08252327392578125,0.9913891015625
-0.009643593750000002,-0.1798241357421875,0.708757509765625
-0.02885201171875,-0.18497103271484375,0.8019030517578125
-0.010616171875,-0.096983603515625,0.87047193359375
-0.19224513671875,-0.0631611376953125,0.8864467626953125
-0.17522501953125,0.09198104248046875,1.1680952880859374
-0.1788721875,0.0378160791015625,1.38166646484375
-0.3349709765625,0.18830154296875,1.416565322265625
-0.1492085546875,0.06109966064453125,1.1061621044921874
-0.14653396484375,0.06404074462890624,0.8023945849609375
-0.1939471484375,0.2034971435546875,0.9179048876953125
-0.16452666015625,-0.006790361328125,1.16735798828125
-0.271267109375,0.1995756982421875,1.2863090234375
-0.20294349609375,0.18511536865234374,0.81148794921875
-0.09304216796875,0.02360083984375,0.765775361328125
-0.050491875000000006,-0.06389640869140625,0.6844266162109375
-0.0927990234375,-0.12933552734375,0.6770536181640625
-0.05316646484375,-0.13595296630859374,0.6844266162109375
-0.29387955078125,-0.14820748291015626,0.8053437841796875
-0.448276328125,-0.0406128271484375,1.1327048974609375
-0.3378887109375,-0.2268814794921875,1.21651130859375
-0.30117388671875,-0.34133866455078127,1.091170341796875
-0.189570546875,-0.19918627197265626,0.8500733056640625
-0.15358515625,-0.1533543798828125,0.7458682666015625
-0.26056875,-0.15899145751953125,0.9110234228515625
-0.3145468359375,0.05276658935546875,1.1445016943359374
-0.36779548828124997,0.01698340087890625,1.118696201171875
-0.209022109375,0.0044837939453125,1.161951123046875
-0.046358417968749996,-0.052867343750000004,0.8751414990234375
-0.1803310546875,-0.12516899169921875,0.8557259375
-0.19321771484375,-0.13301188232421876,0.870963466796875
-0.17182099609375,-0.18521612304687501,0.84294607421875
-0.4088869140625,-0.0254172265625,1.033169423828125
-0.48596373046875,-0.06634731201171876,0.918150654296875
-0.426879609375,0.04149243408203125,0.9896687353515625
-0.3748466796875,0.08953013916015624,1.0503730859375
-0.21412814453125,0.17923320068359375,1.008592763671875
-0.127325546875,0.181439013671875,0.9193794873046874
-0.2007551953125,0.19491898193359375,0.9874568359375
-0.2416034765625,0.2182025634765625,1.1027213720703124
-0.0996070703125,0.14541073486328124,1.1523662255859375
0.01369828125,0.16599832275390625,1.2088925439453124
-0.0354169140625,0.1103628173828125,1.1744852197265625
-0.16112263671875,0.057668395996093746,1.1145181689453125
-0.335457265625,0.057668395996093746,1.2403506689453125
-0.3660934765625,0.05962911865234375,1.0604495166015624
-0.362689453125,-0.091101435546875,0.796741953125
-0.1793584765625,-0.144040947265625,0.633061396484375
-0.12221951171875,-0.11291447509765624,0.987948369140625
-0.1793584765625,-0.122472998046875,1.19390078125
-0.3320532421875,-0.07222947998046875,1.2958939208984375
-0.24622322265625,0.13364639892578126,1.38166646484375
-0.20634751953125,-0.147962392578125,1.151137392578125
-0.17376615234375,-0.11291447509765624,1.16145958984375
-0.07869664062500001,0.09884357177734375,1.2609950634765625
-0.0266637109375,0.03021827880859375,1.21651130859375
-0.0966893359375,-0.08423890625,1.206189111328125
-0.23139140625,-0.17418705810546875,1.484396904296875
-0.469673046875,-0.212666240234375,1.653484326171875
-0.47866939453125,-0.06291604736328126,1.1454847607421874
-0.3889490625,-0.07124911865234375,0.8839890966796875
-0.3515048046875,-0.17835359375,0.88423486328125
-0.28026345703125,-0.2371752734375,0.9442019140625
-0.26032560546875,-0.22516584716796875,0.9048792578125
-0.21023783203125002,-0.0935523388671875,0.801165751953125
-0.12246265625,0.09198104248046875,0.7517666650390625
-0.08283009765625,0.08315779052734375,1.0304659912109375
-0.10374052734375,0.09394176513671874,1.1764513525390625
-0.10130908203125,0.1574201611328125,1.06708521484375
-0.185680234375,0.17433139404296874,1.2683680615234374
-0.34931650390625,0.1064413720703125,1.4305740185546876
-0.41812640624999997,0.03119864013671875,1.4059973583984375
-0.45240978515625,-0.01144707763671875,1.1422897949218749
-0.407428046875,-0.1249239013671875,0.802148818359375
-0.32062544921875,-0.038161923828125,0.6669771875
-0.28123603515625,-0.1415900439453125,0.7279273046875
-0.13948277343749999,-0.22467566650390625,0.9815584374999999
-0.18689595703125,-0.07271966064453125,1.049881552734375
-0.265431640625,-0.20727425292968749,0.7856824560546875
0.0336361328125,-0.059729873046875,0.8579378369140624
0.09758314453125,-0.08497417724609375,1.0395593554687501
0.06597435546875,-0.0063001806640625,1.392971728515625
-0.32791978515625,0.101049384765625,1.5062701318359375
-0.48450486328125,-0.047965537109375,1.0786362451171876
-0.41642439453125,0.044188427734375,0.89996392578125
-0.1764407421875,-0.098944326171875,0.864082001953125
-0.0256911328125,-0.19207865234375,1.0083469970703125
-0.13291787109375,-0.05605351806640625,0.8874298291015625
-0.1667149609375,-0.11977700439453125,0.599637138671875
-0.14507509765624998,-0.13203152099609375,0.5925099072265625
-0.15164,-0.051886982421875,0.8166490478515624
-0.183735078125,-0.136198056640625,0.788385888671875
0.035095,-0.128355166015625,0.804606484375
-0.01037302734375,-0.0612004150390625,1.089204208984375
-0.17717017578125,-0.02713285888671875,1.169815654296875
-0.16063634765625,0.02360083984375,1.2206893408203126
-0.2566784375,0.06796218994140625,1.0697886474609375
-0.26129818359375,0.1348718505859375,0.8594124365234375
-0.36585033203125,0.0427178857421875,0.754961630859375
-0.12513724609375,0.14786163818359374,0.8773533984374999
-0.084532109375,0.09810830078125,0.867522734375
-0.1210037890625,-0.0641414990234375,0.7615973291015625
-0.24768208984375,-0.0308092138671875,0.903404658203125
-0.13194529296875,-0.1425704052734375,1.0078554638671875
-0.32889236328125,-0.09722869384765626,1.0894499755859375
-0.2357680078125,-0.0994345068359375,1.0255506591796875
-0.2488978125,-0.144040947265625,0.9614055761718749
-0.277102578125,-0.087179990234375,0.9419900146484375
-0.26032560546875,7.216796875000007e-05,0.9245405859375
-0.265431640625,0.00570924560546875,0.77216529296875
-0.16063634765625,0.03168882080078125,0.6613245556640625
-0.234309140625,0.0299731884765625,0.713672841796875
-0.13413359375,0.004973974609375,0.8982435595703124
-0.28391062499999997,-0.15948163818359376,1.0196522607421874
-0.055354765624999996,0.09786321044921875,1.0717547802734375
-0.29436583984375,-0.02076051025390625,1.0152284619140626
-0.33424154296874997,-0.14428603759765624,0.7340714697265625
-0.174009296875,-0.1116890234375,0.7001556787109375
-0.06240595703125,-0.025662316894531252,0.796250419921875
-0.26907880859375,-0.1396293212890625,0.6829520166015625
-0.33764556640625,-0.013407800292968751,0.5472888525390625
-0.22944625,0.052031318359375,0.5261529248046874
-0.060947089843749996,-0.034240478515625,0.50182203125
0.0012979101562499984,-0.046249904785156254,0.568670546875
-0.06970029296875,0.0005623486328125002,0.761843095703125
-0.15480087890625,0.0495804150390625,0.9985163330078125
-0.26810623046875,0.111833359375,1.252884765625
-0.3378887109375,0.09443194580078125,1.38166646484375
-0.35806970703125,0.1079119140625,1.3946920947265624
-0.21193984375,0.06894255126953125,1.205206044921875
-0.24136033203125,0.00178780029296875,0.8697346337890625
-0.13413359375,-0.04526954345703125,0.7404614013671875
-0.10617197265625,-0.022476142578125,0.770690693359375
-0.08526154296874999,0.04247279541015625,0.835573076171875
-0.12270580078125,-0.0219859619140625,0.8874298291015625
-0.1511537109375,-0.19428446533203125,0.94911724609375
-0.224583359375,-0.10311086181640625,0.865065068359375
-0.2484115234375,0.01159141357421875,1.035135556640625
-0.35028908203125,-0.0175743359375,1.036118623046875
-0.22044990234375,-0.0175743359375,1.2201978076171875
-0.2075632421875,-0.09281706787109376,1.1292641650390625
-0.39794541015625,-0.02958376220703125,0.891116328125
-0.1424005078125,0.06747200927734374,0.9085657568359375
-0.22944625,-0.073454931640625,0.88816712890625
-0.2211793359375,0.05178622802734375,1.0174403613281249
-0.17960162109375,0.0780108935546875,1.1464678271484374
-0.1949197265625,-0.0857094482421875,0.8141913818359375
-0.30652306640625,-0.00360418701171875,1.1010010058593749
-0.2435486328125,0.03855135009765625,1.162934189453125
-0.22336763671875,-0.08595453857421875,1.1508916259765625
-0.16549923828125,0.04933532470703125,1.1405694287109376
-0.2027003515625,-0.19183356201171875,1.0688055810546875
-0.42201671875,-0.11928682373046876,0.98057537109375
-0.38141158203125003,-0.0724745703125,0.9874568359375
-0.35174794921875,-0.067572763671875,0.96288017578125
-0.3203823046875,0.0476196923828125,0.8223016796875
-0.1764407421875,0.16869431640625,0.79379275390625
-0.0699434375,0.1035002880859375,0.9085657568359375
-0.016937929687500002,-0.04968116943359375,1.0678225146484375
-0.1112780078125,-0.126394443359375,1.1587561572265626
-0.27248283203125,-0.15752091552734376,1.2536220654296875
-0.26616107421875,-0.04379900146484375,1.30498728515625
-0.24938410156250002,-0.0455146337890625,1.007609697265625
-0.424934453125,-0.03987755615234375,1.1499085595703125
-0.32864921874999997,0.01747358154296875,0.9788550048828125
-0.29047552734375,-0.0254172265625,0.89504859375
-0.224583359375,0.134381669921875,1.0476696533203125
-0.06143337890625,0.10325519775390625,1.2398591357421875
-0.28366748046875,0.22874144775390626,1.4487607470703125
-0.21412814453125,0.23021198974609375,1.1936550146484375
-0.21801845703125,0.08119706787109375,1.0761785791015626
-0.166228671875,-0.03203466552734375,1.048898486328125
-0.16355408203125,-0.1376685986328125,0.9931094677734374
-0.1560166015625,0.06355056396484375,1.1464678271484374
-0.27880458984375,-0.01561361328125,1.1794005517578126
-0.30530734375,-0.1092381201171875,0.9508376123046876
-0.2289599609375,-0.0308092138671875,0.86653966796875
-0.35077537109375,-0.18938265869140625,1.0029401318359374
-0.3242726171875,-0.0749254736328125,0.9481341796875
-0.29096181640625,-0.036201201171875,1.0378389892578126
-0.14629082031250001,-0.0464949951171875,1.06905134765625
-0.31770771484375,-0.0033590966796874996,1.13000146484375
-0.09304216796875,-0.06928839599609375,1.00416896484375
-0.197351171875,-0.17614778076171875,0.909303056640625
-0.0694571484375,-0.15507001220703126,1.0176861279296876
-0.022287109375,-0.21095060791015624,1.0975602734375
-0.15771861328125,-0.23349891845703125,1.11034013671875
-0.30409162109375,-0.0371815625,1.140323662109375
-0.41934212890625,-0.08546435791015625,1.206189111328125
-0.33983386718749997,-0.055073156738281254,1.18898544921875
-0.33472783203125,-0.12222790771484375,0.9704989404296875
-0.302389609375,-0.0680629443359375,0.918150654296875
-0.268349375,0.0025230712890624996,0.7896147216796875
-0.16793068359375,0.00399361328125,0.7532412646484374
-0.1472633984375,-0.0239466845703125,0.80165728515625
-0.288773515625,-0.0670825830078125,0.817877880859375
-0.22920310546875,-0.06389640869140625,0.784453623046875
-0.18470765625,0.013552136230468751,1.0781447119140626
-0.21947732421875,-0.00409436767578125,1.1073909375
-0.17814275390625,0.0417375244140625,0.9233117529296875
-0.26616107421875,0.0142874072265625,1.1115689697265625
-0.27807515625,0.0515411376953125,1.2133163427734375
-0.2873146484375,0.09345158447265625,1.306461884765625
-0.34931650390625,0.07727562255859374,1.1794005517578126
-0.43587595703125,0.0348749951171875,1.04545775390625
-0.352963671875,0.015022678222656249,0.7942842871093749
-0.27418484375,-0.02321141357421875,0.749554765625
-0.143859375,-0.03399538818359375,0.7104778759765625
-0.143859375,-0.120512275390625,0.7475886328125
-0.26178447265625,-0.09820905517578125,0.784453623046875
-0.27248283203125,-0.022476142578125,0.901438525390625
-0.30141703125,-0.03497574951171875,1.0014655322265624
-0.26956509765625,-0.08791526123046875,0.9704989404296875
-0.17814275390625,-0.0955130615234375,0.871946533203125
-0.25983931640625,0.02923791748046875,0.80853875
-0.26129818359375,-0.00654527099609375,0.8365561425781249
-0.34980279296875,0.0010525292968750002,0.9641090087890625
-0.35515197265625,-0.05556333740234375,0.990897568359375
-0.2843969140625,-0.0011532836914062497,0.9277355517578125
-0.21583015625000002,-0.0415931884765625,0.9749227392578125
-0.23066197265625,-0.050661530761718754,1.0191607275390624
-0.2639727734375,-0.06389640869140625,1.0191607275390624
-0.2022140625,-0.0180645166015625,0.8943112939453125
-0.131215859375,-0.0200252392578125,0.823776279296875
-0.21583015625000002,-0.069533486328125,0.9601767431640625
-0.14118478515625,-0.061690595703125004,1.13589986328125
-0.07748091796875001,-0.1092381201171875,1.263206962890625
-0.1287844140625,-0.0768861962890625,1.1764513525390625
-0.25400384765625,-0.0513968017578125,1.24796943359375
-0.35515197265625,-0.03522083984375,1.1061621044921874
-0.20926525390625,-0.181294677734375,1.25386783203125
-0.27880458984375,-0.21144078857421875,1.2944193212890625
-0.26421591796875,-0.12933552734375,0.95108337890625
-0.1744955859375,-0.2629097583007812,0.65419732421875
-0.18981369140625,-0.138158779296875,0.7301392041015625
-0.1103054296875,-0.01487834228515625,0.8245135791015625
-0.0412523828125,-0.15212892822265625,0.8078014501953125
-0.08039865234375,-0.0018885546875000003,1.0796193115234376
-0.29290697265625,0.03413972412109375,0.988931435546875
-0.31576255859375,0.0358553564453125,0.878827998046875
-0.32986494140625,0.08805959716796875,1.15162892578125
-0.30457791015625,0.15692998046875,1.1228742333984374
-0.23114826171875,0.2333981640625,1.2152824755859375
-0.3446967578125,0.199085517578125,1.2703341943359374
-0.32013916015625,0.17090012939453125,1.0348897900390626
-0.34542619140624997,0.0691876416015625,0.93338818359375
-0.27442798828125,0.0044837939453125,0.8608870361328125
-0.0782103515625,-0.1817848583984375,0.7684787939453125
-0.14847912109375,-0.24183198974609374,0.9749227392578125
-0.1482359765625,-0.21095060791015624,1.0786362451171876
-0.22336763671875,-0.267566474609375,1.0594664501953126
-0.413263515625,-0.15286419921875,1.0756870458984376
-0.31819400390625,-0.0415931884765625,0.95894791015625
-0.2099946875,-0.06830803466796875,0.96681244140625
-0.263486484375,0.08315779052734375,1.0815854443359374
-0.2095083984375,-0.05213207275390625,0.9795923046875
-0.209022109375,-0.16683434814453124,0.969270107421875
-0.2124261328125,-0.03129939453125,1.0624156494140624
-0.23795630859375,-0.154824921875,0.9324051171875
-0.28658521484375,-0.107767578125,0.9896687353515625
-0.2182616015625,-0.140119501953125,1.08084814453125
-0.24525064453125,-0.14673694091796874,1.0385762890625
-0.247925234375,-0.0376717431640625,0.9994993994140625
-0.2396583203125,-0.03742665283203125,1.07888201171875
-0.23819945312500002,-0.18301031005859375,0.8844806298828125
-0.28366748046875,-0.13056097900390626,0.789368955078125
-0.21607330078125,-0.09673851318359375,0.9061080908203125
-0.199296328125,-0.03522083984375,0.992863701171875
-0.29096181640625,-0.01683906494140625,1.1179589013671876
-0.31770771484375,0.01159141357421875,1.2280623388671874
-0.27613,0.059874208984374996,1.074458212890625
-0.314060546875,0.05423713134765625,1.1329506640625
-0.3578265625,0.0917359521484375,1.1010010058593749
-0.212912421875,0.09639266845703125,0.871455
-0.27418484375,0.057668395996093746,0.7665126611328125
-0.28220861328125,-0.029338671875,0.64633279296875
-0.1472633984375,-0.06487677001953125,0.58341654296875
-0.1851939453125,-0.098944326171875,0.6286375976562499
-0.2260422265625,-0.118551552734375,0.735300302734375
-0.2766162890625,-0.05654369873046875,0.9410069482421874
-0.3699837890625,-0.08105273193359375,1.0594664501953126
-0.3816547265625,-0.0661022216796875,1.05725455078125
-0.35223423828125,-0.083258544921875,1.0481611865234375
-0.3057936328125,-0.08742508056640624,1.0294829248046875
-0.18106048828125,-0.11757119140625,0.9827872705078124
-0.137051328125,-0.1062970361328125,0.963371708984375
-0.050491875000000006,-0.06634731201171876,0.859166669921875
-0.038577792968749997,-0.098944326171875,0.906353857421875
-0.072861171875,-0.042328459472656246,1.00416896484375
-0.14069849609375001,0.028257556152343752,1.1120605029296875
-0.27151025390625,0.04443351806640625,1.103950205078125
-0.21801845703125,0.110852998046875,0.9513291455078126
-0.13534931640625,-0.01095689697265625,0.9481341796875
-0.13510617187500001,-0.0092412646484375,1.1582646240234376
-0.2017277734375,-0.03129939453125,1.2585373974609375
-0.38287044921875,0.0289928271484375,1.30105501953125
-0.4278521875,-0.00311400634765625,1.070525947265625
-0.40621232421875,0.014777587890624999,0.96681244140625
-0.30798193359375,0.03364954345703125,0.9442019140625
-0.16841697265625,-0.03889719482421875,0.8633447021484375
-0.026420566406250002,-0.1749223291015625,0.914709921875
-0.02739314453125,-0.1249239013671875,1.09657720703125
-0.21899103515625,-0.09722869384765626,1.3101483837890624
-0.175954453125,-0.010221625976562499,1.32858087890625
-0.28123603515625,-0.0006631030273437505,1.25583396484375
-0.31138595703125,-0.00581,1.0149826953125
-0.34421046875,0.03806116943359375,1.13786599609375
-0.44560173828125,-0.075415654296875,1.072000546875
-0.42323244140625,-0.01291761962890625,0.926998251953125
-0.251815546875,0.099088662109375,0.8510563720703125
-0.25351755859375,0.03021827880859375,0.6296206640625
-0.19346085937500002,-0.149923115234375,0.5556449169921875
-0.1287844140625,-0.16095218017578125,0.6047982373046875
0.0034862109374999978,-0.12149263671875,0.7188339404296875
-0.133161015625,-0.1352176953125,0.9798380712890625
-0.2912049609375,0.00570924560546875,1.1882481494140624
-0.23163455078125,-0.050661530761718754,0.97467697265625
-0.35101851562499997,-0.10360104248046875,1.1798920849609376
-0.3252451953125,0.0221302978515625,1.1135351025390625
-0.2552195703125,-0.06267095703125,0.9095488232421876
-0.16938955078125,-0.14575657958984375,0.8387680419921875
-0.39454138671875,-0.10286577148437501,0.8613785693359375
-0.199296328125,-0.1739419677734375,0.8746499658203125
-0.222638203125,-0.11536537841796875,1.14376439453125
-0.3320532421875,-0.079337099609375,1.0933822412109375
-0.2309051171875,0.0250713818359375,0.9272440185546875
-0.18008791015625,-0.01438816162109375,0.7751144921875
-0.18543708984375,-0.034240478515625,0.7404614013671875
-0.20488865234375,-0.07124911865234375,0.7183424072265625
-0.2503566796875,-0.0759058349609375,0.77019916015625
-0.15869119140625,-0.09232688720703125,0.7945300537109374
-0.0801555078125,-0.14526639892578125,1.0845346435546874
-0.27199654296875,-0.0710040283203125,1.258291630859375
-0.3578265625,-0.0935523388671875,1.182595517578125
-0.3874901953125,0.0329142724609375,1.1209081005859376
-0.40183572265625,0.03953171142578125,0.938303515625
-0.24816837890625,-0.1053166748046875,0.8805483642578125
-0.15674603515625,-0.1288453466796875,1.0103131298828125
-0.16355408203125,-0.12124754638671875,0.91569298828125
-0.058272500000000005,-0.1474722119140625,0.8913620947265625
-0.22385392578125,-0.04036773681640625,0.9363373828125
-0.23114826171875,0.1221271533203125,0.9606682763671874
-0.3028758984375,0.05668803466796875,1.0683140478515625
-0.29582470703125,-0.0053198193359375,1.0722463134765625
-0.38530189453125,0.14786163818359374,1.1172216015625
-0.3359435546875,-0.1582561865234375,1.01596576171875
-0.25497642578125,-0.10752248779296875,1.014491162109375
-0.35661083984374997,-0.123453359375,0.9913891015625
-0.018396796875,0.02360083984375,0.874895732421875
-0.10957599609375,-0.0151234326171875,0.9994993994140625
-0.2591098828125,0.014777587890624999,1.0604495166015624
-0.23309341796875,-0.04526954345703125,1.1730106201171875
-0.14969484375,-0.06928839599609375,1.15556119140625
-0.14945169921875,-0.08203309326171875,1.0855177099609374
-0.0932853125,0.0319339111328125,1.0520934521484375
-0.34104958984375,-0.0474753564453125,1.0958399072265625
-0.288773515625,-0.0504164404296875,1.0267794921875
-0.2172890234375,-0.0175743359375,0.885709462890625
-0.26154132812499997,-0.1602169091796875,0.8195982470703125
-0.20488865234375,-0.23300873779296874,0.972219306640625
-0.3446967578125,-0.1602169091796875,1.0678225146484375
-0.24330548828125,-0.0455146337890625,0.9916348681640625
-0.20926525390625,-0.12075736572265625,0.76921609375
-0.20197091796875,-0.02370159423828125,0.729401904296875
-0.0869635546875,-0.10065995849609374,0.67975705078125
-0.0030786914062500004,-0.18055940673828125,0.9257694189453125
-0.14799283203125,-0.03399538818359375,1.1508916259765625
-0.12562353515625,0.06698182861328125,1.2398591357421875
-0.2357680078125,-0.0121823486328125,1.2703341943359374
-0.41885583984375,0.0946770361328125,1.2069264111328124
-0.2542469921875,0.05325677001953125,1.0053977978515625
-0.39356880859375,-0.06659240234375,1.141306728515625
-0.36147373046875,0.12874459228515625,1.13983212890625
-0.302389609375,-0.06291604736328126,0.92552365234375
-0.263486484375,7.216796875000007e-05,0.8820229638671875
-0.3072525,0.0059543359375,0.8014115185546875
-0.1827625,0.064776015625,0.72202890625
-0.0004041015625000019,0.01183650390625,0.6795112841796875
-0.09498732421875,-0.0288484912109375,0.8694888671875
-0.09085386718749999,0.011346323242187501,0.8783364648437499
-0.17619759765625,-0.059729873046875,1.01203349609375
-0.32305689453124997,0.07482471923828125,1.1164843017578125
-0.3184371484375,-0.0415931884765625,1.0584833837890626
-0.30457791015625,-0.0028689160156250004,0.9402696484374999
-0.19467658203125,-0.08056255126953125,1.042017021484375
-0.22190876953125,-0.00752563232421875,1.2462490673828124
-0.36341888671875,-0.10262068115234375,1.08871267578125
-0.42323244140625,0.0123266845703125,1.0034316650390624
-0.3694975,-0.07222947998046875,1.0149826953125
-0.300444453125,-0.18399067138671876,0.9282270849609375
-0.17692703125,-0.17516741943359376,0.93732044921875
-0.0762651953125,-0.1352176953125,0.89603166015625
-0.057543066406249996,-0.1190417333984375,0.6800028173828125
-0.01474962890625,-0.114630107421875,0.497889765625
-0.018396796875,-0.0719843896484375,0.7699533935546875
-0.23066197265625,-0.025662316894531252,1.0339067236328126
-0.24379177734375002,-0.05801424072265625,1.2442829345703126
-0.360744296875,-0.03105430419921875,1.6045767724609374
-0.40815748046875,-0.02909358154296875,1.53994015625
-0.44730375,0.02237538818359375,1.2084010107421874
-0.43830740234375,0.110852998046875,1.037101689453125
-0.26713365234374997,0.0231106591796875,0.873912666015625
-0.19419029296875,-0.00703545166015625,0.79772501953125
-0.18227621093750002,0.05962911865234375,0.878827998046875
-0.1346198828125,-0.05874951171875,0.828200078125
-0.1336473046875,-0.0768861962890625,0.82131861328125
-0.2182616015625,0.0525214990234375,0.9803296044921875
-0.05851564453125,-0.04036773681640625,0.8778449316406249
-0.1793584765625,-0.04085791748046875,0.9719735400390626
-0.25838044921875,0.09835339111328124,1.07494974609375
-0.26616107421875,-0.08007237060546875,1.039067822265625
-0.255705859375,-0.0210056005859375,1.2020110791015626
-0.46116298828125,-0.04919098876953125,1.3374284765625
-0.46870046875,-0.05262225341796875,1.2064348779296874
-0.401592578125,0.0319339111328125,1.0737209130859375
-0.421044140625,-0.01438816162109375,0.9999909326171875
-0.26421591796875,-0.10188541015625,0.7301392041015625
-0.13145900390625,-0.104826494140625,0.72891037109375
-0.081614375,-0.04183827880859375,0.715638974609375
-0.04392697265625,-0.12173772705078124,0.5856284423828125
0.02609865234375,-0.13154134033203124,0.6652568212890625
-0.02350283203125,-0.18815720703125,0.9242948193359375
-0.247925234375,-0.27418391357421873,1.0702801806640625
-0.3816547265625,-0.09820905517578125,1.2334692041015625
-0.37217208984375,-0.02909358154296875,1.324157080078125
-0.3096839453125,0.0368357177734375,1.2629611962890626
-0.33764556640625,-0.020515419921875,1.3052330517578126
-0.43295822265625,-0.01487834228515625,1.143272861328125
-0.27831830078124997,0.0721287255859375,1.066593681640625
-0.32013916015625,0.01183650390625,1.1056705712890624
-0.07067287109375,-0.00360418701171875,0.9611598095703124
-0.08185751953125,-0.01487834228515625,0.9439561474609375
-0.14604767578125,0.02041466552734375,0.8721922998046875
-0.1866528125,-0.22859711181640624,0.78494515625
-0.0704297265625,-0.11536537841796875,1.0221099267578124
-0.27807515625,-0.02419177490234375,1.185544716796875
-0.24330548828125,-0.10850284912109374,0.92159138671875
-0.3408064453125,-0.016593974609375,1.2477236669921874
-0.4448723046875,0.0446786083984375,1.1562984912109375
-0.47088876953125003,0.0936966748046875,1.0503730859375
-0.3106565234375,0.075559990234375,1.019406494140625
-0.36876806640625,0.02531647216796875,1.13983212890625
-0.304334765625,0.05374695068359375,1.0894499755859375
-0.15820490234375,-0.0043394580078125,1.031203291015625
-0.09304216796875,-0.15359947021484374,0.80558955078125
-0.1958923046875,-0.22173458251953124,0.92650671875
-0.2834243359375,-0.2092349755859375,1.0894499755859375
-0.3359435546875,-0.170510703125,1.185544716796875
-0.39502767578125,-0.04772044677734375,1.150645859375
-0.35199109375,0.061834931640625,1.08478041015625
-0.3301080859375,0.04100225341796875,0.9326508837890625
-0.28974609375,0.0574233056640625,0.85081060546875
-0.20342978515625,-0.00850599365234375,0.8923451611328125
-0.15285572265625,-0.18448085205078124,0.8427003076171875
-0.10179537109375,-0.096983603515625,0.9803296044921875
-0.22288134765625,-0.06095532470703125,1.0661021484375
-0.25789416015625,-0.2357047314453125,0.9994993994140625
-0.2649453515625,0.00717978759765625,1.0034316650390624
-0.35174794921875,0.0255615625,0.922574453125
-0.27929087890625,0.04933532470703125,1.0014655322265624
-0.3116291015625,0.0721287255859375,0.8918536279296875
-0.43004048828125,0.01747358154296875,0.8780906982421874
-0.36463460937500003,0.0012976196289062499,1.04742388671875
-0.2805066015625,-0.00654527099609375,0.8707177001953125
-0.28585578125,-0.08350363525390625,0.8073099169921875
-0.21850474609375,-0.1474722119140625,0.8702261669921875
-0.209022109375,-0.1719812451171875,0.9238032861328125
-0.2795340234375,-0.053847705078125,1.079865078125
-0.15480087890625,-0.00409436767578125,1.16342572265625
-0.2250696484375,0.14639109619140625,1.1405694287109376
-0.39162365234375,0.114774443359375,1.0661021484375
-0.33132380859375,-0.012672529296875,0.9906518017578125
-0.19346085937500002,0.13070531494140625,0.92159138671875
-0.2878009375,0.10129447509765625,1.033169423828125
-0.1803310546875,0.04320806640625,0.8869382958984375
-0.41204779296875,0.071638544921875,0.8505648388671875
-0.288773515625,0.0701680029296875,0.9832788037109375
-0.3135742578125,-0.02272123291015625,1.0053977978515625
-0.288773515625,-0.081297822265625,0.8318865771484375
-0.1205175,-0.0778665576171875,0.778555224609375
-0.19346085937500002,-0.20702916259765625,0.811979482421875
-0.174981875,-0.257762861328125,0.8898874951171875
-0.2707808203125,-0.18815720703125,1.0417712548828124
-0.33570041015625,-0.096983603515625,1.1081282373046875
-0.27588685546875,-0.0386521044921875,0.9542783447265625
-0.2678630859375,0.023845930175781252,0.85081060546875
-0.237226875,0.1201664306640625,0.908319990234375
-0.17717017578125,0.028257556152343752,0.8692431005859375
-0.19662173828125,-0.2058037109375,0.87931953125
-0.2017277734375,-0.22345021484375,1.0358728564453126
-0.37849384765625,-0.1161006494140625,1.14769666015625
-0.19029998046875,-0.04821062744140625,1.1376202294921876
-0.31916658203125,0.0427178857421875,1.027271025390625
-0.268349375,-0.008751083984375,0.8859552294921875
-0.16112263671875,-0.011201987304687501,0.935845849609375
-0.3748466796875,0.01159141357421875,1.022355693359375
-0.22336763671875,-0.020515419921875,0.887675595703125
-0.2707808203125,-0.04919098876953125,0.954524111328125
-0.29728357421875,-0.030319033203124998,0.95108337890625
-0.3111428125,-0.08227818359375,0.969270107421875
-0.30749564453125,0.05276658935546875,1.039067822265625
-0.2425760546875,-0.02370159423828125,1.090187275390625
-0.2931501171875,0.012816865234374999,1.1155012353515625
-0.27102396484375,-0.048455717773437504,0.9990078662109375
-0.3048210546875,0.0015427099609375003,0.944693447265625
-0.29339326171875,-0.01634888427734375,0.9936010009765625
-0.32305689453124997,-0.02321141357421875,0.9085657568359375
-0.16841697265625,-0.0670825830078125,0.8638362353515625
-0.22482650390625,0.01575794921875,0.9080742236328125
-0.29728357421875,-0.07222947998046875,0.954524111328125
-0.29387955078125,-0.08227818359375,0.961897109375
-0.32159802734375,-0.02517213623046875,0.90389619140625
-0.20780638671875,-0.03644629150390625,0.8576920703124999
-0.32986494140625,-0.0886505322265625,0.8333611767578125
-0.31527626953125,-0.02468195556640625,0.941744248046875
-0.26567478515625,-0.13399224365234375,0.8928366943359375
-0.2503566796875,-0.134237333984375,0.9365831494140625
-0.19637859375,-0.06781785400390625,1.072492080078125
-0.21972046875,-0.12958061767578125,1.072000546875
-0.28585578125,0.00766996826171875,1.06118681640625
-0.3038484765625,0.03953171142578125,1.024321826171875
-0.34785763671875003,0.11747043701171875,1.0137538623046876
-0.18057419921875,0.06355056396484375,0.937811982421875
-0.02982458984375,-0.03644629150390625,1.0747039794921875
-0.36633662109375,0.0466393310546875,1.125577666015625
-0.38967849609375,-0.09526797119140624,1.0914161083984375
-0.4030514453125,0.044188427734375,1.0346440234375
-0.24038775390625,0.10399046875,0.9051250244140625
-0.12367837890625,-0.063651318359375,0.76036849609375
-0.09547361328125001,-0.0817880029296875,0.9097945898437501
-0.31673513671875,-0.147962392578125,1.0071181640625
-0.36390517578125,-0.03693647216796875,1.016948828125
-0.36876806640625,0.00472888427734375,1.0766701123046876
-0.26567478515625,-0.0631611376953125,1.049881552734375
-0.24038775390625,0.00178780029296875,1.0174403613281249
-0.17303671874999998,-0.03497574951171875,0.8365561425781249
-0.14264365234375,-0.07271966064453125,0.6610787890625
-0.25303126953125,-0.040122646484374996,0.7227662060546876
-0.27929087890625,-0.13644314697265625,0.816894814453125
-0.286828359375,-0.05090662109375,1.0771616455078126
-0.2124261328125,-0.0710040283203125,1.2280623388671874
-0.245980078125,-0.0690433056640625,1.250427099609375
-0.20342978515625,-0.028358310546875,1.0963314404296876
-0.26129818359375,0.010611052246093749,0.893573994140625
-0.35952857421875,-0.01978014892578125,0.8274627783203125
-0.18227621093750002,0.0809519775390625,0.9896687353515625
-0.26227076171875,0.0495804150390625,1.1661291552734374
-0.21704587890625,0.02335574951171875,1.0491442529296875
-0.2022140625,-0.108747939453125,0.9444476806640625
-0.15966376953125,-0.05115171142578125,0.998762099609375
-0.377278125,-0.07222947998046875,0.9088115234375
-0.228473671875,-0.08203309326171875,0.9636174755859375
-0.3505322265625,0.026541923828125,0.9626344091796875
-0.296554140625,0.0338946337890625,0.88620099609375
-0.23990146484375,0.04688442138671875,0.8984893261718749
-0.2211793359375,0.03266918212890625,0.9031588916015625
-0.2017277734375,-0.0415931884765625,0.8984893261718749
-0.20026890625,-0.12149263671875,1.0334151904296875
-0.2698082421875,-0.0288484912109375,1.1302472314453125
-0.31624884765625,-0.1415900439453125,1.072492080078125
-0.2659179296875,-0.01561361328125,0.9940925341796875
-0.3913805078125,-0.104826494140625,0.9144641552734375
-0.15723232421875,-0.05090662109375,0.956490244140625
-0.24184662109375,-0.0161037939453125,1.0130165625
-0.12367837890625,-0.02321141357421875,0.9857364697265625
-0.07164544921875,-0.0259074072265625,1.013508095703125
-0.19273142578125,-0.0768861962890625,1.08084814453125
-0.1744955859375,-0.0190448779296875,1.113780869140625
-0.17084841796875,0.012816865234374999,1.0520934521484375
-0.24038775390625,0.02531647216796875,1.0068723974609375
-0.2775888671875,-0.02223105224609375,0.9985163330078125
-0.18932740234375,0.06796218994140625,1.0737209130859375
-0.2912049609375,-0.0690433056640625,0.9611598095703124
-0.1715778515625,-0.0254172265625,0.9370746826171875
-0.23455228515625,-0.0974737841796875,0.8387680419921875
-0.1949197265625,-0.0562986083984375,0.8456495068359375
-0.19564916015625,-0.08056255126953125,0.9223286865234375
-0.142886796875,-0.0631611376953125,0.9520664453125
-0.2639727734375,-0.120512275390625,0.90193005859375
-0.26032560546875,-0.057769150390625,0.8557259375
-0.1248941015625,0.0025230712890624996,0.8992266259765624
-0.23649744140625,0.12531332763671876,1.0309575244140625
-0.277102578125,0.01575794921875,1.04545775390625
-0.183735078125,0.124578056640625,1.1164843017578125
-0.33253953125,-0.0337502978515625,1.1479424267578124
-0.290718671875,0.053992041015625,1.1567900244140625
-0.31624884765625,-0.11095375244140625,1.103950205078125
-0.33959072265625,-0.0023787353515625003,1.0343982568359376
-0.3033621875,0.0103659619140625,1.000728232421875
-0.21996361328125,-0.1038461328125,0.9523122119140625
-0.26907880859375,-0.02076051025390625,0.87243806640625
-0.20829267578125,-0.02737794921875,0.737266435546875
-0.08720669921875,-0.17835359375,0.7905977880859375
-0.16720125,-0.21781313720703124,0.904387724609375
-0.23917203125,-0.139139140625,0.9960586669921875
-0.27807515625,-0.1611972705078125,1.078390478515625
-0.263486484375,-0.052867343750000004,1.0943653076171875
-0.290718671875,0.06011929931640625,1.0130165625
-0.212912421875,0.05374695068359375,1.01399962890625
-0.37411724609375,0.01183650390625,1.0149826953125
-0.22750109375,0.06796218994140625,0.9994993994140625
-0.24865466796875,0.0515411376953125,0.950591845703125
-0.28755779296875,-0.03644629150390625,0.8655566015625
-0.129270703125,-0.11193411376953125,0.8117337158203125
-0.2279873828125,-0.07468038330078125,0.8844806298828125
-0.3223274609375,-0.0999246875,0.9311762841796875
-0.14507509765624998,-0.02223105224609375,1.0471781201171875
-0.37898013671874997,0.0436982470703125,1.016457294921875
-0.23114826171875,-0.01634888427734375,0.89013326171875
-0.14653396484375,-0.046740085449218746,0.9007012255859375
-0.30700935546875,-0.0004180126953125,1.0520934521484375
-0.249870390625,-0.059484782714843754,1.0894499755859375
-0.19273142578125,-0.068553125,1.027271025390625
-0.31308796875,-0.029338671875,1.015474228515625
-0.28585578125,-0.07664110595703125,1.0496357861328125
-0.18495080078125,-0.03203466552734375,1.058729150390625
-0.310170234375,-0.0808076416015625,0.9709904736328125
-0.3038484765625,-0.044534272460937496,1.0388220556640624
-0.148722265625,0.030708459472656248,0.9847534033203125
-0.2561921484375,-0.11364974609375,0.788385888671875
-0.28950294921874997,-0.03840701416015625,0.8923451611328125
-0.28609892578125,-0.13399224365234375,0.790352021484375
-0.1628246484375,-0.14379585693359376,0.6829520166015625
-0.14312994140625,-0.11781628173828125,0.8783364648437499
-0.2814791796875,-0.0739451123046875,0.965829375
-0.4127772265625,-0.02149578125,1.11525546875
-0.31965287109375,-0.0055649096679687505,0.978117705078125
-0.29144810546875,0.09492212646484376,1.062661416015625
-0.168173828125,0.083402880859375,1.276478359375
-0.30311904296875003,0.11060790771484375,1.3081822509765626
-0.23892888671875,0.048109873046875,1.257308564453125
-0.33108066406250003,0.08217742919921875,1.2627154296875
-0.333512109375,0.1633023291015625,1.0363643896484376
-0.27613,0.12678386962890625,0.8839890966796875
-0.21218298828125,0.03364954345703125,0.72202890625
-0.1424005078125,0.071638544921875,0.793301220703125
-0.32281375,-0.016593974609375,0.98843990234375
-0.236254296875,-0.05017135009765625,1.1155012353515625
-0.2240970703125,0.057668395996093746,1.098051806640625
-0.3612305859375,-0.08840544189453126,0.9999909326171875
-0.34445361328125,-0.1768830517578125,0.889641728515625
-0.27394169921875,-0.1808044970703125,0.70728291015625
-0.11103486328125,-0.1744321484375,0.685163916015625
-0.15042427734375,-0.21242114990234376,0.7021218115234376
-0.09304216796875,-0.19477464599609376,0.7075286767578125
-0.1317021484375,-0.26339993896484376,0.7512751318359375
-0.2411171875,-0.1038461328125,0.926015185546875
-0.12465095703125,0.04320806640625,1.0117877294921875
-0.06289224609374999,-0.25604722900390625,1.098051806640625
-0.1958923046875,-0.128355166015625,1.2703341943359374
-0.3787369921875,0.0976181201171875,1.154086591796875
-0.349073359375,0.13070531494140625,1.0078554638671875
-0.22871681640625,-0.03399538818359375,0.97860923828125
-0.33424154296874997,0.0770305322265625,1.0358728564453126
-0.2279873828125,0.142224560546875,1.06315294921875
-0.160393203125,0.09810830078125,0.9616513427734374
-0.06678255859375,0.03610044677734375,0.975168505859375
-0.28561263671875,-0.07517056396484376,1.190460048828125
-0.17960162109375,-0.08227818359375,1.3258774462890626
-0.370470078125,0.153988896484375,1.354632138671875
-0.43441708984375,0.07850107421875,1.332021611328125
-0.3126016796875,0.13560712158203125,1.172764853515625
-0.3271903515625,0.10178465576171875,1.0280083251953125
-0.2299325390625,0.1084020947265625,1.18701931640625
-0.35199109375,0.05129604736328125,1.2034856787109376
-0.2279873828125,0.0025230712890624996,1.03169482421875
-0.2133987109375,-0.075415654296875,0.8913620947265625
-0.37508982421875,-0.0347306591796875,0.778555224609375
-0.3515048046875,-0.073454931640625,0.625196865234375
-0.30117388671875,-0.08644471923828125,0.5998829052734375
-0.1910294140625,-0.17565760009765624,0.590789541015625
-0.0626491015625,-0.2641352099609375,0.7328426367187499
-0.3320532421875,-0.1210024560546875,1.0029401318359374
-0.37898013671874997,-0.17761832275390624,0.86653966796875
-0.34396732421875,-0.18423576171875,0.8267254785156251
-0.43538966796875,-0.10703230712890625,0.8313950439453125
-0.3656071875,-0.17369687744140624,0.6185611669921875
-0.271267109375,-0.1641383544921875,0.467906240234375
-0.1783858984375,-0.19600009765625,0.4366938818359375
0.0209926171875,-0.09379742919921875,0.40646458984375
0.0326635546875,-0.071494208984375,0.5667044140624999
-0.12027435546875,-0.0411030078125,0.851793671875
-0.32500205078125,0.0711483642578125,1.17129025390625
-0.52097654296875,0.09394176513671874,1.2880293896484374
-0.2523018359375,0.13315621826171875,1.2084010107421874
0.0822650390625,0.02752228515625,1.5082362646484375
-0.53653779296875,0.1299700439453125,1.4099296240234376
-0.55501677734375,0.17335103271484376,1.0801108447265624
-0.26324333984375,0.0093856005859375,0.89996392578125
-0.31819400390625,0.10619628173828125,1.0186691943359376
-0.23017568359375,0.03855135009765625,0.949608779296875
-0.07699462890625,-0.0494360791015625,0.9960586669921875
-0.14750654296875,0.0838930615234375,0.9473968798828125
-0.20026890625,0.04492369873046875,0.828691611328125
-0.321841171875,-0.08252327392578125,0.9410069482421874
-0.329621796875,-0.034240478515625,1.0806023779296874
-0.34421046875,-0.140119501953125,1.086255009765625
-0.1735230078125,-0.216587685546875,1.12606919921875
-0.27029453125,-0.210705517578125,1.316292548828125
-0.3656071875,-0.09722869384765626,1.1341794970703125
-0.341292734375,-0.1837455810546875,0.8235305126953125
-0.31916658203125,-0.1347275146484375,0.78592822265625
-0.27929087890625,-0.16193254150390626,0.7674957275390625
-0.25789416015625,-0.2455083447265625,0.833606943359375
-0.20829267578125,0.01453249755859375,0.8628531689453125
-0.22920310546875,-0.14771730224609375,0.862115869140625
-0.17668388671875,-0.07222947998046875,0.70138451171875
-0.03298546875,-0.11928682373046876,0.8043607177734375
-0.0334717578125,-0.075415654296875,1.1233657666015624
-0.35417939453125,-0.093062158203125,1.2194605078125
-0.37411724609375,0.07237381591796875,1.3334962109375
-0.49666208984375,0.1368325732421875,1.315309482421875
-0.387976484375,0.16011615478515626,1.2147909423828125
-0.2659179296875,0.0417375244140625,1.03366095703125
-0.38700390625000003,0.03315936279296875,0.92552365234375
-0.31478998046875,0.13217585693359374,0.8107506494140625
-0.2250696484375,0.01404231689453125,0.636010595703125
-0.1861665234375,-0.0141430712890625,0.7119524755859374
-0.19953947265625,-0.0464949951171875,0.7031048779296875
-0.144831953125,-0.10213050048828125,0.677299384765625
-0.0918264453125,-0.2062938916015625,0.6003744384765625
-0.0354169140625,-0.189137568359375,0.6745959521484375
-0.015479062500000002,-0.2268814794921875,0.9301932177734376
-0.2454937890625,-0.11144393310546875,1.3538948388671874
-0.434660234375,0.1417343798828125,1.446057314453125
-0.46091984375,0.02139502685546875,1.212087509765625
-0.40062,0.0530116796875,1.13393373046875
-0.17279357421875,0.04345315673828125,0.9088115234375
-0.12343523437500001,0.02433611083984375,0.950591845703125
-0.30749564453125,-0.0523771630859375,1.1211538671875
-0.22093619140625,-0.10188541015625,1.0975602734375
-0.27005138671875,-0.14722712158203125,0.9852449365234375
-0.22288134765625,-0.19183356201171875,0.7994453857421875
-0.007941582031250002,-0.16879507080078124,0.772656826171875
-0.14507509765624998,-0.14502130859375,0.8778449316406249
-0.201241484375,-0.0097314453125,0.969270107421875
-0.269321953125,-0.08546435791015625,1.217002841796875
-0.43879369140625,0.05619785400390625,1.182103984375
