ax,ay,az
-0.160393203125,-0.2190385888671875,0.7979707861328125
-0.2022140625,-0.289134423828125,0.7094948095703125
-0.2814791796875,-0.3131532763671875,0.6347817626953125
-0.2921775390625,-0.31143764404296875,0.5595771826171875
-0.21461443359375,-0.20898988525390624,0.6288833642578124
-0.22677166015625,-0.060710234375,0.7596311962890625
-0.26275705078125,0.080461796875,0.860149736328125
-0.13948277343749999,0.04737460205078125,1.0063808642578125
-0.2736985546875,0.07384435791015626,1.233714970703125
-0.4137498046875,0.07776580322265625,1.2509186328125
-0.37703498046875,0.02335574951171875,1.254359365234375
-0.2921775390625,0.15423398681640624,1.101984072265625
-0.372415234375,-0.0033590966796874996,0.7942842871093749
-0.17425244140625,-0.1033559521484375,0.6264256982421875
-0.18057419921875,0.04320806640625,0.6529684912109375
-0.18640966796875,0.12384278564453124,0.7448852001953125
-0.209022109375,0.0672269189453125,0.9980247998046875
-0.36974064453125,0.080461796875,1.217002841796875
-0.356853984375,0.19540916259765626,1.2221639404296876
-0.3077387890625,0.13021513427734374,1.088221142578125
-0.33642984375,0.01110123291015625,0.8948028271484375
-0.27880458984375,0.108892275390625,0.8338527099609375
-0.30992708984375,-0.132276611328125,0.799199619140625
-0.3680386328125,-0.0602200537109375,0.8717007666015625
-0.16452666015625,-0.11634573974609375,0.86850580078125
-0.312115390625,-0.189137568359375,0.84687833984375
-0.181789921875,-0.030319033203124998,0.8481071728515625
-0.17376615234375,-0.1298257080078125,0.817877880859375
-0.28585578125,-0.1337471533203125,0.7891231884765625
-0.26956509765625,0.038306259765625,0.8365561425781249
-0.23163455078125,-0.11389483642578124,0.717605107421875
-0.268349375,-0.0337502978515625,0.7365291357421875
-0.300444453125,0.08413815185546875,0.84491220703125
-0.25157240234375,-0.04821062744140625,0.846386806640625
-0.331566953125,-0.01928996826171875,0.797233486328125
-0.23917203125,-0.07173929931640625,0.839996875
-0.12854126953125,-0.13448242431640625,0.9700074072265625
-0.1890842578125,-0.25898831298828123,1.00810123046875
-0.36098744140625,-0.09575815185546875,1.0176861279296876
-0.28707150390625,0.01551285888671875,0.89799779296875
-0.31624884765625,0.079481435546875,0.8274627783203125
-0.20391607421875,0.09002031982421875,0.8967689599609375
-0.2814791796875,0.0760501708984375,1.0776531787109376
-0.236254296875,0.02752228515625,1.1297556982421875
-0.292663828125,0.04835496337890625,0.9665666748046875
-0.25205869140625,0.06624655761718751,0.9183964208984375
-0.31187224609374997,0.00865032958984375,0.8608870361328125
-0.34299474609375,-0.027868129882812502,1.071509013671875
-0.43636224609375,-0.14722712158203125,1.14671359375
-0.49374435546875,-0.11095375244140625,1.0629071826171874
-0.3578265625,-0.0406128271484375,0.8697346337890625
-0.35077537109375,0.0505607763671875,0.8340984765625
-0.20780638671875,0.06698182861328125,0.8186151806640625
-0.2805066015625,0.073599267578125,0.89603166015625
-0.19248828125,0.02360083984375,0.9424815478515625
-0.14969484375,-0.07713128662109375,0.9218371533203125
-0.11784291015625001,-0.17026561279296876,0.973202373046875
-0.292663828125,-0.1317864306640625,1.19390078125
-0.3417790234375,-0.124433720703125,1.335953876953125
-0.4186126953125,-0.0710040283203125,1.285817490234375
-0.4643238671875,0.05521749267578125,1.2147909423828125
-0.41885583984375,0.0133070458984375,1.05233921875
-0.42201671875,-0.050661530761718754,0.9857364697265625
-0.34250845703125,0.01747358154296875,1.0073639306640625
-0.24622322265625,0.011346323242187501,0.854251337890625
-0.1832487890625,-0.02027032958984375,0.8567090039062499
-0.268349375,-0.13105115966796876,0.8992266259765624
-0.21558701171875,-0.18497103271484375,0.9611598095703124
-0.33910443359375,-0.1744321484375,1.02972869140625
-0.310170234375,-0.1308060693359375,1.1086197705078125
-0.232363984375,-0.1626678125,1.1243488330078124
-0.294608984375,-0.01953505859375,1.191443115234375
-0.4905834765625,0.05105095703125,1.21257904296875
-0.39575710937499997,-0.027868129882812502,1.1735021533203125
-0.47137505859375,-0.00948635498046875,1.1388490625
-0.4166675390625,-0.05262225341796875,1.021372626953125
-0.29169125,-0.0494360791015625,0.8564632373046875
-0.263486484375,-0.10409122314453124,0.76626689453125
-0.21655958984375,-0.0612004150390625,0.8048522509765625
-0.28123603515625,-0.17124597412109374,0.790352021484375
-0.28853037109375,-0.33717212890625,0.837539208984375
-0.3126016796875,-0.36437715576171875,0.942727314453125
-0.195406015625,-0.30800637939453124,0.9169218212890625
-0.25157240234375,-0.37246513671875,0.8820229638671875
-0.2255559375,-0.16242272216796874,0.9798380712890625
-0.28512634765625,-0.1798241357421875,0.978117705078125
-0.29242068359375,-0.17810850341796874,0.970253173828125
-0.253760703125,-0.04477936279296875,1.065610615234375
-0.280992890625,-0.05899460205078125,1.11034013671875
-0.23503857421875,-0.06193568603515625,1.0992806396484376
-0.22628537109375,-0.09722869384765626,0.9690243408203125
-0.20342978515625,-0.09134652587890625,0.9410069482421874
-0.19564916015625,-0.1308060693359375,1.0179318945312499
-0.24719580078125,-0.1474722119140625,1.1356540966796875
-0.26956509765625,-0.053847705078125,1.188493916015625
-0.29776986328125,-0.018554697265625,1.141306728515625
-0.33715927734375,0.0878145068359375,1.0987891064453126
-0.3116291015625,0.1231075146484375,0.993355234375
-0.26178447265625,0.07482471923828125,0.9577190771484375
-0.24865466796875,0.12482314697265626,1.0184234277343749
-0.29509527343749997,-0.02027032958984375,1.032186357421875
-0.2639727734375,-0.046004814453125,1.0742124462890625
-0.34202216796875,-0.08546435791015625,1.07691587890625
-0.31673513671875,-0.22173458251953124,1.005643564453125
-0.29047552734375,-0.15678564453125,1.07888201171875
-0.3631757421875,-0.22908729248046875,1.1159927685546875
-0.25351755859375,-0.21340151123046874,1.1322133642578125
-0.28026345703125,-0.1337471533203125,1.0221099267578124
-0.335457265625,-0.11095375244140625,0.8417172412109375
-0.28196546875,-0.2092349755859375,0.7375122021484375
-0.2722396875,-0.149923115234375,0.73480876953125
-0.21899103515625,-0.132276611328125,0.775606025390625
-0.23503857421875,-0.191098291015625,0.8087845166015625
-0.24670951171875,-0.0974737841796875,0.8815314306640625
-0.28318119140625,-0.13007079833984375,0.854251337890625
-0.268349375,-0.09845414550781251,0.851793671875
-0.26032560546875,-0.0582593310546875,0.8780906982421874
-0.32889236328125,-0.1102184814453125,0.91765912109375
-0.2279873828125,-0.1308060693359375,0.95304951171875
-0.28123603515625,-0.0906112548828125,0.8820229638671875
-0.24427806640625,-0.010711806640625,0.8294289111328125
-0.25059982421875,0.0010525292968750002,0.8812856640625
-0.32451576171875,0.08805959716796875,0.9129895556640625
-0.23892888671875,0.1329111279296875,0.947642646484375
-0.27199654296875,0.093206494140625,0.98942296875
-0.284883203125,0.0074248779296875,0.9559987109375
-0.26056875,0.114774443359375,1.0511103857421875
-0.34737134765625,0.046149150390625,1.023338759765625
-0.4059691796875,0.0152677685546875,0.987948369140625
-0.253760703125,0.0829127001953125,0.996795966796875
-0.29776986328125,0.0495804150390625,0.9127437890625
-0.35977171875,0.019434304199218752,1.01596576171875
-0.39502767578125,-0.0332601171875,0.9341254833984375
-0.28804408203125,-0.01732924560546875,0.7987080859375
-0.221665625,-0.013407800292968751,0.739232568359375
-0.280992890625,-0.08007237060546875,0.686146982421875
-0.2133987109375,-0.1053166748046875,0.7910893212890625
-0.330594375,-0.06242586669921875,0.8972604931640625
-0.25205869140625,-0.06732767333984375,0.966320908203125
-0.24476435546875,-0.1141399267578125,1.028254091796875
-0.37946642578125,-0.170510703125,1.0275167919921875
-0.26761994140625,-0.1587463671875,0.9992536328125
-0.2250696484375,-0.155805283203125,0.8144371484375
-0.21899103515625,-0.05556333740234375,0.7070371435546875
-0.16112263671875,-0.0935523388671875,0.7529954980468749
-0.24525064453125,-0.02664267822265625,0.8874298291015625
-0.191515703125,0.1123235400390625,1.091170341796875
-0.296554140625,0.09541230712890625,1.2201978076171875
-0.26664736328125,0.14639109619140625,1.2968769873046875
-0.27102396484375,0.14884199951171875,1.2044687451171874
-0.290718671875,0.085363603515625,1.1366371630859375
-0.29509527343749997,0.0927163134765625,1.112797802734375
-0.28804408203125,0.01747358154296875,1.0329236572265625
-0.3456693359375,0.07433453857421875,1.012525029296875
-0.22434021484375,0.010611052246093749,0.911269189453125
-0.2192341796875,0.0368357177734375,0.8852179296875
-0.3184371484375,0.021640117187500002,1.0053977978515625
-0.39818855468750003,-0.09575815185546875,1.0319405908203125
-0.207076953125,-0.055808427734375,1.0373474560546876
-0.26032560546875,0.09026541015625,1.04152548828125
-0.25886673828125,-0.10899302978515625,1.04349162109375
-0.3485870703125,-0.04919098876953125,1.10444173828125
-0.265431640625,0.1035002880859375,1.1218911669921874
-0.31989601562500003,-0.1116890234375,1.0093300634765625
-0.31284482421875,0.00963069091796875,1.11525546875
-0.14361623046875,-0.04330882080078125,1.1282810986328125
-0.29631099609375,-0.1744321484375,1.022355693359375
-0.2299325390625,-0.05115171142578125,0.9429730810546875
-0.22336763671875,-0.14232531494140624,0.87440419921875
-0.30141703125,-0.09869923583984375,0.99433830078125
-0.3408064453125,-0.02664267822265625,1.1243488330078124
-0.29339326171875,-0.0729647509765625,1.161951123046875
-0.26518849609375,0.1201664306640625,1.165883388671875
-0.1633109375,0.0123266845703125,1.16735798828125
-0.2722396875,0.07923634521484375,1.1602307568359376
-0.32013916015625,0.0123266845703125,1.06118681640625
-0.28974609375,-0.0239466845703125,0.8525309716796875
-0.26178447265625,0.02360083984375,0.71711357421875
-0.16258150390625,0.026541923828125,0.6780366845703125
-0.16938955078125,-0.05458297607421875,0.770690693359375
-0.32597462890625,0.1113431787109375,1.0461950537109375
-0.44657431640625,0.12555841796875,1.1720275537109375
-0.4127772265625,0.08634396484375,1.0673309814453125
-0.26227076171875,0.07237381591796875,0.820335546875
-0.17692703125,-0.055808427734375,0.718588173828125
-0.22482650390625,-0.0001729223632812504,0.7439021337890624
-0.2542469921875,0.026296833496093748,0.8574463037109374
-0.314060546875,0.06355056396484375,0.9709904736328125
-0.30871136718750003,0.00399361328125,0.871455
-0.1944334375,-0.05458297607421875,0.8655566015625
-0.2722396875,0.06551128662109375,0.89603166015625
-0.15771861328125,-0.03301502685546875,0.8166490478515624
-0.16404037109375,-0.17565760009765624,0.822793212890625
-0.20804953125,-0.07370002197265625,1.0874838427734375
-0.34250845703125,-0.07615092529296875,1.232731904296875
-0.29728357421875,-0.1121792041015625,1.260749296875
-0.34931650390625,-0.067572763671875,1.0786362451171876
-0.36463460937500003,0.1574201611328125,0.980083837890625
-0.24816837890625,0.07433453857421875,0.88620099609375
-0.25789416015625,0.05105095703125,0.811979482421875
-0.27199654296875,0.09418685546875,0.76036849609375
-0.20391607421875,-0.00752563232421875,0.8245135791015625
-0.25205869140625,-0.03595611083984375,0.867031201171875
-0.0363894921875,0.01747358154296875,0.984999169921875
-0.23114826171875,-0.0254172265625,1.121645400390625
-0.37508982421875,-0.03105430419921875,1.203239912109375
-0.392839375,0.08070688720703124,1.222901240234375
-0.3466419140625,0.00865032958984375,1.166374921875
-0.3184371484375,0.091245771484375,1.0923991748046875
-0.36439146484375,0.05129604736328125,0.9896687353515625
-0.40621232421875,-0.05654369873046875,0.9614055761718749
-0.26616107421875,-0.05164189208984375,0.9365831494140625
-0.2717533984375,-0.052867343750000004,0.7851909228515626
-0.17473873046875,0.02090484619140625,0.7279273046875
-0.06410796875,0.023845930175781252,0.7345630029296875
-0.1735230078125,0.12972495361328126,0.9547698779296875
-0.27540056640625,0.03757098876953125,1.211104443359375
-0.327676640625,-0.025662316894531252,1.3725731005859374
-0.3271903515625,0.12384278564453124,1.2831140576171876
-0.53118861328125,0.00276816162109375,1.0481611865234375
-0.40864376953125,0.14835181884765625,0.948625712890625
-0.3281629296875,0.10178465576171875,0.858183603515625
-0.27418484375,-0.0170841552734375,0.8294289111328125
-0.1530988671875,-0.01683906494140625,0.867031201171875
-0.25059982421875,-0.1347275146484375,0.958456376953125
-0.20804953125,-0.03889719482421875,0.9972875
-0.1920019921875,0.00570924560546875,1.0275167919921875
-0.2503566796875,0.08511851318359374,1.078390478515625
-0.302389609375,-0.03889719482421875,1.086255009765625
-0.32086859375,0.013552136230468751,1.1607222900390626
-0.2834243359375,-0.024436865234375,1.13786599609375
-0.368524921875,-0.0749254736328125,0.8242678125
-0.1628246484375,0.08462833251953125,0.9095488232421876
-0.18446451171875,-0.05458297607421875,0.9940925341796875
-0.33959072265625,0.067717099609375,1.124594599609375
-0.28220861328125,0.1515379931640625,1.1243488330078124
-0.2843969140625,0.12825441162109374,0.9599309765625
-0.35028908203125,0.12188206298828125,0.924049052734375
-0.23260712890625002,-0.02468195556640625,0.9321593505859375
-0.08428896484375001,-0.1572758251953125,0.9134810888671875
-0.19175884765625,-0.11389483642578124,0.955507177734375
-0.04052294921875,-0.06830803466796875,1.011541962890625
-0.27880458984375,-0.167569619140625,0.849336005859375
-0.19321771484375,-0.060710234375,0.7539785644531249
-0.2600824609375,0.057913486328125,0.738249501953125
-0.15066742187499998,0.1672237744140625,0.859166669921875
-0.237226875,0.05105095703125,1.027271025390625
-0.23139140625,0.1936935302734375,1.2312573046875
-0.2488978125,0.177517568359375,1.331038544921875
-0.13607875,0.0603643896484375,1.265173095703125
-0.177899609375,0.14197947021484375,1.143272861328125
-0.197351171875,-0.10899302978515625,1.1331964306640625
-0.2678630859375,0.0427178857421875,1.31186875
-0.46481015625,0.09051050048828126,1.23224037109375
-0.38967849609375,-0.183255400390625,1.0108046630859375
0.043605058593749996,0.11698025634765626,0.9852449365234375
0.0025136328124999996,-0.14894275390625,1.056271484375
-0.09012443359375,0.0294830078125,1.1218911669921874
-0.1647698046875,-0.061690595703125004,0.91569298828125
-0.35417939453125,-0.0964934228515625,0.97074470703125
-0.38432931640625,0.1593808837890625,1.0997721728515626
-0.32500205078125,0.0535018603515625,1.2718087939453124
-0.11225058593750001,-0.00752563232421875,1.3322673779296874
-0.24719580078125,0.12972495361328126,1.0732293798828125
-0.12635296875,0.03217900146484375,0.8068183837890625
-0.3135742578125,7.216796875000007e-05,0.8053437841796875
-0.4594609765625,0.053992041015625,0.8333611767578125
-0.343237890625,0.1299700439453125,0.8554801708984375
-0.19856689453125,-0.0876701708984375,0.7035964111328125
-0.09936392578125,0.0012976196289062499,0.4381684814453125
-0.08307324218750001,-0.023456503906250002,0.29832728515625
-0.0451426953125,-0.05605351806640625,0.3600147021484375
-0.10617197265625,0.0358553564453125,0.51460189453125
-0.21364185546875,0.073599267578125,0.8102591162109375
-0.30603677734375,0.12678386962890625,1.12606919921875
-0.4448723046875,0.104970830078125,1.3745392333984374
-0.4769673828125,0.206928408203125,1.315309482421875
-0.36244630859375,-0.06340622802734375,1.0191607275390624
-0.374360390625,0.18438009765625,0.8834975634765625
-0.290718671875,0.0417375244140625,0.7188339404296875
-0.1686601171875,-0.00997653564453125,0.589806474609375
-0.0500055859375,0.03928662109375,0.4833895361328125
-0.049519296875,-0.011201987304687501,0.532788623046875
-0.15042427734375,0.004973974609375,0.698926845703125
-0.1399690625,0.10570610107421875,0.9773804052734375
-0.2775888671875,-0.10188541015625,1.165883388671875
-0.23649744140625,0.0652661962890625,1.3411149755859375
-0.20415921875,0.14492055419921876,1.4861172705078125
-0.3826273046875,0.0564429443359375,1.3588101708984375
-0.333512109375,0.2603581005859375,1.3435726416015625
-0.47526537109375,0.15031254150390624,1.073475146484375
-0.3388612890625,0.0505607763671875,0.7974792529296875
-0.0247185546875,-0.03889719482421875,0.546551552734375
0.010294257812499999,-0.01389798095703125,0.5851369091796875
-0.04781728515625,-0.00703545166015625,0.7163762744140625
-0.14653396484375,-0.03987755615234375,0.9149556884765625
-0.1949197265625,0.0691876416015625,1.153103525390625
-0.279047734375,-0.04134809814453125,1.0638902490234374
-0.2542469921875,0.1672237744140625,0.9945840673828125
-0.25059982421875,0.19835024658203124,0.966320908203125
-0.39697283203125,0.0172284912109375,0.971236240234375
-0.40572603515625,0.0623251123046875,1.125577666015625
-0.4030514453125,0.05227640869140625,1.0427543212890624
-0.31478998046875,0.085363603515625,0.861132802734375
-0.286828359375,0.07580508056640625,0.7212916064453125
-0.03760521484375,-0.02321141357421875,0.7886316552734375
-0.30214646484375,0.09884357177734375,1.0818312109375
-0.19321771484375,0.0691876416015625,1.252393232421875
-0.177899609375,-0.0994345068359375,1.1051790380859374
-0.11638404296875,0.0427178857421875,1.0176861279296876
-0.10374052734375,0.0280124658203125,0.97369390625
-0.43490337890624997,-0.22173458251953124,0.974185439453125
-0.325731484375,0.05423713134765625,1.0024485986328124
-0.0791829296875,-0.01389798095703125,0.8576920703124999
-0.3427516015625,0.023845930175781252,0.8989808593749999
-0.386031328125,0.0564429443359375,1.04742388671875
-0.09109701171875,0.07457962890625,1.0697886474609375
-0.29047552734375,-0.08963089355468751,1.0078554638671875
-0.2133987109375,0.24001560302734376,1.13393373046875
-0.17911533203125,0.16648850341796875,1.1341794970703125
-0.09134015625,0.0760501708984375,1.177680185546875
-0.06775513671875,0.20668331787109376,1.2560797314453125
-0.23163455078125,0.05889384765625,1.34234380859375
-0.29363640625,0.10423555908203125,1.2944193212890625
-0.2396583203125,0.2113400341796875,1.2017653125
-0.35806970703125,0.06796218994140625,1.0255506591796875
-0.0937716015625,0.0162481298828125,1.039067822265625
-0.25935302734375,-0.05752406005859375,1.095594140625
-0.3126016796875,-0.120512275390625,1.086255009765625
-0.32086859375,-0.0857094482421875,0.878827998046875
-0.1803310546875,-0.1435507666015625,0.705808310546875
-0.09887763671875,-0.14330567626953125,0.583908076171875
-0.0025924023437500013,-0.1151202880859375,0.5802215771484375
0.04457763671875,-0.01585870361328125,0.7974792529296875
-0.105928828125,0.12041152099609376,1.1867735498046874
-0.31868029296875,0.01649322021484375,1.3597932373046875
-0.177899609375,0.01575794921875,1.3042499853515626
-0.1166271875,0.1584005224609375,1.0597122167968749
-0.26810623046875,0.07433453857421875,1.065610615234375
-0.34639876953125,0.09590248779296875,1.217985908203125
-0.43538966796875,0.11943115966796874,1.0894499755859375
-0.32889236328125,-0.01389798095703125,0.930438984375
-0.1657423828125,-0.0719843896484375,0.85081060546875
-0.213885,-0.0013983740234375002,0.812962548828125
-0.1044699609375,-0.05115171142578125,0.84097994140625
-0.292663828125,-0.12418863037109375,0.89406552734375
-0.31187224609374997,0.0010525292968750002,0.9196252539062499
0.0171023046875,-0.07173929931640625,0.868997333984375
-0.3369161328125,0.10521592041015625,0.7753602587890625
-0.195406015625,0.20031096923828126,0.8825144970703125
-0.035903203125000005,0.13536203125,1.2300284716796874
-0.4536255078125,0.25030939697265625,1.3701154345703126
-0.3495596484375,0.19222298828125,1.0884669091796875
-0.236254296875,0.06796218994140625,0.8970147265625
-0.084532109375,0.12433296630859375,0.87637033203125
-0.17862904296875,0.15962597412109375,0.9159387548828125
-0.3291355078125,-0.0661022216796875,1.2231470068359376
-0.26518849609375,0.0142874072265625,1.2801648583984375
-0.13340416015625,-0.01095689697265625,1.023338759765625
-0.25594900390624997,-0.1151202880859375,0.820827080078125
-0.12854126953125,-0.022476142578125,0.6839350830078125
-0.11687033203125,-0.1288453466796875,0.6141373681640625
-0.24816837890625,-0.09085634521484375,0.6399428613281251
-0.25935302734375,-0.09036616455078125,0.690079248046875
-0.20002576171875,-0.045024453125,0.7370206689453125
-0.1569891796875,-0.05556333740234375,0.67779091796875
-0.19273142578125,-0.0170841552734375,0.7060540771484375
-0.1550440234375,0.11845079833984375,0.8372934423828124
-0.2406308984375,0.12923477294921876,1.0444746875
-0.31722142578125,0.18756627197265624,1.20668064453125
-0.2912049609375,0.1672237744140625,1.21651130859375
-0.1657423828125,0.13707766357421874,1.061678349609375
-0.18057419921875,0.06796218994140625,1.0987891064453126
-0.25205869140625,0.15031254150390624,1.1720275537109375
-0.16987583984375,0.0378160791015625,1.1813666845703126
-0.24695265625,-0.01953505859375,1.0943653076171875
-0.28366748046875,-0.083258544921875,0.984999169921875
-0.2980130078125,0.07482471923828125,0.7699533935546875
-0.17279357421875,-0.124433720703125,0.604552470703125
-0.1278118359375,-0.12075736572265625,0.645841259765625
-0.13389044921874999,-0.028358310546875,0.781012890625
-0.2416034765625,-0.06438658935546875,0.8343442431640625
-0.1599069140625,0.0868341455078125,0.922082919921875
-0.14191421875,-0.06144550537109375,0.8697346337890625
-0.14507509765624998,0.10987263671875,0.89406552734375
-0.08185751953125,0.08021670654296875,0.9159387548828125
-0.13486302734375,0.16599832275390625,1.014491162109375
-0.17036212890625,0.114774443359375,1.150154326171875
-0.09985021484375001,0.09982393310546875,1.2781987255859375
-0.22750109375,0.1005592041015625,1.31875021484375
-0.34226531250000003,0.09345158447265625,1.1415524951171876
-0.220693046875,0.09492212646484376,0.99040603515625
-0.3573402734375,0.061834931640625,0.912252255859375
-0.082586953125,0.0289928271484375,1.001711298828125
-0.1633109375,-0.09796396484375,1.0167030615234376
-0.16209521484375,-0.03448556884765625,1.024813359375
-0.10860341796875,-0.028358310546875,0.868997333984375
-0.259596171875,0.00717978759765625,0.7891231884765625
-0.28998923828125,0.0809519775390625,0.7591396630859375
-0.1521262890625,0.116735166015625,0.9351085498046875
-0.174981875,0.206928408203125,1.1621968896484376
-0.15917748046875,0.12874459228515625,1.25780009765625
-0.27248283203125,0.05472731201171875,1.3140806494140624
-0.31746457031249997,0.2201632861328125,1.186527783203125
-0.14458880859375,0.1035002880859375,0.9985163330078125
-0.2406308984375,0.16624341308593749,1.032677890625
-0.2571647265625,-0.0411030078125,1.1705529541015625
-0.27783201171875,-0.04968116943359375,0.9960586669921875
-0.0626491015625,0.08364797119140625,0.87440419921875
-0.18981369140625,-0.128355166015625,0.7711822265625
-0.03711892578125,-0.0827683642578125,0.8422087744140625
-0.29387955078125,-0.06389640869140625,0.9537868115234375
-0.25084296875,-0.02223105224609375,1.0727378466796875
-0.13000013671875,0.08658905517578125,1.092153408203125
-0.338375,0.015022678222656249,0.9680412744140625
-0.17619759765625,0.019434304199218752,0.95698177734375
-0.22288134765625,0.16795904541015624,0.888658662109375
-0.28658521484375,0.09149086181640625,0.77019916015625
-0.2678630859375,0.08634396484375,0.6529684912109375
0.041416757812499996,0.06845237060546874,0.7606142626953125
-0.12173322265625,0.077520712890625,0.8431918408203125
-0.11978806640625,0.10325519775390625,1.1683410546875
-0.21218298828125,0.20717349853515626,1.3905140625
-0.26032560546875,0.0883046875,1.2654188623046876
-0.1492085546875,0.03413972412109375,1.0511103857421875
-0.14969484375,0.1907524462890625,1.14376439453125
-0.2240970703125,0.04492369873046875,1.288766689453125
-0.2503566796875,0.04884514404296875,1.2521474658203124
-0.34007701171875,0.02972809814453125,1.179646318359375
-0.3281629296875,-0.03546593017578125,0.8063268505859374
-0.21072412109375,0.00865032958984375,0.633061396484375
-0.00891416015625,-0.0001729223632812504,0.6111881689453125
-0.09498732421875,-0.05090662109375,0.83508154296875
-0.30166017578125,0.089285048828125,1.0388220556640624
-0.1861665234375,0.02360083984375,1.0840431103515624
-0.1355924609375,0.16060633544921876,1.0432458544921874
0.004701933593749999,0.06011929931640625,1.0112961962890625
-0.10690140625,0.13609730224609376,1.04742388671875
-0.160393203125,0.02237538818359375,1.211104443359375
-0.20026890625,0.05570767333984375,1.323665546875
-0.331566953125,0.05913893798828125,1.2781987255859375
-0.2532744140625,-0.00654527099609375,1.15556119140625
-0.23139140625,0.03928662109375,0.9174133544921875
-0.1783858984375,0.01796376220703125,0.88423486328125
-0.19637859375,-0.012672529296875,0.9193794873046874
-0.1851939453125,-0.012672529296875,0.9827872705078124
-0.21461443359375,0.104970830078125,0.969761640625
-0.018883085937500002,0.12531332763671876,0.9365831494140625
-0.010616171875,0.07188363525390624,0.920116787109375
0.0234240625,0.07286399658203124,1.0545511181640626
-0.24670951171875,0.07286399658203124,1.1331964306640625
-0.23212083984375,0.081442158203125,1.14671359375
-0.19613544921875,0.13756784423828125,1.146222060546875
-0.156502890625,0.05129604736328125,1.1975872802734375
-0.21704587890625,0.0025230712890624996,1.2587831640625
-0.31527626953125,-0.0053198193359375,1.1887396826171874
-0.22823052734375,0.0255615625,1.03169482421875
-0.18106048828125,0.01992448486328125,0.948625712890625
-0.28464005859375,0.0012976196289062499,0.89799779296875
0.0268280859375,-0.052867343750000004,0.922082919921875
-0.12610982421875,-0.02076051025390625,0.848352939453125
-0.13972591796875,-0.04330882080078125,0.8643277685546875
-0.12902755859375,0.0294830078125,0.9356000830078125
-0.13778076171875,-0.02174087158203125,0.89013326171875
-0.19419029296875,0.0427178857421875,0.82525087890625
-0.12076064453125,0.1338914892578125,0.9724650732421874
-0.12708240234375,-0.0006631030273437505,1.08674654296875
-0.1482359765625,0.146146005859375,1.295648154296875
-0.34493990234375,0.085363603515625,1.185544716796875
-0.222638203125,0.0750698095703125,1.03366095703125
-0.17303671874999998,0.07041309326171875,0.970253173828125
-0.22385392578125,0.079481435546875,0.965337841796875
-0.1628246484375,0.01306195556640625,0.9206083203125
-0.031769746093749995,0.02874773681640625,0.914218388671875
-0.07869664062500001,0.012816865234374999,0.9604225097656249
-0.143859375,-0.02762303955078125,0.956490244140625
-0.08672041015625,0.02335574951171875,0.9992536328125
-0.21461443359375,0.09394176513671874,0.9685328076171875
-0.15723232421875,0.10987263671875,1.0230929931640624
-0.107873984375,0.08413815185546875,1.0923991748046875
-0.2824517578125,-0.016593974609375,1.146222060546875
-0.2318776953125,0.0907555908203125,1.15162892578125
-0.21753216796875,0.17776265869140626,1.0825685107421874
-0.23114826171875,-0.046740085449218746,0.9301932177734376
-0.11079171875,0.15178308349609376,0.876861865234375
-0.0607039453125,-0.0332601171875,0.8576920703124999
-0.18446451171875,-0.11683592041015625,0.9650920751953125
-0.21655958984375,0.0182088525390625,1.0250591259765625
-0.14993798828125,0.0137972265625,0.870963466796875
0.0248829296875,0.01159141357421875,0.9218371533203125
-0.1754681640625,-0.08252327392578125,0.9245405859375
-0.2450075,0.06306038330078124,1.0339067236328126
-0.17036212890625,-0.027868129882812502,1.116730068359375
-0.230418828125,0.03904153076171875,1.0464408203125
-0.17522501953125,0.1172253466796875,0.9483799462890625
-0.1939471484375,-0.106787216796875,0.8874298291015625
-0.11322316406249999,-0.016593974609375,0.991880634765625
-0.16258150390625,0.09149086181640625,0.98450763671875
-0.18932740234375,-0.0092412646484375,1.0110504296875
-0.096203046875,0.02237538818359375,1.0700344140625
-0.213885,0.0946770361328125,1.028254091796875
-0.113709453125,0.00325834228515625,0.9449392138671875
-0.15480087890625,0.15300853515625001,0.9695158740234375
-0.15431458984375,0.1436951025390625,1.064627548828125
-0.21583015625000002,0.03708080810546875,0.9921264013671875
-0.12465095703125,0.12531332763671876,1.01006736328125
-0.230418828125,0.008405239257812499,1.1014925390624999
-0.15139685546875,0.080461796875,1.221426640625
-0.1424005078125,-0.1082577587890625,0.9815584374999999
-0.23892888671875,-0.05017135009765625,0.8043607177734375
-0.2007551953125,-0.06389640869140625,0.6873758154296875
-0.0889087109375,-0.0435539111328125,0.68270625
-0.11443888671875,-0.02321141357421875,0.876861865234375
-0.12756869140625,0.0427178857421875,1.1218911669921874
-0.11930177734375,0.06600146728515625,1.3116229833984374
-0.2153438671875,0.12041152099609376,1.31678408203125
-0.22725794921875,0.1456558251953125,1.0815854443359374
-0.24525064453125,0.0897752294921875,1.007609697265625
-0.13194529296875,0.048109873046875,1.023338759765625
-0.25157240234375,-0.11830646240234374,0.9031588916015625
-0.034687480468750004,-0.0612004150390625,0.7719195263671875
-0.052680175781250005,-0.12712971435546874,0.6495277587890624
-0.0276362890625,-0.165608896484375,0.682214716796875
-0.19078626953125,-0.03252484619140625,0.9351085498046875
-0.247925234375,0.0025230712890624996,1.2088925439453124
-0.148722265625,0.0603643896484375,1.2496897998046874
-0.27394169921875,0.1740863037109375,1.26959689453125
-0.17376615234375,0.08315779052734375,1.028254091796875
-0.12756869140625,0.089285048828125,0.93928658203125
-0.03906408203125,7.216796875000007e-05,0.922082919921875
-0.16015005859375,-0.05090662109375,0.882760263671875
-0.222638203125,0.03315936279296875,0.8766160986328125
-0.0966893359375,0.0883046875,0.95698177734375
-0.08307324218750001,0.0358553564453125,1.0707717138671875
-0.1890842578125,0.040266982421875,1.146222060546875
-0.1842213671875,0.05815857666015625,1.2609950634765625
-0.2377131640625,0.09492212646484376,1.241579501953125
-0.2328502734375,-0.0180645166015625,1.0865007763671874
-0.177899609375,0.1093824560546875,1.08478041015625
-0.226528515625,-0.029338671875,1.07494974609375
-0.2085358203125,-0.04698517578125,1.095594140625
-0.02058509765625,0.07678544189453125,1.0447204541015624
-0.2775888671875,0.021885207519531248,1.061678349609375
-0.1744955859375,0.053992041015625,1.218968974609375
-0.24962724609375,-0.048455717773437504,1.047915419921875
-0.27613,-0.05654369873046875,0.837539208984375
-0.0762651953125,-0.10213050048828125,0.7070371435546875
-0.08915185546875,-0.07075893798828126,0.7650380615234375
-0.0777240625,-0.035711020507812496,0.837539208984375
-0.20683380859375,-0.0494360791015625,0.9940925341796875
-0.17473873046875,0.02678701416015625,1.158018857421875
-0.22628537109375,0.1133039013671875,1.2781987255859375
-0.232363984375,0.0750698095703125,1.1722733203125
-0.154557734375,0.04982550537109375,1.0727378466796875
-0.1881116796875,0.0613447509765625,1.016948828125
-0.22968939453125,-0.0435539111328125,0.92159138671875
-0.20488865234375,-0.04698517578125,0.763809228515625
-0.0140201953125,-0.04968116943359375,0.6760705517578125
0.03922845703125,-0.12026718505859375,0.7817501904296875
-0.19346085937500002,0.07433453857421875,1.02186416015625
-0.27199654296875,0.08266760986328126,1.189968515625
-0.1706052734375,0.1044806494140625,1.13983212890625
-0.11298001953125,0.174576484375,1.0132623291015626
-0.21607330078125,-0.06144550537109375,0.8107506494140625
-0.02982458984375,0.0221302978515625,0.8687515673828125
-0.012561328125,0.0878145068359375,0.908319990234375
-0.2133987109375,0.1299700439453125,1.02776255859375
-0.25400384765625,0.10423555908203125,1.0776531787109376
-0.148722265625,0.10472573974609375,1.15359505859375
-0.17473873046875,0.061834931640625,1.0747039794921875
-0.15577345703125,-0.0053198193359375,1.041033955078125
0.006890234374999998,0.010611052246093749,1.0071181640625
-0.10690140625,0.028257556152343752,1.0692971142578125
-0.33764556640625,-0.10580685546875,0.9631259423828125
-0.159420625,0.015022678222656249,0.9636174755859375
-0.2435486328125,-0.07271966064453125,0.772656826171875
-0.10471310546875,-0.05409279541015625,0.78986048828125
-0.10082279296875,-0.068553125,0.809030283203125
-0.13340416015625,-0.0254172265625,0.961897109375
-0.0986344921875,0.06404074462890624,1.04349162109375
-0.1540714453125,-0.01978014892578125,1.091170341796875
-0.14410251953125,0.03561026611328125,1.110831669921875
-0.13826705078125,0.13217585693359374,1.0427543212890624
-0.1482359765625,0.0750698095703125,0.949608779296875
-0.2591098828125,0.0358553564453125,0.89209939453125
-0.07699462890625,0.10521592041015625,1.094119541015625
-0.29242068359375,-0.01585870361328125,1.158510390625
-0.2328502734375,0.04443351806640625,1.249444033203125
-0.15042427734375,0.0397768017578125,1.14376439453125
-0.206104375,-0.09771887451171875,0.963371708984375
-0.1210037890625,0.09835339111328124,0.9429730810546875
-0.11638404296875,-0.06340622802734375,0.9660751416015625
-0.2377131640625,0.01698340087890625,1.0697886474609375
-0.14799283203125,0.10717664306640624,1.1017383056640626
-0.0276362890625,0.05325677001953125,1.1636714892578124
-0.26129818359375,0.0270321044921875,1.2177401416015625
-0.2644590625,0.03928662109375,1.1801378515625
-0.16744439453124998,-0.057769150390625,1.0226014599609374
-0.2231244921875,0.03806116943359375,0.8746499658203125
-0.140941640625,0.038306259765625,0.7158847412109375
-0.10106593750000001,-0.15850127685546875,0.755944697265625
-0.19710802734375,0.0270321044921875,0.966320908203125
-0.31746457031249997,0.03904153076171875,1.0461950537109375
-0.323786328125,-0.0259074072265625,0.972219306640625
-0.15528716796875,0.02727719482421875,0.867522734375
-0.06289224609374999,0.1025199267578125,0.73775796875
-0.0461152734375,-0.02076051025390625,0.6608330224609374
-0.174981875,-0.12541408203125,0.7493089990234375
-0.20148462890625,0.0642858349609375,0.86457353515625
-0.17327986328125,-0.00654527099609375,0.8778449316406249
-0.1686601171875,-0.0729647509765625,0.969761640625
-0.18835482421875,0.01012087158203125,1.1371286962890625
-0.1997826171875,0.0922261328125,1.2408422021484375
-0.15820490234375,0.15570452880859376,1.1685868212890624
-0.19078626953125,0.03610044677734375,0.9936010009765625
-0.13389044921874999,0.1074217333984375,1.095594140625
-0.16744439453124998,-0.0082609033203125,1.140323662109375
-0.21655958984375,0.0133070458984375,1.0747039794921875
-0.0354169140625,0.0897752294921875,1.049881552734375
-0.15966376953125,0.05031568603515625,0.9953213671875
-0.1871391015625,0.153988896484375,1.073475146484375
-0.1803310546875,0.080461796875,1.103458671875
-0.1881116796875,-0.011201987304687501,1.1774344189453125
-0.12246265625,0.10423555908203125,1.2855717236328126
-0.08307324218750001,-0.0719843896484375,1.205206044921875
-0.28585578125,-0.110708662109375,1.13786599609375
-0.20804953125,-0.0033590966796874996,1.0936280078125
-0.2795340234375,-0.049926259765625,0.9599309765625
-0.19832375,0.09590248779296875,1.0516019189453125
-0.2955815625,0.0231106591796875,1.1051790380859374
-0.1988100390625,-0.01095689697265625,1.1386032958984376
-0.09595990234375,0.03168882080078125,1.0503730859375
-0.1278118359375,0.069677822265625,0.993355234375
-0.057299921875,-0.01953505859375,0.89406552734375
-0.12854126953125,-0.02370159423828125,0.94715111328125
-0.218747890625,0.0858537841796875,1.11820466796875
-0.25497642578125,-0.12467881103515625,1.2334692041015625
-0.16987583984375,0.00865032958984375,1.2634527294921876
-0.31478998046875,-0.04306373046875,1.16539185546875
-0.16841697265625,-0.0523771630859375,1.0167030615234376
-0.11687033203125,0.0280124658203125,0.9464138134765625
-0.1268392578125,0.00423870361328125,0.889641728515625
-0.08331638671875,-0.0945327001953125,0.8343442431640625
-0.158448046875,-0.1592365478515625,0.91077765625
-0.040766093749999996,-0.1161006494140625,0.9655836083984375
-0.19078626953125,-0.2062938916015625,0.8741584326171875
-0.09887763671875,-0.11830646240234374,0.8567090039062499
-0.0159653515625,-0.1023755908203125,0.9513291455078126
-0.2902323828125,0.01012087158203125,1.0700344140625
-0.25108611328125,0.02923791748046875,1.036118623046875
-0.19029998046875,0.108892275390625,0.9788550048828125
-0.0694571484375,0.21501638916015625,0.86457353515625
-0.0179105078125,0.0819323388671875,0.8107506494140625
0.06427234375,0.0093856005859375,0.946168046875
-0.0762651953125,0.08021670654296875,1.2467406005859374
-0.25254498046875,0.0946770361328125,1.3927259619140624
-0.34396732421875,-0.038161923828125,1.09067880859375
-0.23503857421875,0.05913893798828125,0.904387724609375
-0.160393203125,0.0378160791015625,0.68172318359375
-0.08963814453125,-0.057769150390625,0.60307787109375
-0.07991236328125,0.12384278564453124,0.7539785644531249
-0.11492517578125,0.00717978759765625,0.8618701025390625
-0.05900193359375,0.00570924560546875,1.0132623291015626
-0.20877896484375,-0.0161037939453125,1.20471451171875
-0.18543708984375,-0.12565917236328125,1.3573355712890625
-0.20537494140625,0.017718671875,1.4074719580078126
-0.24962724609375,0.22432982177734376,1.192426181640625
-0.2688356640625,0.14001874755859375,0.8648193017578125
-0.2172890234375,0.177517568359375,0.890624794921875
-0.26154132812499997,0.08364797119140625,0.980083837890625
-0.11978806640625,-0.01585870361328125,0.9847534033203125
-0.01742421875,-0.08644471923828125,0.9188879541015624
-0.05900193359375,0.08462833251953125,0.9395323486328125
0.0540602734375,-0.09428760986328125,1.0068723974609375
-0.11298001953125,-0.03840701416015625,1.1297556982421875
-0.190543125,-0.02370159423828125,1.31875021484375
-0.35588140625,-0.030319033203124998,1.443108115234375
-0.43174250000000003,0.0809519775390625,1.40329392578125
-0.46116298828125,0.04884514404296875,1.119187734375
-0.18154677734375,-0.073454931640625,0.8572005371093749
-0.15164,-0.1435507666015625,0.7117067089843749
-0.1793584765625,-0.08448399658203125,0.59914560546875
-0.0723748828125,-0.12811007568359375,0.6401886279296874
0.03144783203125,-0.1425704052734375,0.829674677734375
-0.221665625,-0.027868129882812502,0.99630443359375
-0.19637859375,0.05105095703125,1.0884669091796875
-0.19516287109375,0.11011772705078125,1.154086591796875
-0.17717017578125,0.181439013671875,1.1671122216796874
-0.21801845703125,0.14786163818359374,1.221918173828125
-0.25084296875,0.05276658935546875,1.2029941455078126
-0.29387955078125,-0.0288484912109375,0.9803296044921875
-0.10082279296875,0.00227798095703125,0.789368955078125
-0.08817927734375,-0.03203466552734375,0.8289373779296875
-0.18859796875,0.091245771484375,1.0722463134765625
-0.18738224609375,0.0995788427734375,1.3357081103515624
-0.2279873828125,-0.046740085449218746,1.392971728515625
-0.36001486328125,-0.0464949951171875,1.1744852197265625
-0.16647181640625,0.14001874755859375,0.9002096923828125
-0.15528716796875,-0.07468038330078125,0.6532142578125
-0.0743200390625,-0.07051384765625,0.619298466796875
-0.07796720703125,-0.08938580322265625,0.55195841796875
0.0365538671875,-0.1278649853515625,0.55982294921875
0.04165990234375,-0.08448399658203125,0.7298934375
0.10633634765625,0.019434304199218752,1.0633987158203124
-0.22044990234375,0.00865032958984375,1.384124130859375
-0.45192349609375,0.1314405859375,1.449989580078125
-0.18786853515625002,0.1471263671875,1.406243125
-0.0840458203125,0.06158984130859375,1.0348897900390626
-0.10374052734375,0.09884357177734375,0.845403740234375
-0.19564916015625,0.06011929931640625,0.8653108349609375
-0.148722265625,0.12727405029296876,0.9724650732421874
-0.2007551953125,0.02874773681640625,0.938795048828125
0.06743322265625,0.14982236083984374,1.111323203125
0.06402919921875,0.01183650390625,1.0407881884765624
0.054303417968750003,-0.046249904785156254,1.025304892578125
-0.01620849609375,0.0456589697265625,1.1211538671875
-0.23309341796875,-0.08963089355468751,1.2312573046875
-0.23601115234375,0.00178780029296875,1.2351895703125
-0.20488865234375,-0.028358310546875,1.172764853515625
-0.29339326171875,0.0182088525390625,1.1956211474609375
-0.2620276171875,-0.06144550537109375,1.0545511181640626
-0.11103486328125,0.05889384765625,0.9488714794921875
-0.349073359375,0.13952856689453125,0.9208540869140625
-0.2454937890625,0.146146005859375,0.9631259423828125
-0.10617197265625,0.13266603759765624,1.063644482421875
-0.119544921875,0.0417375244140625,1.127052265625
-0.0247185546875,0.05619785400390625,1.1690783544921874
-0.16525609375,-0.07811164794921875,1.1253318994140624
-0.23503857421875,-0.0386521044921875,0.9994993994140625
-0.2347954296875,-0.10801266845703125,0.690079248046875
-0.05024873046875,-0.1582561865234375,0.543602353515625
-0.0305540234375,-0.1249239013671875,0.7534870312499999
-0.09255587890625,-0.1259042626953125,1.155069658203125
-0.23406599609375,0.1706550390625,1.6620861572265624
-0.458002109375,0.2005560595703125,1.528143359375
-0.25692158203125,0.0191892138671875,1.1140266357421875
-0.04441326171875,-0.05752406005859375,0.8594124365234375
0.02269462890625,0.1211467919921875,0.9587021435546875
-0.12270580078125,0.17040994873046875,1.0668394482421875
-0.2104809765625,0.06502110595703126,1.1322133642578125
-0.22044990234375,0.1427147412109375,0.924049052734375
-0.17133470703125,0.038306259765625,0.7473428662109375
-0.205131796875,-0.00360418701171875,0.6814774169921874
-0.0879361328125,0.019679394531249998,0.6023405712890625
-0.0067258593750000005,0.02776737548828125,0.560314482421875
-0.12610982421875,-0.0347306591796875,0.6741044189453125
-0.13486302734375,0.06404074462890624,0.8431918408203125
-0.2221519140625,-0.06536695068359374,0.9048792578125
-0.21607330078125,0.017718671875,0.899472392578125
-0.1015522265625,0.04712951171875,0.7016302783203126
0.02147890625,0.01404231689453125,0.6519854248046875
0.02026318359375,0.0407571630859375,0.8284458447265625
-0.0315266015625,0.14099910888671874,1.0742124462890625
-0.12902755859375,0.1084020947265625,1.2172486083984375
-0.199296328125,0.21060476318359375,1.3189959814453125
-0.2591098828125,0.28266132080078127,1.2020110791015626
-0.1827625,0.24687813232421876,1.0142453955078126
-0.1200312109375,0.22776108642578125,1.002694365234375
-0.212912421875,0.05374695068359375,1.0417712548828124
-0.03711892578125,0.0299731884765625,1.0398051220703124
-0.0140201953125,-0.153844560546875,1.0053977978515625
-0.187625390625,-0.1268846240234375,1.00613509765625
-0.35199109375,-0.0513968017578125,0.8933282275390625
-0.08963814453125,0.0172284912109375,0.8082929833984375
-0.0451426953125,-0.04036773681640625,0.8191067138671875
-0.024475410156250002,0.08315779052734375,0.923065986328125
-0.00842787109375,-0.03203466552734375,1.0904330419921875
-0.1336473046875,-0.0455146337890625,1.2364184033203125
-0.1710915625,0.0809519775390625,1.340869208984375
-0.26372962890625,-0.03448556884765625,1.247477900390625
-0.2211793359375,0.14443037353515625,1.13393373046875
-0.22190876953125,0.032424091796875,1.0395593554687501
-0.2581373046875,0.01747358154296875,0.9734481396484375
-0.16744439453124998,0.00717978759765625,0.8658023681640625
-0.1492085546875,0.08511851318359374,0.873912666015625
-0.26275705078125,0.0770305322265625,0.865065068359375
-0.13389044921874999,0.12678386962890625,0.9041419580078125
-0.17911533203125,0.0162481298828125,0.8751414990234375
-0.20975154296875,0.0486000537109375,1.02776255859375
-0.21655958984375,0.10987263671875,1.0058893310546875
-0.20926525390625,0.012816865234374999,0.869980400390625
-0.263486484375,0.10178465576171875,0.87931953125
-0.38530189453125,0.09051050048828126,0.88816712890625
-0.2800203125,0.05178622802734375,0.8869382958984375
-0.1540714453125,0.05521749267578125,0.7950215869140624
-0.24427806640625,0.10962754638671875,0.7635634619140625
-0.07650833984375,0.0270321044921875,0.9587021435546875
-0.345183046875,0.0373258984375,1.158510390625
-0.39940427734375,0.16158669677734375,1.2037314453125
-0.3233000390625,0.10962754638671875,0.88030259765625
-0.1540714453125,0.055462583007812497,0.5576110498046875
-0.09255587890625,0.1025199267578125,0.5340174560546875
-0.05024873046875,0.06109966064453125,0.535737822265625
-0.11638404296875,0.00325834228515625,0.7330884033203124
-0.3301080859375,0.11501953369140624,1.095102607421875
-0.518301953125,0.15423398681640624,1.245020234375
-0.370470078125,0.14982236083984374,1.021372626953125
-0.0500055859375,0.07286399658203124,0.817877880859375
-0.0354169140625,-0.014633251953124999,0.7611057958984375
-0.09352845703125,-0.08350363525390625,0.9503460791015625
-0.28609892578125,0.02360083984375,1.248460966796875
-0.36366203125,-0.04306373046875,1.3452930078125
-0.30992708984375,0.06649164794921875,1.28827515625
-0.16136578125,-0.02958376220703125,1.0860092431640624
-0.21850474609375,0.0054641552734375,0.9390408154296875
-0.07845349609375,0.0172284912109375,1.039067822265625
-0.172064140625,0.0574233056640625,1.0781447119140626
-0.48766574218750003,0.095167216796875,1.118696201171875
-0.269321953125,0.13217585693359374,1.15162892578125
-0.131215859375,0.09688284912109375,1.0196522607421874
-0.17133470703125,0.0486000537109375,0.9960586669921875
-0.19346085937500002,0.03757098876953125,1.110831669921875
-0.3500459375,0.15129290283203126,1.2423168017578126
-0.29047552734375,0.15178308349609376,1.2315030712890624
-0.28269490234375,0.12874459228515625,1.124594599609375
-0.1881116796875,0.15374380615234376,1.1695698876953124
-0.23309341796875,0.028257556152343752,1.182595517578125
-0.27880458984375,0.00570924560546875,1.1341794970703125
-0.1103054296875,0.1191860693359375,1.113780869140625
-0.27685943359375,-0.0641414990234375,1.0589749169921876
-0.2902323828125,-0.03105430419921875,1.1250861328125
-0.1813036328125,-0.046740085449218746,1.1801378515625
-0.2853694921875,0.0030132519531249997,1.1685868212890624
-0.20634751953125,-0.10727739746093751,1.111323203125
-0.282938046875,0.01747358154296875,1.1218911669921874
-0.18470765625,0.02286556884765625,1.001219765625
-0.23844259765625,-0.12541408203125,0.905370791015625
-0.23455228515625,0.022620478515625,1.111814736328125
-0.21266927734375,0.057668395996093746,1.014491162109375
-0.19953947265625,-0.011201987304687501,0.85277673828125
-0.16744439453124998,0.010856142578125,0.8065726171875
-0.1890842578125,0.01551285888671875,0.88423486328125
-0.1735230078125,-0.06781785400390625,0.882760263671875
-0.1686601171875,0.00570924560546875,1.06315294921875
-0.2309051171875,0.10080429443359375,1.167849521484375
-0.2450075,0.08805959716796875,1.24796943359375
-0.4458448828125,-0.02149578125,1.1007552392578126
-0.181789921875,0.07457962890625,1.0516019189453125
-0.2250696484375,0.1157548046875,0.95796484375
-0.21972046875,0.048109873046875,0.892590927734375
-0.12416466796875,0.06992291259765625,0.9397781152343749
-0.224583359375,0.01845394287109375,0.9070911572265625
-0.1803310546875,0.0378160791015625,0.992863701171875
-0.29728357421875,-0.0621807763671875,0.9245405859375
-0.28707150390625,0.09590248779296875,1.04939001953125
-0.2454937890625,0.0044837939453125,0.9518206787109375
-0.299471875,0.09002031982421875,0.8898874951171875
-0.1599069140625,0.019434304199218752,0.9414984814453125
-0.22968939453125,0.05227640869140625,0.8898874951171875
-0.21072412109375,0.05913893798828125,0.9065996240234375
-0.2309051171875,0.034384814453125,0.9503460791015625
-0.22944625,-0.00507472900390625,1.0029401318359374
-0.2736985546875,-0.02664267822265625,0.987948369140625
-0.16841697265625,0.08242251953125,0.985982236328125
-0.1530988671875,0.063795654296875,0.8274627783203125
-0.1530988671875,0.0020328906249999995,0.8702261669921875
-0.1667149609375,0.09149086181640625,1.121645400390625
-0.25157240234375,-0.0415931884765625,1.2369099365234375
-0.31138595703125,-0.015368522949218751,1.18112091796875
-0.22361078125,0.11599989501953126,1.0982975732421876
-0.302389609375,-0.08742508056640624,0.9945840673828125
-0.27929087890625,0.012816865234374999,0.9567360107421875
-0.17230728515625,0.02286556884765625,0.9311762841796875
-0.25011353515625,0.00276816162109375,0.9095488232421876
-0.2450075,0.065756376953125,0.922574453125
-0.2338228515625,-0.0768861962890625,0.913235322265625
-0.160393203125,0.026296833496093748,0.9950756005859375
-0.21510072265625,0.0309535498046875,0.9287186181640625
-0.39575710937499997,-0.076396015625,0.8603955029296875
-0.15528716796875,0.034384814453125,0.9011927587890625
-0.25108611328125,0.02090484619140625,0.788877421875
-0.32986494140625,-0.0001729223632812504,0.7758517919921875
-0.14556138671875,0.0069346972656249995,0.8127167822265625
-0.237226875,-0.0006631030273437505,0.851302138671875
-0.232363984375,0.0201695751953125,1.019406494140625
-0.33278267578125,0.0476196923828125,1.120662333984375
-0.15382830078125,0.104970830078125,1.1695698876953124
-0.28196546875,0.06355056396484375,1.0457035205078125
-0.2338228515625,0.00472888427734375,0.9346170166015625
-0.28026345703125,0.1005592041015625,0.99040603515625
-0.20294349609375,-0.02125069091796875,0.9414984814453125
-0.26810623046875,-0.0063001806640625,0.802148818359375
-0.12270580078125,0.028502646484374998,0.8633447021484375
-0.21753216796875,0.04492369873046875,0.938303515625
-0.10714455078125,0.0054641552734375,1.13196759765625
-0.2411171875,0.063795654296875,1.2374014697265625
-0.1861665234375,0.12874459228515625,1.26566462890625
-0.3116291015625,0.07433453857421875,1.16342572265625
-0.3223274609375,0.0358553564453125,1.14966279296875
-0.3242726171875,0.01575794921875,0.986965302734375
-0.34202216796875,-0.107767578125,0.812471015625
-0.14167107421875,-0.10115013916015625,0.70924904296875
-0.1647698046875,-0.060710234375,0.6915538476562499
-0.05851564453125,-0.0582593310546875,0.828691611328125
-0.1103054296875,-0.05311243408203125,1.02186416015625
-0.27199654296875,0.07457962890625,1.1223827001953124
-0.33424154296874997,-0.0038492773437499997,1.2442829345703126
-0.34299474609375,0.138303115234375,1.245511767578125
-0.31989601562500003,0.00766996826171875,1.024813359375
-0.24427806640625,-0.048455717773437504,0.969761640625
-0.25011353515625,-0.0567887890625,0.8223016796875
-0.237226875,-0.0803174609375,0.7778179248046875
-0.142886796875,-0.06928839599609375,0.7650380615234375
-0.12465095703125,-0.048945898437499996,0.8446664404296875
-0.2027003515625,0.05472731201171875,0.897506259765625
-0.1433730859375,-0.046004814453125,0.93437125
-0.2454937890625,-0.0464949951171875,1.08379734375
-0.3135742578125,-0.081297822265625,1.0968229736328126
-0.15139685546875,-0.0396324658203125,0.931913583984375
-0.1871391015625,-0.0386521044921875,0.690079248046875
-0.01766736328125,-0.081297822265625,0.67975705078125
-0.22628537109375,-0.0033590966796874996,0.7291561376953125
-0.065080546875,0.0172284912109375,0.8702261669921875
-0.17133470703125,0.1182057080078125,1.029237158203125
-0.23941517578125,0.16354741943359374,1.1710444873046875
-0.30166017578125,0.05497240234375,1.2315030712890624
-0.19710802734375,0.19638952392578124,1.1331964306640625
-0.15285572265625,0.1064413720703125,0.9356000830078125
-0.3009307421875,0.11845079833984375,1.005643564453125
-0.14507509765624998,0.0456589697265625,0.93338818359375
-0.2566784375,-0.0808076416015625,0.8884128955078126
-0.13291787109375,0.16697868408203126,1.102967138671875
-0.24695265625,0.0059543359375,1.0425085546875
-0.170118984375,0.23021198974609375,1.1936550146484375
-0.30506419921875,0.17874302001953124,1.2423168017578126
-0.2333365625,0.061834931640625,1.2870463232421876
-0.32062544921875,0.11501953369140624,1.331038544921875
-0.41447923828125,-0.08497417724609375,1.3371827099609375
-0.32013916015625,-0.0097314453125,1.011541962890625
-0.17230728515625,-0.10016977783203125,0.7807671240234375
-0.160393203125,-0.2455083447265625,0.901438525390625
-0.24914095703125,-0.16291290283203125,1.0402966552734374
-0.25084296875,-0.13791368896484374,1.054796884765625
-0.3301080859375,-0.06830803466796875,1.0294829248046875
-0.40815748046875,0.020659755859375,1.027271025390625
-0.37557611328125,0.01159141357421875,0.8810398974609375
-0.04441326171875,-0.0837487255859375,0.8557259375
-0.13340416015625,-0.06242586669921875,0.8982435595703124
-0.3126016796875,0.00717978759765625,1.014491162109375
-0.25303126953125,-0.13350206298828124,0.897506259765625
-0.18786853515625002,0.0123266845703125,0.87047193359375
-0.31746457031249997,-0.052867343750000004,0.8633447021484375
-0.18884111328125,-0.19330410400390624,0.922574453125
-0.1501811328125,0.06109966064453125,1.12213693359375
-0.26567478515625,-0.0817880029296875,1.1086197705078125
-0.36828177734375,-0.08791526123046875,0.8962774267578125
-0.1599069140625,0.136342392578125,0.844420673828125
-0.2566784375,0.1309504052734375,0.8166490478515624
-0.2260422265625,0.061834931640625,0.7237492724609375
-0.1112780078125,0.10595119140625,0.700892978515625
-0.1287844140625,-0.03987755615234375,0.76921609375
-0.15188314453125001,-0.09526797119140624,0.81148794921875
-0.25254498046875,0.0358553564453125,0.7915808544921875
-0.1696326953125,0.12629368896484375,0.814928681640625
-0.3194097265625,0.1358522119140625,0.81640328125
-0.2931501171875,0.103010107421875,0.98843990234375
-0.3189234375,0.19050735595703125,1.0928907080078125
-0.140941640625,0.24099596435546874,1.149171259765625
-0.12270580078125,0.0505607763671875,1.07101748046875
-0.23066197265625,0.010611052246093749,1.069542880859375
-0.1268392578125,0.146146005859375,1.2093840771484374
-0.28196546875,-0.07909200927734375,1.0516019189453125
-0.19516287109375,0.10962754638671875,1.1135351025390625
-0.049762441406249996,0.018699033203125,1.185544716796875
-0.43101306640625,-0.08227818359375,1.2275708056640624
-0.2299325390625,-0.03301502685546875,1.186527783203125
-0.30798193359375,-0.1038461328125,0.9675497412109375
-0.28074974609375003,-0.02149578125,1.0228472265625
-0.282938046875,-0.19207865234375,0.9911433349609375
-0.24816837890625,0.010856142578125,0.8505648388671875
-0.18835482421875,0.06158984130859375,0.793301220703125
-0.21121041015625,-0.09036616455078125,0.80755568359375
-0.12902755859375,-0.032279755859375,0.9341254833984375
-0.20464550781250002,-0.04134809814453125,1.0491442529296875
-0.12319208984375,-0.0308092138671875,1.1199250341796876
-0.10714455078125,0.1235976953125,1.120662333984375
-0.23357970703125,0.0329142724609375,1.0975602734375
-0.27491427734375,0.0505607763671875,1.0904330419921875
-0.2912049609375,-0.1111988427734375,1.094119541015625
-0.2756437109375,-0.12663953369140624,1.0240760595703124
-0.203186640625,-0.0592396923828125,0.9896687353515625
-0.2231244921875,-0.1062970361328125,0.869980400390625
-0.007698437500000002,-0.1151202880859375,0.922082919921875
-0.15236943359375,-0.108747939453125,1.1592476904296876
-0.2513292578125,0.01208159423828125,1.29712275390625
-0.35369310546875,-0.06046514404296875,1.093136474609375
-0.280992890625,0.01894412353515625,0.87637033203125
-0.1968648828125,-0.03399538818359375,0.68270625
-0.10714455078125,-0.042328459472656246,0.6913080810546874
-0.022773398437500002,0.01575794921875,0.759876962890625
-0.177899609375,-0.05874951171875,0.6682060205078125
-0.053409609375,0.0686974609375,0.776589091796875
-0.3656071875,-0.02419177490234375,0.9380577490234375
-0.31770771484375,0.03536517578125,1.2251131396484376
-0.450221484375,0.0838930615234375,1.24108796875
-0.3038484765625,0.08119706787109375,1.173747919921875
-0.24816837890625,-0.02909358154296875,0.9906518017578125
-0.25838044921875,-0.022476142578125,0.8254966455078125
-0.1827625,0.1093824560546875,0.7114609423828124
-0.20877896484375,0.04100225341796875,0.7198170068359375
-0.17303671874999998,0.1907524462890625,0.8338527099609375
-0.20537494140625,0.16746886474609374,0.9139726220703125
-0.037848359375,-0.046249904785156254,0.925032119140625
-0.152612578125,-0.04379900146484375,1.0216183935546874
-0.22628537109375,-0.08497417724609375,0.985982236328125
-0.244034921875,-0.1376685986328125,0.95698177734375
-0.21947732421875,-0.1033559521484375,1.2079094775390624
-0.42615017578125003,-0.05997496337890625,1.301546552734375
-0.4302836328125,-0.083258544921875,1.1887396826171874
-0.3553951171875,-0.136198056640625,0.9011927587890625
-0.2775888671875,-0.0415931884765625,0.7689703271484375
-0.15480087890625,0.085363603515625,0.7952673535156249
-0.063135390625,-0.08889562255859375,0.8603955029296875
-0.16793068359375,0.01404231689453125,0.9660751416015625
-0.19248828125,-0.17026561279296876,0.8726838330078125
-0.302389609375,-0.1425704052734375,0.8889044287109376
-0.2892598046875,-0.011201987304687501,0.99433830078125
-0.387976484375,-0.07075893798828126,0.8871840625
-0.43247193359375,-0.053847705078125,0.771673759765625
-0.26032560546875,-0.1979608203125,0.7232577392578124
-0.23139140625,-0.1562954638671875,0.87243806640625
-0.15747546875,0.06011929931640625,1.0049062646484375
-0.174981875,0.16477287109375,1.1597392236328126
-0.3889490625,0.11796061767578125,1.395920927734375
-0.25157240234375,0.22947671875,1.56451681640625
-0.29776986328125,0.29589619873046874,1.2831140576171876
-0.35174794921875,-0.0817880029296875,0.945676513671875
-0.27102396484375,-0.2621744873046875,0.7370206689453125
-0.160393203125,-0.2749191845703125,0.466431640625
0.053573984374999994,-0.16242272216796874,0.3521501708984375
0.0156434375,-0.2308029248046875,0.38213369628906246
-0.037362070312499995,-0.25090033203125,0.345022939453125
-0.0276362890625,-0.18521612304687501,0.17593551757812498
-0.061190234375,-0.17320669677734374,0.2032156103515625
-0.08428896484375001,-0.16732452880859375,0.0557556494140625
-0.09425789062500001,-0.1587463671875,0.033882421875
-0.098148203125,-0.171491064453125,0.098273271484375
-0.10568568359375,-0.19967645263671874,0.317005546875
-0.11468203125,-0.27467409423828126,0.7227662060546876
0.007376523437500001,-0.39084691162109375,1.7412230029296876
0.4187770703125,-0.1744321484375,2.129718558349609
-0.2722396875,0.6272583276367187,2.129718558349609
-1.0614868359375,0.3566786010742187,2.129718558349609
-0.81907173828125,0.1789881103515625,1.6094921044921875
-0.71768046875,0.077520712890625,0.9351085498046875
-0.4633512890625,-0.055808427734375,0.3978627587890625
-0.37898013671874997,0.0201695751953125,-0.0101097998046875
0.027557519531249998,-0.1023755908203125,0.19215611328124999
0.13454111328125,-0.1288453466796875,0.38287099609374997
0.16177330078125,0.01257177490234375,1.12606919921875
-0.610696875,0.1015395654296875,2.129718558349609
-1.21685619140625,0.03659062744140625,2.129718558349609
-1.3026862109375,-0.0141430712890625,2.129718558349609
-0.12854126953125,-0.29085005615234377,1.6163735693359376
-0.29728357421875,-0.3687887817382812,1.06708521484375
-0.14969484375,-0.33717212890625,0.6455954931640625
-0.08137123046875,-0.355798994140625,0.596687939453125
-0.06751199218750001,-0.3974643505859375,0.6652568212890625
-0.143859375,-0.485206689453125,1.044966220703125
-0.41812640624999997,-0.461678017578125,1.2010280126953126
-0.2882872265625,-0.30261439208984375,0.9842618701171875
-0.22239505859375,-0.30996710205078126,0.86359046875
-0.36536404296875,-0.398934892578125,0.7891231884765625
-0.27272597656249997,-0.13546278564453124,0.8771076318359375
-0.09595990234375,-0.06193568603515625,0.962388642578125
-0.30530734375,0.00987578125,1.02186416015625
-0.4380642578125,0.0003172583007812497,0.897506259765625
-0.46408072265625,-0.0200252392578125,0.776589091796875
-0.32646091796875,-0.055073156738281254,0.5477803857421875
-0.20975154296875,-0.08889562255859375,0.2848101220703125
-0.03225603515625,-0.10065995849609374,0.15553688964843748
0.006647089843749999,-0.1749223291015625,0.16610485351562498
0.0598957421875,-0.126394443359375,0.141528193359375
0.0861553515625,-0.15408965087890625,0.4430838134765625
0.18098171875,-0.120512275390625,0.7436563671875001
0.152776953125,-0.1494329345703125,1.2506728662109374
-0.15625974609374998,-0.052867343750000004,1.82404634765625
-0.370470078125,-0.52540150390625,2.129718558349609
0.37671306640625,-0.11193411376953125,2.129718558349609
0.31057775390625,0.3838836279296875,2.129718558349609
-0.43149935546875,0.626523056640625,2.1236358349609374
-0.29242068359375,0.393197060546875,0.985982236328125
-0.28391062499999997,0.24393704833984375,0.7094948095703125
-0.30263275390625,-0.20163717529296876,0.9429730810546875
-0.3378887109375,-0.1484525732421875,1.826504013671875
-0.020341953125,0.4223628100585938,1.85353833984375
-0.1997826171875,-0.11757119140625,1.408700791015625
-0.518301953125,-0.12933552734375,1.0678225146484375
-0.5868687109375,-0.12614935302734376,0.729401904296875
-0.48450486328125,-0.21193096923828125,0.50280509765625
-0.13486302734375,-0.3053103857421875,0.409905322265625
0.12384275390624999,-0.09232688720703125,0.925032119140625
-0.26616107421875,0.2333981640625,0.8662939013671875
-0.23139140625,0.2456526806640625,0.8028861181640625
-0.31235853515625,0.23021198974609375,1.1744852197265625
-0.48815203125,0.1780077490234375,1.2285538720703124
-0.1783858984375,-0.01291761962890625,1.4443369482421875
-0.0850183984375,-0.21879349853515626,1.4131245898437501
-0.34591248046875,0.19933060791015625,0.8970147265625
-0.284883203125,-0.07835673828125,0.3988458251953125
-0.010616171875,-0.15114856689453124,0.2184531396484375
-0.11249373046875,-0.122472998046875,0.273259091796875
-0.20342978515625,-0.0004180126953125,0.3605062353515625
-0.25011353515625,0.07482471923828125,0.579975810546875
-0.366579765625,0.10619628173828125,0.887675595703125
-0.48693630859375,0.13217585693359374,1.087238076171875
-0.46870046875,0.2338883447265625,1.037101689453125
-0.4108320703125,0.23805488037109374,1.075441279296875
-0.0889087109375,0.15129290283203126,0.8928366943359375
-0.17522501953125,0.1485969091796875,0.769707626953125
-0.089395,0.1299700439453125,0.8525309716796875
-0.2416034765625,0.14884199951171875,0.6691890869140625
-0.16258150390625,0.00963069091796875,0.492482900390625
-0.08574783203125,-0.0366913818359375,0.352887470703125
0.01758859375,-0.0641414990234375,0.2621995947265625
0.05576228515625,-0.07713128662109375,0.4180156201171875
0.03874216796875,-0.0254172265625,0.6603414892578126
-0.154557734375,0.01992448486328125,1.0481611865234375
-0.3690112109375,0.019679394531249998,1.431311318359375
-0.41934212890625,0.07825598388671876,1.6370179638671876
-0.32475890625,0.23070217041015625,1.4836596044921875
-0.15771861328125,0.2034971435546875,1.366428935546875
-0.2941226953125,-0.00458454833984375,1.2211808740234376
-0.292663828125,-0.2249207568359375,1.161951123046875
-0.3811684375,-0.19477464599609376,0.7733941259765625
-0.2022140625,-0.23742036376953124,0.5241867919921875
-0.13510617187500001,-0.21928367919921876,0.33764994140625
-0.1180860546875,-0.2013920849609375,0.2717844921875
-0.17230728515625,-0.035711020507812496,0.316514013671875
-0.13340416015625,0.0338946337890625,0.397125458984375
-0.10690140625,0.122617333984375,0.5404073876953125
-0.127325546875,0.2034971435546875,0.8422087744140625
-0.20537494140625,0.2659951782226562,1.1081282373046875
-0.33083751953125,0.27138716552734377,1.3750307666015624
-0.37581925781250003,0.11011772705078125,1.4984056005859374
-0.12805498046875,0.04590406005859375,1.3794545654296875
-0.32548833984375003,0.03708080810546875,1.275986826171875
-0.32305689453124997,0.09541230712890625,1.1705529541015625
-0.33424154296874997,0.010611052246093749,1.0029401318359374
-0.339347578125,0.08266760986328126,0.947642646484375
-0.23309341796875,0.0858537841796875,0.909303056640625
-0.15674603515625,-0.0651218603515625,1.0162115283203126
-0.2746711328125,0.07531489990234375,1.1486797265625
-0.24136033203125,-0.03129939453125,1.1833328173828126
-0.35199109375,-0.09624833251953124,1.1253318994140624
-0.27588685546875,0.13732275390625,1.24600330078125
-0.234309140625,0.08413815185546875,1.31481794921875
-0.42201671875,-0.0161037939453125,1.2076637109375
-0.179844765625,0.01208159423828125,1.0575003173828126
-0.33959072265625,-0.05605351806640625,0.88030259765625
-0.28658521484375,-0.1092381201171875,0.8554801708984375
-0.20002576171875,-0.06144550537109375,0.8372934423828124
-0.2386857421875,-0.00605509033203125,0.9346170166015625
-0.2099946875,-0.029338671875,1.09067880859375
-0.27005138671875,-0.1141399267578125,1.098051806640625
-0.1866528125,-0.0567887890625,1.052830751953125
-0.1827625,-0.0376717431640625,1.0294829248046875
-0.38821962890625,-0.032279755859375,0.9931094677734374
-0.267376796875,-0.0376717431640625,1.036118623046875
-0.3369161328125,-0.10948321044921874,1.0176861279296876
-0.3811684375,0.09002031982421875,0.9931094677734374
-0.1881116796875,-0.04870080810546875,0.9886856689453125
-0.17619759765625,0.0201695751953125,1.060695283203125
-0.21461443359375,0.06257020263671875,1.2555881982421875
-0.30652306640625,-0.065612041015625,1.2666476953124999
-0.20804953125,-0.05090662109375,1.0781447119140626
-0.28609892578125,0.0319339111328125,0.915201455078125
-0.25983931640625,-0.098944326171875,0.7955131201171874
-0.16306779296875,-0.07075893798828126,0.741198701171875
-0.28755779296875,-0.1190417333984375,0.6878673486328125
-0.253760703125,-0.06389640869140625,0.588331875
-0.1944334375,0.05815857666015625,0.59914560546875
-0.22531279296875,0.12139188232421876,0.6374851953125
-0.185680234375,0.1652630517578125,0.7419360009765625
-0.280992890625,0.2333981640625,0.9518206787109375
-0.28269490234375,0.25128975830078126,1.1135351025390625
-0.25594900390624997,0.11256863037109376,1.1759598193359375
-0.31381740234375,0.0289928271484375,1.1302472314453125
-0.18640966796875,0.040266982421875,1.0250591259765625
-0.2192341796875,-0.027868129882812502,0.9127437890625
-0.24573693359375,-0.0043394580078125,0.821810146484375
-0.16063634765625,-0.081297822265625,0.741690234375
-0.17473873046875,-0.11561046875,0.8063268505859374
-0.16160892578125,-0.022476142578125,1.048406953125
-0.2099946875,0.01845394287109375,1.083305810546875
-0.2746711328125,0.08634396484375,1.1779259521484375
-0.2503566796875,0.104970830078125,1.284342890625
-0.21972046875,0.038306259765625,1.209138310546875
-0.2027003515625,0.093206494140625,1.1184504345703126
-0.29169125,0.0456589697265625,1.127052265625
-0.26372962890625,0.0544822216796875,1.0235845263671874
-0.17765646484375,0.04786478271484375,0.9587021435546875
-0.29752671875000003,0.11747043701171875,0.9149556884765625
-0.20464550781250002,0.0270321044921875,0.8957858935546875
-0.0655668359375,-0.0004180126953125,0.8849721630859375
-0.1803310546875,0.10987263671875,0.9965502001953125
-0.3942982421875,0.0701680029296875,1.08674654296875
-0.32791978515625,0.0093856005859375,0.9842618701171875
-0.30360533203125,0.00987578125,0.840488408203125
-0.14312994140625,-0.04183827880859375,0.7672499609375
-0.1034973828125,-0.1308060693359375,0.8058353173828126
-0.16258150390625,-0.04575972412109375,1.0778989453125
-0.41836955078125,-0.03154448486328125,1.2197062744140625
-0.370470078125,-0.0425735498046875,1.2010280126953126
-0.25084296875,0.17237067138671874,1.202256845703125
-0.1997826171875,0.1525183544921875,1.1135351025390625
-0.1258666796875,0.11403917236328125,1.1577730908203125
-0.26227076171875,0.02874773681640625,1.1464678271484374
-0.265431640625,7.216796875000007e-05,1.1204165673828126
-0.16695810546875,0.13536203125,1.1892312158203124
-0.347128203125,0.038306259765625,1.056271484375
-0.26275705078125,0.0515411376953125,0.90782845703125
-0.24184662109375,0.0005623486328125002,0.7738856591796874
-0.3145468359375,0.07237381591796875,0.762826162109375
-0.24816837890625,0.12947986328125,0.8284458447265625
-0.12173322265625,-0.0011532836914062497,0.958456376953125
-0.16355408203125,0.220653466796875,1.0909245751953125
-0.29144810546875,0.21207530517578124,1.127052265625
-0.25594900390624997,0.12874459228515625,0.9931094677734374
-0.1599069140625,0.09786321044921875,0.8510563720703125
-0.22628537109375,0.08634396484375,0.8726838330078125
-0.21218298828125,-0.01046671630859375,0.94518498046875
-0.10957599609375,-0.00458454833984375,0.931913583984375
-0.2454937890625,0.08609887451171874,0.8304119775390625
-0.21072412109375,0.14786163818359374,0.828691611328125
-0.21801845703125,0.21550656982421876,0.839996875
-0.3155194140625,0.18560554931640624,0.8564632373046875
-0.18835482421875,0.28241623046875,0.997779033203125
-0.20245720703125,0.246142861328125,1.0791277783203126
-0.21315556640625,0.1240878759765625,1.121645400390625
-0.092312734375,0.13756784423828125,1.1346710302734375
-0.3904079296875,0.1574201611328125,1.0334151904296875
-0.21072412109375,0.1510478125,0.91077765625
-0.2542469921875,0.122617333984375,0.754961630859375
-0.18227621093750002,0.10668646240234375,0.7736398925781249
-0.10908970703125,0.1079119140625,0.8544971044921875
-0.0723748828125,0.1299700439453125,0.9818042041015624
-0.30846822265625,0.15717507080078125,1.09952640625
-0.26081189453125,0.11599989501953126,1.12410306640625
-0.31868029296875,0.21697711181640625,1.09854333984375
-0.22677166015625,0.19736988525390625,1.1621968896484376
-0.25862359375,0.13756784423828125,1.0759328125
-0.15480087890625,0.12237224365234375,0.969761640625
-0.18738224609375,0.127519140625,0.953541044921875
-0.33229638671875,0.14639109619140625,0.93928658203125
-0.15528716796875,0.0946770361328125,0.9331424169921875
-0.1239215234375,0.1515379931640625,0.9587021435546875
-0.2318776953125,0.216732021484375,0.9822957373046874
-0.23917203125,0.1554594384765625,0.8726838330078125
-0.092312734375,0.0270321044921875,0.8043607177734375
-0.25400384765625,0.059874208984374996,0.77609755859375
-0.2561921484375,0.05472731201171875,0.8771076318359375
-0.16720125,0.0515411376953125,0.9223286865234375
-0.27613,0.15423398681640624,1.0422627880859374
-0.26372962890625,0.08462833251953125,1.0786362451171876
-0.22239505859375,0.16060633544921876,1.14769666015625
-0.25546271484375,0.23560397705078126,1.1054248046875
-0.2878009375,0.0985984814453125,1.12017080078125
-0.29363640625,0.214771298828125,1.12017080078125
-0.20440236328125,0.07457962890625,0.9159387548828125
-0.0451426953125,0.19810515625,0.8569547705078124
-0.13923962890625,0.0956573974609375,0.8156659814453124
-0.20683380859375,0.18805645263671875,1.1100943701171875
-0.33132380859375,0.16501796142578126,1.18603625
-0.41545181640625,0.16305723876953124,1.132459130859375
-0.3096839453125,0.2397705126953125,1.001711298828125
-0.31697828125,0.16599832275390625,0.874895732421875
-0.19808060546875,0.23928033203125,0.890624794921875
-0.1890842578125,0.12972495361328126,0.9601767431640625
-0.277102578125,0.12874459228515625,1.06020375
-0.113709453125,0.099088662109375,1.1361456298828125
-0.3694975,-0.0543378857421875,1.072000546875
-0.17376615234375,-0.011201987304687501,1.0103131298828125
-0.1511537109375,-0.06242586669921875,0.9247863525390625
-0.26372962890625,0.008895419921875,0.813945615234375
-0.18349193359375,0.026051743164062502,0.74463943359375
-0.1764407421875,0.0037485229492187503,0.73775796875
-0.22385392578125,0.11649007568359375,0.8245135791015625
-0.28658521484375,-0.013407800292968751,0.9847534033203125
-0.23917203125,0.06502110595703126,1.016948828125
-0.15164,0.17237067138671874,0.945676513671875
-0.3301080859375,0.09884357177734375,0.9183964208984375
-0.18300564453125,0.12384278564453124,0.9788550048828125
-0.1482359765625,0.220653466796875,0.99040603515625
-0.3028758984375,0.11256863037109376,1.0461950537109375
-0.25449013671875,0.0608545703125,1.021372626953125
-0.1550440234375,0.06158984130859375,0.9473968798828125
-0.212912421875,0.04737460205078125,0.907336923828125
-0.26567478515625,0.1157548046875,0.858183603515625
-0.1190586328125,0.010856142578125,0.8852179296875
-0.24281919921875,0.0436982470703125,0.8540055712890625
-0.34032015625,0.0044837939453125,0.859658203125
-0.1842213671875,0.0358553564453125,0.9891772021484375
-0.37119951171875,0.02752228515625,1.0211268603515624
-0.269321953125,0.2378097900390625,1.1307387646484375
-0.162338359375,0.1221271533203125,1.0265337255859375
-0.220693046875,0.13070531494140625,0.925032119140625
-0.17717017578125,0.15300853515625001,1.0029401318359374
-0.38287044921875,0.093206494140625,1.072492080078125
-0.29242068359375,0.2726126171875,1.1808751513671876
-0.20829267578125,0.046149150390625,1.032186357421875
-0.2659179296875,0.07237381591796875,0.94223578125
-0.13948277343749999,0.03217900146484375,0.9424815478515625
-0.3135742578125,-0.05703387939453125,0.8771076318359375
-0.2688356640625,0.05276658935546875,0.84884447265625
-0.2114535546875,-0.0646316796875,0.895540126953125
-0.268349375,0.110852998046875,1.119679267578125
-0.2513292578125,0.01845394287109375,1.12312
-0.09206958984375,-0.01046671630859375,1.0525849853515625
-0.22239505859375,0.03119864013671875,0.92748978515625
-0.1492085546875,-0.04183827880859375,0.9518206787109375
-0.12221951171875,-0.0190448779296875,0.942727314453125
-0.23139140625,0.06992291259765625,1.069542880859375
-0.13972591796875,-0.03914228515625,1.0968229736328126
-0.315033125,0.03561026611328125,1.048406953125
-0.13437673828125,0.00987578125,0.9714820068359376
-0.23990146484375,-0.0582593310546875,0.88816712890625
-0.25084296875,0.1780077490234375,1.0398051220703124
-0.14799283203125,0.05227640869140625,1.0457035205078125
-0.28609892578125,0.04639424072265625,1.12213693359375
-0.273212265625,0.146146005859375,1.0216183935546874
-0.11006228515625,0.00472888427734375,0.9267524853515625
-0.20197091796875,0.0642858349609375,0.839996875
-0.0704297265625,0.1025199267578125,0.87931953125
-0.2027003515625,0.1652630517578125,1.00220283203125
-0.26470220703125,0.10202974609375,1.04742388671875
-0.1686601171875,0.009140510253906251,1.0501273193359375
-0.2630001953125,0.079481435546875,1.13196759765625
-0.32791978515625,0.04394333740234375,1.0923991748046875
-0.1686601171875,0.020659755859375,1.00023669921875
-0.2775888671875,0.096147578125,1.016457294921875
-0.314060546875,0.02923791748046875,1.042017021484375
-0.22823052734375,-0.0210056005859375,1.00416896484375
-0.34226531250000003,0.0456589697265625,1.0584833837890626
-0.08477525390625,0.11501953369140624,1.0737209130859375
-0.2795340234375,-0.044044091796875,0.88620099609375
-0.27272597656249997,0.08511851318359374,0.980083837890625
-0.2416034765625,0.0182088525390625,0.8289373779296875
-0.1764407421875,-0.00581,0.7566819970703125
-0.13680818359375,0.01894412353515625,0.7436563671875001
-0.2221519140625,-0.0308092138671875,0.7448852001953125
-0.125380390625,-0.00360418701171875,0.8038691845703125
-0.26081189453125,-0.055808427734375,0.7488174658203125
-0.127325546875,-0.01193725830078125,0.7679872607421875
-0.09595990234375,-0.04085791748046875,0.7694618603515625
-0.18495080078125,-0.15212892822265625,0.8353273095703125
-0.21364185546875,0.03021827880859375,0.992863701171875
-0.2736985546875,-0.08742508056640624,1.1027213720703124
-0.29387955078125,0.0476196923828125,1.214053642578125
-0.315033125,0.08119706787109375,1.111323203125
-0.20829267578125,0.0672269189453125,0.9675497412109375
-0.2022140625,0.055462583007812497,0.891116328125
-0.23163455078125,0.0848734228515625,0.8338527099609375
-0.12319208984375,0.0530116796875,0.8535140380859375
-0.22823052734375,-0.035711020507812496,0.9395323486328125
-0.1667149609375,0.0378160791015625,0.99827056640625
-0.24768208984375,-0.0425735498046875,1.013508095703125
-0.32257060546875,-0.0151234326171875,1.1312302978515625
-0.28853037109375,0.05374695068359375,1.2017653125
-0.4370916796875,0.01992448486328125,1.2408422021484375
-0.42858162109375,0.0378160791015625,1.1582646240234376
-0.42177357421875,0.0103659619140625,1.0953483740234375
-0.376305546875,0.01183650390625,0.9980247998046875
-0.2561921484375,-0.09281706787109376,0.92748978515625
-0.21364185546875,-0.1273748046875,0.851302138671875
-0.24816837890625,-0.029338671875,0.73775796875
-0.20342978515625,-0.1121792041015625,0.6957318798828125
-0.11978806640625,-0.139139140625,0.749554765625
-0.23260712890625002,-0.046740085449218746,0.9763973388671875
-0.33959072265625,-0.0778665576171875,1.2115959765625
-0.3904079296875,0.011346323242187501,1.3008092529296875
-0.32257060546875,0.0574233056640625,1.2162655419921875
-0.346155625,0.01404231689453125,1.0923991748046875
-0.3417790234375,0.04051207275390625,1.1454847607421874
-0.31722142578125,0.0255615625,1.1990618798828125
-0.30798193359375,-0.00507472900390625,1.180629384765625
-0.30895451171875,-0.04379900146484375,1.154578125
-0.3505322265625,-0.05213207275390625,1.1504000927734375
-0.2610550390625,-0.06267095703125,0.9950756005859375
-0.253760703125,-0.10605194580078126,0.8250051123046875
-0.175954453125,-0.09012107421875,0.823776279296875
-0.2566784375,-0.147962392578125,0.7837163232421875
-0.2659179296875,-0.0935523388671875,0.8422087744140625
-0.299471875,-0.06683749267578125,0.7448852001953125
-0.27515742187500003,-0.07835673828125,0.64436666015625
-0.27637314453125,-0.040122646484374996,0.55589068359375
-0.1424005078125,-0.12418863037109375,0.593738740234375
-0.221665625,-0.1195319140625,0.8778449316406249
-0.28585578125,-0.075415654296875,1.196358447265625
-0.30992708984375,-0.11977700439453125,1.3524202392578124
-0.3145468359375,-0.091101435546875,1.19881611328125
-0.14361623046875,-0.1631579931640625,0.890624794921875
-0.11249373046875,-0.13938423095703126,0.7989538525390625
-0.144831953125,-0.08889562255859375,0.8871840625
-0.166228671875,-0.08203309326171875,0.964354775390625
-0.203186640625,-0.04772044677734375,1.0943653076171875
-0.1920019921875,-0.00507472900390625,1.1749767529296875
-0.32475890625,0.0530116796875,1.200290712890625
-0.28998923828125,0.02531647216796875,1.273037626953125
-0.3262177734375,0.0544822216796875,1.32661474609375
-0.37119951171875,0.044188427734375,1.204222978515625
-0.23406599609375,-0.03889719482421875,1.087238076171875
-0.23601115234375,0.02482629150390625,0.954032578125
-0.18227621093750002,0.03315936279296875,0.946659580078125
-0.1015522265625,-0.0053198193359375,0.9518206787109375
-0.14458880859375,0.01110123291015625,0.926998251953125
-0.17084841796875,0.01845394287109375,0.9704989404296875
-0.20634751953125,-0.053847705078125,1.003677431640625
-0.21607330078125,-0.0543378857421875,1.056271484375
-0.2416034765625,-0.07958218994140626,1.150154326171875
-0.3359435546875,-0.040122646484374996,1.217494375
-0.29971501953125,-0.04183827880859375,1.229782705078125
-0.2931501171875,0.01894412353515625,1.20962984375
-0.2717533984375,-0.04428918212890625,1.16342572265625
-0.29193439453125003,-0.0729647509765625,1.1329506640625
-0.34834392578125,-0.13791368896484374,1.113780869140625
-0.33667298828125003,-0.1562954638671875,1.0732293798828125
-0.2027003515625,-0.15212892822265625,0.9007012255859375
-0.16695810546875,-0.16854998046875,0.752012431640625
-0.127325546875,-0.1533543798828125,0.713672841796875
-0.1093328515625,-0.222469853515625,0.79969115234375
-0.22531279296875,-0.22859711181640624,0.94911724609375
-0.253760703125,-0.1739419677734375,1.091170341796875
-0.33424154296874997,-0.15948163818359376,1.14671359375
-0.3515048046875,-0.1161006494140625,1.144255927734375
-0.35661083984374997,-0.05801424072265625,1.123611533203125
-0.33083751953125,-0.0817880029296875,1.0739666796875
-0.2610550390625,-0.0435539111328125,1.0422627880859374
-0.31284482421875,-0.14379585693359376,0.875387265625
-0.16647181640625,-0.0857094482421875,0.72891037109375
-0.11200744140625,-0.09771887451171875,0.61684080078125
-0.11930177734375,-0.08056255126953125,0.6249510986328125
-0.109819140625,0.02531647216796875,0.7542243310546874
-0.21315556640625,0.0525214990234375,0.93732044921875
-0.35272052734375,0.06281529296875,1.051847685546875
-0.36244630859375,0.07972652587890625,0.9926179345703126
-0.36244630859375,0.14516564453125,0.8648193017578125
-0.28366748046875,0.07433453857421875,0.7571735302734375
-0.30749564453125,0.02727719482421875,0.8038691845703125
-0.3126016796875,0.03021827880859375,0.9306847509765624
-0.17668388671875,-0.0288484912109375,0.87637033203125
-0.212912421875,-0.05752406005859375,0.8372934423828124
-0.23139140625,-0.05213207275390625,0.9031588916015625
-0.31673513671875,-0.10262068115234375,0.9501003125
-0.29533841796875,-0.12075736572265625,0.9665666748046875
-0.30311904296875003,-0.05801424072265625,0.973202373046875
-0.30627992187499997,-0.04870080810546875,0.914709921875
-0.22774423828125,0.00423870361328125,0.8839890966796875
-0.28196546875,-0.05801424072265625,0.91765912109375
-0.312115390625,-0.00777072265625,0.9680412744140625
-0.3641483203125,-0.15286419921875,0.9397781152343749
-0.37898013671874997,-0.0700236669921875,1.010558896484375
-0.2853694921875,-0.25874322265625,0.9397781152343749
-0.22288134765625,-0.28251698486328125,0.855234404296875
-0.20415921875,-0.1925688330078125,0.7999369189453125
-0.20829267578125,-0.1641383544921875,1.024813359375
-0.26640421875,-0.16070708984375,1.218968974609375
-0.356853984375,-0.10752248779296875,1.3519287060546874
-0.39210994140625,-0.06585713134765625,1.2909785888671874
-0.3874901953125,-0.12516899169921875,1.088221142578125
-0.38530189453125,-0.1308060693359375,0.885709462890625
-0.31624884765625,-0.155805283203125,0.7286646044921875
-0.205131796875,-0.2141367822265625,0.6003744384765625
-0.1472633984375,-0.26143921630859374,0.6126627685546875
-0.1453182421875,-0.263645029296875,0.828691611328125
-0.1725504296875,-0.2580079516601563,0.9835245703125
-0.27272597656249997,-0.1719812451171875,1.134916796875
-0.37581925781250003,-0.05090662109375,1.2192147412109375
-0.432715078125,-0.06291604736328126,1.2088925439453124
-0.32743349609375,-0.0175743359375,0.9449392138671875
-0.23114826171875,-0.0964934228515625,0.7473428662109375
-0.17425244140625,-0.191098291015625,0.827708544921875
-0.277102578125,-0.08619962890625,1.023338759765625
-0.30627992187499997,-0.0513968017578125,1.1243488330078124
-0.214857578125,-0.059484782714843754,1.0732293798828125
-0.2416034765625,0.0378160791015625,1.1508916259765625
-0.24719580078125,-0.0229663232421875,1.27549529296875
-0.35199109375,-0.071494208984375,1.4064888916015625
-0.321841171875,0.08364797119140625,1.4487607470703125
-0.45143720703125,-0.05899460205078125,1.1427813281249999
-0.35588140625,-0.15310928955078124,0.8795652978515625
-0.2192341796875,-0.200901904296875,0.6335529296875
-0.18640966796875,-0.23104801513671874,0.5905437744140625
-0.21510072265625,-0.2278618408203125,0.68762158203125
-0.05948822265625,-0.222469853515625,0.82918314453125
-0.12610982421875,-0.20751934326171875,1.1489254931640625
-0.378250703125,-0.1513936572265625,1.3475049072265626
-0.28123603515625,-0.19967645263671874,1.4664559423828125
-0.3072525,-0.06928839599609375,1.4374554833984374
-0.374360390625,-0.10556176513671875,1.247477900390625
-0.268349375,-0.09845414550781251,1.111814736328125
-0.3194097265625,-0.0621807763671875,1.1626884228515626
-0.314060546875,-0.08693489990234375,1.056271484375
-0.1560166015625,-0.139139140625,0.934862783203125
-0.26251390625,-0.17639287109375001,0.912252255859375
-0.22579908203125,-0.2347243701171875,0.9370746826171875
-0.3787369921875,-0.31241800537109377,1.0142453955078126
