ax,ay,az
-0.218747890625,-0.16536380615234375,1.1209081005859376
-0.424934453125,-0.10972830078125,1.192426181640625
-0.45192349609375,-0.048455717773437504,1.2253589062499999
-0.380195859375,-0.04428918212890625,1.0014655322265624
-0.2075632421875,-0.04821062744140625,0.861132802734375
-0.2435486328125,-0.01193725830078125,0.94715111328125
-0.220693046875,-0.09820905517578125,0.9936010009765625
-0.14580453125,-0.05997496337890625,0.9542783447265625
-0.17036212890625,-0.153844560546875,1.0216183935546874
-0.3077387890625,-0.14502130859375,0.95108337890625
-0.21996361328125,-0.21952876953125,0.8623616357421875
-0.23819945312500002,-0.1430605859375,1.0108046630859375
-0.43684853515625,-0.0759058349609375,1.1690783544921874
-0.38238416015625,-0.00752563232421875,1.2069264111328124
-0.312115390625,-0.1033559521484375,1.044966220703125
-0.174009296875,0.0544822216796875,0.992863701171875
-0.170118984375,-0.15261910888671876,0.9041419580078125
-0.35952857421875,-0.10311086181640625,0.9193794873046874
-0.2649453515625,-0.1023755908203125,0.8653108349609375
-0.183735078125,-0.208744794921875,0.7173593408203125
-0.12829812499999999,-0.1435507666015625,0.8340984765625
-0.4088869140625,-0.10188541015625,0.8613785693359375
-0.32062544921875,-0.16070708984375,0.7670041943359375
-0.2435486328125,-0.1366882373046875,0.7729025927734375
-0.37898013671874997,-0.186196484375,0.7144101416015625
-0.18397822265625,-0.07713128662109375,0.7512751318359375
-0.14167107421875,-0.16242272216796874,0.914709921875
-0.25838044921875,-0.0259074072265625,1.2025026123046876
-0.352963671875,-0.02517213623046875,1.39346326171875
-0.30141703125,-0.11389483642578124,1.4251671533203125
-0.25157240234375,-0.171491064453125,1.2541135986328125
-0.3106565234375,-0.12418863037109375,0.9596852099609375
-0.1871391015625,-0.2866835205078125,0.6986810791015625
-0.19321771484375,-0.31830017333984373,0.6608330224609374
-0.22677166015625,-0.2915853271484375,0.5649840478515625
-0.144831953125,-0.30555547607421873,0.615366201171875
-0.2561921484375,-0.10752248779296875,0.735300302734375
-0.31235853515625,-0.12933552734375,0.7827332568359375
-0.23212083984375,-0.0239466845703125,0.928964384765625
-0.25546271484375,0.0309535498046875,0.9311762841796875
-0.24476435546875,-0.0121823486328125,0.9857364697265625
-0.32597462890625,-0.0219859619140625,1.0855177099609374
-0.30627992187499997,-0.14575657958984375,0.9980247998046875
-0.1385101953125,-0.12712971435546874,0.8751414990234375
-0.06483740234375,-0.16070708984375,0.8092760498046875
-0.37338781249999997,-0.05850442138671875,0.906845390625
-0.3485870703125,-0.028113220214843748,0.9820499707031249
-0.2075632421875,-0.0759058349609375,0.98942296875
-0.3252451953125,0.03315936279296875,0.992863701171875
-0.3038484765625,-0.14036459228515624,0.9945840673828125
-0.237226875,-0.22467566650390625,1.0624156494140624
-0.31624884765625,-0.15899145751953125,1.0771616455078126
-0.3135742578125,-0.1210024560546875,1.0707717138671875
-0.3612305859375,-0.17026561279296876,0.9567360107421875
-0.2843969140625,-0.09722869384765626,0.868014267578125
-0.174009296875,-0.07762146728515625,0.9031588916015625
-0.3767918359375,-0.13448242431640625,0.981066904296875
-0.2075632421875,-0.13399224365234375,1.0184234277343749
-0.3111428125,-0.1759026904296875,0.978117705078125
-0.237226875,-0.0415931884765625,1.137374462890625
-0.20440236328125,-0.21095060791015624,1.1818582177734376
-0.31138595703125,-0.14526639892578125,1.278936025390625
-0.43782111328125,-0.165608896484375,1.2491982666015624
-0.393811953125,-0.21095060791015624,1.144255927734375
-0.25157240234375,-0.1631579931640625,0.9186421875
-0.27151025390625,-0.20310771728515625,0.823776279296875
-0.2279873828125,-0.1053166748046875,1.028254091796875
-0.24622322265625,-0.17467723876953126,1.214053642578125
-0.4312562109375,-0.11242429443359375,1.1420440283203126
-0.3811684375,0.03561026611328125,0.977134638671875
-0.26616107421875,-0.1033559521484375,0.8019030517578125
-0.284883203125,-0.0955130615234375,0.5954591064453125
-0.19759431640625,-0.03546593017578125,0.526890224609375
-0.304334765625,-0.02615249755859375,0.6387140283203125
-0.27102396484375,-0.142080224609375,0.72891037109375
-0.32111173828125,0.0373258984375,0.8731753662109375
-0.29728357421875,-0.096983603515625,1.00613509765625
-0.3271903515625,-0.12149263671875,0.9940925341796875
-0.2902323828125,0.0255615625,0.9896687353515625
-0.16890326171875,-0.077376376953125,0.95894791015625
-0.26372962890625,0.0162481298828125,1.137374462890625
-0.36536404296875,-0.055073156738281254,1.1754682861328125
-0.333512109375,-0.2121760595703125,1.1784174853515625
-0.31722142578125,-0.1925688330078125,1.0447204541015624
-0.314060546875,-0.1979608203125,0.88816712890625
-0.129270703125,-0.273448642578125,0.734317236328125
-0.23698373046875,-0.230312744140625,0.80755568359375
-0.3203823046875,-0.14036459228515624,1.015474228515625
-0.33229638671875,-0.06683749267578125,1.1361456298828125
-0.24670951171875,-0.022476142578125,1.1626884228515626
-0.273212265625,-0.09526797119140624,0.9906518017578125
-0.25692158203125,-0.183255400390625,0.9233117529296875
-0.1920019921875,-0.0121823486328125,1.0503730859375
-0.2231244921875,-0.179333955078125,1.0481611865234375
-0.2800203125,-0.1033559521484375,1.068559814453125
-0.29971501953125,-0.0798272802734375,1.092153408203125
-0.251815546875,-0.19330410400390624,0.974185439453125
-0.25983931640625,-0.09183670654296874,0.944693447265625
-0.21193984375,-0.052867343750000004,1.0167030615234376
-0.26907880859375,-0.0729647509765625,0.965829375
-0.11638404296875,-0.014633251953124999,1.1558069580078125
-0.2902323828125,-0.0200252392578125,1.277952958984375
-0.31868029296875,-0.0268877685546875,1.256325498046875
-0.3291355078125,-0.02664267822265625,1.1882481494140624
-0.374360390625,-0.04428918212890625,1.1046875048828124
-0.31089966796875,-0.19869609130859375,0.9292101513671875
-0.19953947265625,-0.12614935302734376,0.8694888671875
-0.22434021484375,-0.089140712890625,0.760860029296875
-0.1827625,-0.19281392333984376,0.8262339453125
-0.232363984375,-0.0866898095703125,0.9808211376953125
-0.26713365234374997,0.0037485229492187503,1.1051790380859374
-0.2912049609375,0.02139502685546875,1.2231470068359376
-0.39575710937499997,-0.0631611376953125,1.2428083349609376
-0.2941226953125,-0.00262382568359375,1.2273250390625
-0.26129818359375,0.06600146728515625,1.0975602734375
-0.30506419921875,-0.0999246875,0.9842618701171875
-0.19613544921875,-0.01585870361328125,1.038084755859375
-0.33424154296874997,-0.0268877685546875,0.948625712890625
-0.34226531250000003,-0.107767578125,0.93437125
-0.220693046875,-0.00605509033203125,0.928964384765625
-0.20634751953125,-0.1455114892578125,0.89406552734375
-0.29144810546875,-0.126394443359375,1.0412797216796874
-0.37581925781250003,-0.17075579345703126,0.9857364697265625
-0.2104809765625,-0.013407800292968751,1.0417712548828124
-0.2610550390625,-0.04134809814453125,1.078390478515625
-0.4118046484375,0.0378160791015625,1.109848603515625
-0.3446967578125,-0.013652890625,1.1548238916015625
-0.37533296875,-0.08301345458984374,1.092153408203125
-0.20294349609375,-0.120512275390625,0.945676513671875
-0.1861665234375,-0.1092381201171875,0.8628531689453125
-0.2736985546875,-0.1445311279296875,0.8348357763671875
-0.24087404296875,-0.1249239013671875,0.7355460693359375
-0.221665625,-0.116590830078125,0.6908165478515624
-0.15528716796875,-0.02027032958984375,0.67779091796875
-0.14799283203125,-0.04821062744140625,0.7655295947265625
-0.22336763671875,0.00619942626953125,0.8938197607421875
-0.3242726171875,0.01551285888671875,0.9940925341796875
-0.299471875,0.055952763671875,1.0938737744140625
-0.29752671875000003,0.12384278564453124,1.089204208984375
-0.25497642578125,0.16991976806640624,1.098051806640625
-0.18154677734375,0.07335417724609375,1.1435186279296874
-0.26761994140625,0.03413972412109375,1.262223896484375
-0.31381740234375,0.018699033203125,1.172764853515625
-0.33472783203125,-0.1092381201171875,0.9609140429687499
-0.2104809765625,-0.057278969726562504,0.8800568310546875
-0.22482650390625,-0.17516741943359376,0.7979707861328125
-0.2639727734375,-0.1013952294921875,0.9542783447265625
-0.236254296875,-0.10507158447265624,0.922082919921875
-0.3485870703125,-0.09624833251953124,0.83311541015625
-0.24938410156250002,0.04835496337890625,0.8564632373046875
-0.213885,-0.077376376953125,0.89603166015625
-0.20780638671875,0.0069346972656249995,1.040542421875
-0.2785614453125,0.0603643896484375,1.170798720703125
-0.20245720703125,0.05864875732421875,1.313343349609375
-0.3942982421875,0.12139188232421876,1.28335982421875
-0.40037685546875,-0.0366913818359375,1.1435186279296874
-0.08185751953125,-0.092081796875,1.03661015625
-0.481343984375,-0.0798272802734375,0.914709921875
-0.14580453125,-0.22614620849609374,0.872929599609375
-0.10276794921875,-0.23913599609375,0.733825703125
0.0744844140625,-0.1631579931640625,0.830657744140625
-0.2299325390625,-0.19526482666015624,1.056763017578125
-0.48353228515625,0.0407571630859375,1.2649273291015626
-0.358799140625,-0.0063001806640625,1.332021611328125
-0.3291355078125,-0.04379900146484375,1.3506998730468749
-0.387976484375,0.16893940673828126,1.197341513671875
-0.16890326171875,-0.071494208984375,0.969270107421875
-0.2279873828125,0.0608545703125,0.8572005371093749
-0.2766162890625,-0.0055649096679687505,0.7281730712890625
-0.15966376953125,-0.07811164794921875,0.5576110498046875
-0.092312734375,-0.0994345068359375,0.548517685546875
-0.17692703125,-0.0494360791015625,0.597671005859375
-0.257651015625,-0.04306373046875,0.6593584228515625
-0.21704587890625,0.0682072802734375,0.785436689453125
-0.25692158203125,0.14541073486328124,0.887675595703125
-0.40572603515625,0.1162449853515625,0.9363373828125
-0.37898013671874997,0.20766367919921874,0.9906518017578125
-0.42274615234375,0.16403760009765625,1.0425085546875
-0.24938410156250002,-0.00850599365234375,0.9164302880859375
-0.168173828125,0.0584036669921875,0.705808310546875
-0.08039865234375,0.03659062744140625,0.7704449267578125
-0.109819140625,-0.1435507666015625,0.867031201171875
-0.11225058593750001,-0.20727425292968749,0.9980247998046875
-0.24938410156250002,-0.029338671875,1.110831669921875
-0.3767918359375,-0.16193254150390626,1.140323662109375
-0.36220316406249997,-0.024436865234375,1.061678349609375
-0.33108066406250003,-0.006790361328125,0.9203625537109374
-0.172064140625,-0.07958218994140626,0.9021758251953125
-0.249870390625,0.0201695751953125,1.0560257177734376
-0.18081734375,0.05889384765625,1.167849521484375
-0.24281919921875,0.033404453125,1.2693511279296874
-0.28415376953125,-0.012427438964843749,1.453921845703125
-0.504685859375,-0.0055649096679687505,1.386581796875
-0.4507077734375,0.10717664306640624,1.3052330517578126
-0.3641483203125,-0.11364974609375,0.9916348681640625
-0.27102396484375,-0.07811164794921875,0.718588173828125
-0.1180860546875,-0.10752248779296875,0.578009677734375
-0.06872771484375,-0.20776443359375,0.60701013671875
-0.127325546875,-0.132276611328125,0.74463943359375
-0.29169125,-0.11879664306640625,1.0034316650390624
-0.41302037109375,-0.0327699365234375,1.1683410546875
-0.50687416015625,0.0976181201171875,1.104933271484375
-0.32840607421875,0.1780077490234375,1.0565172509765626
-0.21023783203125002,0.106931552734375,1.1422897949218749
-0.22628537109375,0.0387964404296875,1.207172177734375
-0.20488865234375,0.08609887451171874,1.3076907177734376
-0.3135742578125,7.216796875000007e-05,1.2029941455078126
-0.26470220703125,-0.04698517578125,1.04545775390625
-0.29193439453125003,0.008895419921875,1.1427813281249999
-0.38384302734375,0.0037485229492187503,1.1877566162109374
-0.42760904296875,-0.01732924560546875,0.99630443359375
-0.3301080859375,-0.11830646240234374,0.758893896484375
-0.41739697265625,0.0093856005859375,0.7158847412109375
-0.23917203125,0.04590406005859375,0.627162998046875
-0.18689595703125,-0.042083369140625,0.5438481201171875
-0.0655668359375,-0.0097314453125,0.7149016748046875
-0.14896541015625,0.03512008544921875,0.8461410400390625
-0.36001486328125,-0.11487519775390626,1.0088385302734375
-0.4001337109375,-0.196980458984375,1.0501273193359375
-0.2814791796875,0.02482629150390625,0.9326508837890625
-0.3388612890625,-0.0406128271484375,0.80067421875
-0.1005796484375,-0.06046514404296875,0.971236240234375
-0.1326747265625,0.009140510253906251,1.028745625
-0.12562353515625,-0.0151234326171875,1.057746083984375
-0.28804408203125,-0.04968116943359375,1.1459762939453124
-0.508576171875,0.01747358154296875,1.034152490234375
-0.16452666015625,-0.13595296630859374,0.8603955029296875
0.058193730468749996,-0.0621807763671875,0.843929140625
-0.1443456640625,0.03536517578125,1.0661021484375
-0.32111173828125,-0.0455146337890625,1.092153408203125
-0.21193984375,0.00325834228515625,1.0860092431640624
-0.20148462890625,0.07776580322265625,1.0909245751953125
-0.41302037109375,0.008895419921875,1.2155282421875
-0.37314466796875,0.06453092529296875,1.197341513671875
-0.2211793359375,-0.01487834228515625,0.989914501953125
-0.16452666015625,0.0476196923828125,0.7901062548828125
-0.2192341796875,0.057668395996093746,0.7301392041015625
-0.12440781249999999,-0.09232688720703125,0.7945300537109374
-0.18689595703125,0.0010525292968750002,1.1263149658203124
-0.4030514453125,0.04982550537109375,1.3253859130859376
-0.35320681640625,0.0843832421875,1.4143534228515624
-0.3456693359375,0.0358553564453125,1.1911973486328125
-0.32402947265625,-0.02223105224609375,0.8274627783203125
-0.24038775390625,-0.0175743359375,0.663044921875
-0.13048642578125,0.010611052246093749,0.6608330224609374
-0.21510072265625,-0.08448399658203125,0.67484171875
-0.271267109375,0.011346323242187501,0.83114927734375
-0.03566005859375,-0.09379742919921875,0.9763973388671875
-0.1657423828125,-0.22859711181640624,1.2000449462890626
-0.3252451953125,-0.00262382568359375,1.531584091796875
-0.4837754296875,-0.0455146337890625,1.36790353515625
-0.3612305859375,-0.05997496337890625,1.074458212890625
-0.41885583984375,0.02580665283203125,0.9734481396484375
-0.2250696484375,0.069677822265625,0.992863701171875
-0.1414279296875,-0.045024453125,0.851302138671875
-0.16525609375,0.036345537109375,0.8608870361328125
-0.16112263671875,7.216796875000007e-05,0.83311541015625
-0.3437241796875,-0.08423890625,0.9360916162109375
-0.37460353515625,0.06796218994140625,1.0778989453125
-0.3709563671875,-0.11634573974609375,1.0582376171875
-0.33813185546875,-0.12541408203125,1.04349162109375
-0.2503566796875,-0.0533575244140625,0.9134810888671875
-0.25643529296875,-0.1151202880859375,0.757910830078125
-0.34421046875,-0.10948321044921874,0.6711552197265624
-0.30166017578125,-0.163648173828125,0.597671005859375
-0.300444453125,0.0025230712890624996,0.5694078466796875
-0.1920019921875,0.0799716162109375,0.6623076220703125
-0.1647698046875,0.042227705078125,0.769707626953125
-0.2416034765625,0.026051743164062502,0.8952943603515625
-0.1997826171875,-0.06046514404296875,0.979100771484375
-0.29242068359375,-0.06193568603515625,1.0609410498046874
-0.21899103515625,0.0329142724609375,1.194392314453125
-0.42517759765625,0.00276816162109375,1.2103671435546874
-0.47672423828125,-0.00409436767578125,1.1447474609375
-0.3952708203125,0.0897752294921875,1.0653648486328124
-0.29387955078125,0.010611052246093749,0.9913891015625
-0.24379177734375002,-0.0011532836914062497,0.98254150390625
-0.12124693359375,-0.068553125,1.034152490234375
-0.205131796875,-0.0023787353515625003,1.043983154296875
-0.277102578125,-0.091101435546875,0.9832788037109375
-0.22944625,-0.12516899169921875,1.01989802734375
-0.413263515625,-0.0543378857421875,0.9134810888671875
-0.29922873046875,-0.12173772705078124,0.8485987060546875
-0.0621628125,-0.1719812451171875,0.8171405810546875
-0.2980130078125,-0.20384298828125,0.9065996240234375
-0.39940427734375,-0.09012107421875,1.06511908203125
-0.4001337109375,-0.026397587890625,0.9827872705078124
-0.212912421875,-0.01634888427734375,0.9090572900390625
-0.2722396875,-0.02149578125,0.962388642578125
-0.33229638671875,-0.1464918505859375,1.1297556982421875
-0.1667149609375,-0.08619962890625,1.199307646484375
-0.38043900390625,-0.081297822265625,0.977134638671875
-0.2085358203125,-0.07566074462890625,0.8461410400390625
-0.24938410156250002,-0.21952876953125,0.8412257080078125
-0.29728357421875,-0.0435539111328125,1.0407881884765624
-0.31041337890625,-0.08963089355468751,1.0108046630859375
-0.32694720703125,-0.0935523388671875,1.0132623291015626
-0.27929087890625,-0.067572763671875,0.9075826904296875
-0.24427806640625,-0.204823349609375,0.8928366943359375
-0.17327986328125,-0.20065681396484375,0.9756600390625
-0.16112263671875,-0.02125069091796875,0.9051250244140625
-0.28609892578125,-0.05164189208984375,0.9542783447265625
-0.26470220703125,-0.04036773681640625,0.928964384765625
-0.28318119140625,-0.02076051025390625,0.866048134765625
-0.14750654296875,-0.1023755908203125,0.930438984375
-0.240144609375,-0.09404251953125001,1.0093300634765625
-0.19127255859375,-0.05017135009765625,1.148188193359375
-0.21558701171875,-0.048945898437499996,1.143272861328125
-0.177899609375,0.04002189208984375,1.141306728515625
-0.21558701171875,-0.00605509033203125,1.043983154296875
-0.2143712890625,-0.0004180126953125,1.0329236572265625
-0.16306779296875,0.06673673828125,1.0835515771484374
-0.27929087890625,-0.10286577148437501,0.9744312060546875
-0.23552486328125,0.03708080810546875,1.0137538623046876
-0.12756869140625,0.01012087158203125,1.046932353515625
-0.24768208984375,-0.0641414990234375,1.0697886474609375
-0.24573693359375,0.02433611083984375,1.182595517578125
-0.28391062499999997,-0.00777072265625,1.03366095703125
-0.28074974609375003,-0.09379742919921875,0.842454541015625
-0.19637859375,-0.12909043701171874,0.7556989306640625
-0.33424154296874997,-0.037916833496093746,0.7790467578125
-0.13194529296875,-0.10115013916015625,0.9267524853515625
-0.3651208984375,-0.0288484912109375,1.012525029296875
-0.29339326171875,0.00178780029296875,0.9815584374999999
-0.2649453515625,-0.06659240234375,0.84097994140625
-0.226528515625,-0.00507472900390625,0.9065996240234375
-0.2561921484375,-0.0533575244140625,0.9238032861328125
-0.242089765625,-0.028358310546875,0.9931094677734374
-0.292663828125,0.0231106591796875,1.0149826953125
-0.2824517578125,0.0069346972656249995,0.9400238818359374
-0.21315556640625,-0.0038492773437499997,0.8186151806640625
-0.23819945312500002,0.004973974609375,0.867522734375
-0.2532744140625,0.021640117187500002,1.01203349609375
-0.279047734375,-0.025662316894531252,1.019406494140625
-0.2299325390625,-0.02027032958984375,1.0181776611328126
-0.2552195703125,0.04149243408203125,1.005643564453125
-0.22750109375,-0.050661530761718754,1.0049062646484375
-0.27345541015625,0.0069346972656249995,1.0235845263671874
-0.2722396875,-0.011201987304687501,1.122628466796875
-0.252788125,-0.0023787353515625003,1.0525849853515625
-0.234309140625,-0.055808427734375,0.93142205078125
-0.2722396875,-0.038161923828125,0.8984893261718749
-0.162338359375,-0.01169216796875,0.8785822314453124
-0.17182099609375,-0.03889719482421875,0.864082001953125
-0.2299325390625,-0.0710040283203125,0.9002096923828125
-0.19808060546875,0.0848734228515625,0.97860923828125
-0.13729447265625,0.03462990478515625,0.9685328076171875
-0.2814791796875,-0.0028689160156250004,0.970253173828125
-0.177899609375,0.04590406005859375,1.121645400390625
-0.23163455078125,0.03757098876953125,1.1189419677734376
-0.172064140625,-0.07860182861328124,1.0948568408203125
-0.20099833984375,-0.04821062744140625,1.0747039794921875
-0.27102396484375,-0.0847290869140625,1.074458212890625
-0.187625390625,-0.02860340087890625,1.0786362451171876
-0.32159802734375,-0.04306373046875,1.05332228515625
-0.20975154296875,0.01845394287109375,1.01989802734375
-0.240144609375,-0.024436865234375,0.9410069482421874
-0.15869119140625,-0.01928996826171875,0.9798380712890625
-0.1813036328125,-0.134237333984375,0.8889044287109376
-0.11784291015625001,-0.060710234375,0.869980400390625
-0.15869119140625,-0.0798272802734375,0.8333611767578125
-0.25473328125,-0.0337502978515625,0.9990078662109375
-0.327676640625,0.04786478271484375,1.0348897900390626
-0.34299474609375,-0.0011532836914062497,1.0427543212890624
-0.1205175,0.0682072802734375,0.9931094677734374
-0.2707808203125,-0.01634888427734375,0.935845849609375
-0.2177753125,0.09296140380859375,1.0909245751953125
-0.18738224609375,-0.0006631030273437505,1.0103131298828125
-0.288773515625,-0.02762303955078125,0.97664310546875
-0.24233291015625,0.103010107421875,0.9763973388671875
-0.27515742187500003,0.0162481298828125,0.9272440185546875
-0.2639727734375,0.0633054736328125,0.8618701025390625
-0.20464550781250002,0.08119706787109375,0.82328474609375
-0.21753216796875,0.0682072802734375,0.8712092333984375
-0.2221519140625,0.05423713134765625,0.9046334912109375
-0.28998923828125,0.06453092529296875,0.8898874951171875
-0.16744439453124998,0.01894412353515625,0.96681244140625
-0.2566784375,-0.0347306591796875,0.9562444775390625
-0.38627447265625,0.0280124658203125,0.93437125
-0.18786853515625002,0.02335574951171875,0.8997181591796874
-0.1939471484375,0.00717978759765625,0.8584293701171875
-0.18738224609375,0.019679394531249998,0.8431918408203125
-0.16452666015625,-0.02958376220703125,0.8874298291015625
-0.1453182421875,0.016738310546875,0.9886856689453125
-0.36633662109375,0.0069346972656249995,0.9798380712890625
-0.2566784375,0.04394333740234375,0.9282270849609375
-0.1842213671875,0.067717099609375,0.8530225048828125
-0.25157240234375,0.02335574951171875,0.8009199853515625
-0.185680234375,-0.06340622802734375,0.8795652978515625
-0.27831830078124997,0.0255615625,0.9395323486328125
-0.2085358203125,-0.08203309326171875,0.887675595703125
-0.19953947265625,-0.046249904785156254,0.852285205078125
-0.25497642578125,-0.03252484619140625,0.92945591796875
-0.2260422265625,-0.0881603515625,1.0245675927734375
-0.3583128515625,0.0280124658203125,1.0982975732421876
-0.255705859375,0.040266982421875,1.0855177099609374
-0.2347954296875,0.04198261474609375,0.8790737646484375
-0.19467658203125,-0.0063001806640625,0.761843095703125
-0.20488865234375,0.00399361328125,0.8422087744140625
-0.26251390625,-0.02958376220703125,0.882760263671875
-0.27637314453125,-0.10311086181640625,0.97074470703125
-0.26421591796875,-0.0190448779296875,1.04152548828125
-0.36098744140625,-0.06659240234375,1.0457035205078125
-0.2688356640625,0.03953171142578125,0.990897568359375
-0.220693046875,0.04712951171875,0.9208540869140625
-0.1861665234375,0.03904153076171875,0.9611598095703124
-0.32548833984375003,-0.05899460205078125,1.012525029296875
-0.20415921875,0.052031318359375,1.0110504296875
-0.30530734375,0.06673673828125,0.92355751953125
-0.34542619140624997,0.0613447509765625,0.9965502001953125
-0.226528515625,-0.0259074072265625,1.0179318945312499
-0.222638203125,-0.06267095703125,1.0191607275390624
-0.30506419921875,-0.018554697265625,0.9749227392578125
-0.18203306640625,0.030463369140625002,0.9498545458984375
-0.3135742578125,-0.046004814453125,0.887675595703125
-0.35174794921875,0.030708459472656248,1.0189149609375
-0.16841697265625,-0.0847290869140625,1.1179589013671876
-0.4059691796875,-0.09918941650390625,1.1164843017578125
-0.3694975,-0.068553125,1.0265337255859375
-0.21121041015625,-0.1710008837890625,0.8775991650390624
-0.2824517578125,-0.10580685546875,0.8245135791015625
-0.32281375,-0.02860340087890625,0.8402426416015625
-0.15236943359375,-0.0749254736328125,0.8500733056640625
-0.294608984375,0.0564429443359375,0.930930517578125
-0.32694720703125,0.030463369140625002,0.9931094677734374
-0.20634751953125,-0.006790361328125,1.0425085546875
-0.21023783203125002,-0.05899460205078125,1.0304659912109375
-0.300444453125,0.00276816162109375,1.0395593554687501
-0.25983931640625,-0.05458297607421875,1.048406953125
-0.333512109375,-0.17859868408203125,1.0997721728515626
-0.36828177734375,-0.108747939453125,1.15556119140625
-0.421044140625,-0.08154291259765625,1.0815854443359374
-0.35320681640625,-0.104826494140625,0.9277355517578125
-0.21558701171875,-0.1033559521484375,0.882760263671875
-0.30555048828125,-0.1180613720703125,0.8928366943359375
-0.25546271484375,-0.0254172265625,0.8972604931640625
-0.20488865234375,-0.0161037939453125,0.894557060546875
-0.27807515625,-0.06536695068359374,0.8402426416015625
-0.21558701171875,-0.0210056005859375,1.016948828125
-0.2202067578125,-0.1430605859375,1.0560257177734376
-0.29290697265625,-0.11561046875,1.0633987158203124
-0.30652306640625,-0.138158779296875,1.1046875048828124
-0.3194097265625,-0.03938737548828125,1.1268064990234374
-0.34810078125,-0.12173772705078124,1.0437373876953124
-0.28391062499999997,-0.13056097900390626,1.0661021484375
-0.393811953125,-0.05115171142578125,1.0329236572265625
-0.2075632421875,-0.11193411376953125,1.0393135888671874
-0.24695265625,-0.1102184814453125,0.9867195361328125
-0.2182616015625,-0.07860182861328124,0.986965302734375
-0.17911533203125,-0.1259042626953125,0.9631259423828125
-0.22093619140625,-0.08963089355468751,1.03169482421875
-0.28634207031250003,-0.0337502978515625,0.9709904736328125
-0.27540056640625,-0.15408965087890625,0.92945591796875
-0.24865466796875,-0.08056255126953125,0.986965302734375
-0.29582470703125,-0.09183670654296874,0.980083837890625
-0.279047734375,-0.09526797119140624,1.039067822265625
-0.34348103515625,-0.12173772705078124,1.0503730859375
-0.269321953125,-0.0729647509765625,1.123611533203125
-0.26251390625,-0.16683434814453124,1.1803836181640626
-0.3096839453125,-0.18399067138671876,1.14671359375
-0.224583359375,-0.17173615478515625,0.9449392138671875
-0.17960162109375,-0.154824921875,0.831640810546875
-0.2036729296875,-0.16732452880859375,0.8537598046875
-0.1788721875,-0.16070708984375,0.943710380859375
-0.2377131640625,-0.067572763671875,0.9704989404296875
-0.2279873828125,-0.02321141357421875,0.87931953125
-0.1813036328125,-0.050661530761718754,0.8240220458984375
-0.20294349609375,-0.222469853515625,0.7987080859375
-0.1744955859375,-0.11830646240234374,0.9842618701171875
-0.22701480468750002,-0.132276611328125,1.0759328125
-0.31697828125,-0.2396261767578125,1.181612451171875
-0.3583128515625,-0.10188541015625,1.1091113037109375
-0.249870390625,-0.2337440087890625,0.9257694189453125
-0.1633109375,-0.10262068115234375,0.875387265625
-0.20926525390625,-0.0562986083984375,0.9439561474609375
-0.34396732421875,-0.079337099609375,1.02579642578125
-0.31576255859375,-0.0543378857421875,0.9916348681640625
-0.24816837890625,0.00178780029296875,0.954032578125
-0.24938410156250002,-0.011201987304687501,0.8299204443359375
-0.2333365625,-0.0411030078125,0.7989538525390625
-0.1180860546875,-0.069533486328125,0.819844013671875
-0.26713365234374997,-0.11487519775390626,0.804114951171875
-0.27199654296875,-0.0729647509765625,0.992863701171875
-0.27515742187500003,-0.0960032421875,1.035135556640625
-0.2878009375,-0.157766005859375,1.0806023779296874
-0.2892598046875,-0.0739451123046875,1.0481611865234375
-0.2785614453125,-0.15163874755859374,0.978117705078125
-0.24622322265625,-0.085219267578125,0.93142205078125
-0.32086859375,-0.14502130859375,0.7689703271484375
-0.1676875390625,-0.05654369873046875,0.720554306640625
-0.18786853515625002,-0.0097314453125,0.7846993896484376
-0.2484115234375,-0.07051384765625,0.8962774267578125
-0.05802935546875,-0.06732767333984375,1.04939001953125
-0.27199654296875,-0.04183827880859375,1.145238994140625
-0.21972046875,0.0074248779296875,1.1961126806640625
-0.22385392578125,-0.10580685546875,1.1430270947265626
-0.3339983984375,-0.046249904785156254,1.043983154296875
-0.32500205078125,-0.10703230712890625,0.98843990234375
-0.24695265625,-0.21536223388671874,0.9324051171875
-0.24184662109375,-0.193059013671875,0.8304119775390625
-0.32646091796875,-0.228352021484375,0.7920723876953125
-0.195406015625,-0.21732295654296874,0.7355460693359375
-0.0621628125,-0.13938423095703126,0.7252238720703125
-0.18154677734375,-0.0268877685546875,0.76036849609375
-0.13802390625,-0.16144236083984376,0.924049052734375
-0.2668905078125,-0.173451787109375,0.93732044921875
-0.11638404296875,-0.01634888427734375,0.7778179248046875
-0.07018658203125,-0.10409122314453124,0.805098017578125
-0.1910294140625,-0.0327699365234375,0.895540126953125
-0.27199654296875,-0.06438658935546875,1.0530765185546875
-0.34032015625,-0.07909200927734375,1.126560732421875
-0.3524773828125,-0.01438816162109375,1.1132893359375
-0.31478998046875,-0.06977857666015624,0.9601767431640625
-0.277102578125,0.0486000537109375,0.9363373828125
-0.29752671875000003,0.055462583007812497,0.850319072265625
-0.14750654296875,-0.0043394580078125,0.906353857421875
-0.2591098828125,-0.0317895751953125,0.9134810888671875
-0.18251935546875,0.0397768017578125,0.932896650390625
-0.27418484375,0.0211499365234375,0.8712092333984375
-0.18738224609375,-0.00948635498046875,1.052830751953125
-0.33108066406250003,-0.07762146728515625,1.096085673828125
-0.3991611328125,-0.08963089355468751,1.066593681640625
-0.22434021484375,0.04247279541015625,1.0417712548828124
-0.2931501171875,-0.09183670654296874,0.9326508837890625
-0.26372962890625,-0.0974737841796875,0.9567360107421875
-0.24573693359375,-0.1847259423828125,1.0004824658203124
-0.403537734375,-0.2141367822265625,0.9675497412109375
-0.12756869140625,-0.06144550537109375,0.8279543115234375
-0.020828242187500002,-0.134237333984375,0.77806369140625
-0.213885,-0.09012107421875,1.012525029296875
-0.26761994140625,-0.13350206298828124,1.24600330078125
-0.19078626953125,-0.16070708984375,1.31186875
-0.34810078125,-0.05482806640625,1.26369849609375
-0.41788326171875,-0.0553182470703125,1.0742124462890625
-0.39551396484375,-0.13938423095703126,0.831640810546875
-0.18592337890625,-0.013407800292968751,0.8205813134765625
-0.34810078125,-0.18006922607421874,0.8343442431640625
-0.36828177734375,-0.21340151123046874,0.9188879541015624
-0.1696326953125,-0.1317864306640625,0.96288017578125
-0.25157240234375,-0.140119501953125,0.8989808593749999
-0.36585033203125,-0.1455114892578125,0.8358188427734374
-0.240144609375,-0.12860025634765626,0.7974792529296875
-0.1015522265625,-0.0464949951171875,0.8839890966796875
-0.37168580078125,0.022620478515625,0.9105318896484375
-0.11468203125,0.02041466552734375,0.8930824609375
-0.345183046875,-0.17835359375,0.7741314257812499
-0.1307295703125,-0.18546121337890625,0.8360646093749999
-0.29752671875000003,-0.07811164794921875,1.0806023779296874
-0.33959072265625,-0.1347275146484375,1.3342335107421874
-0.43830740234375,-0.045024453125,1.411649990234375
-0.33861814453125,0.07041309326171875,1.2973685205078125
-0.24816837890625,-0.18546121337890625,1.034152490234375
-0.19808060546875,-0.12565917236328125,1.0071181640625
-0.170118984375,-0.1210024560546875,0.9724650732421874
-0.27637314453125,-0.20310771728515625,0.8616243359375
-0.1827625,-0.1665892578125,0.839505341796875
-0.13194529296875,-0.16242272216796874,0.8313950439453125
-0.1949197265625,-0.224430576171875,1.00220283203125
-0.3291355078125,-0.2768799072265625,1.16342572265625
-0.25011353515625,-0.159726728515625,1.23224037109375
-0.29679728515625,-0.15114856689453124,1.1582646240234376
-0.368524921875,-0.2631548486328125,1.1164843017578125
-0.33667298828125003,-0.06487677001953125,1.1041959716796874
-0.21461443359375,-0.09404251953125001,1.032186357421875
-0.3057936328125,-0.055808427734375,1.0619241162109374
-0.2114535546875,-0.01683906494140625,1.175714052734375
-0.34810078125,-0.02468195556640625,1.1272980322265624
-0.242089765625,-0.15163874755859374,1.11525546875
-0.22385392578125,-0.15507001220703126,1.0412797216796874
-0.3019033203125,-0.18448085205078124,0.9188879541015624
-0.119544921875,-0.19379428466796875,0.843437607421875
-0.26227076171875,-0.19183356201171875,0.845403740234375
-0.3592854296875,-0.11879664306640625,0.9405154150390624
-0.376305546875,-0.14771730224609375,1.0221099267578124
-0.255705859375,-0.23791054443359375,0.9599309765625
-0.20683380859375,-0.1195319140625,0.909303056640625
-0.17327986328125,-0.1013952294921875,0.9395323486328125
-0.2411171875,-0.076396015625,1.1046875048828124
-0.26907880859375,-0.01683906494140625,1.1931634814453125
-0.3067662109375,0.011346323242187501,1.1961126806640625
-0.2853694921875,-0.075415654296875,1.2167570751953125
-0.2766162890625,-0.1665892578125,1.133442197265625
-0.20148462890625,-0.170510703125,1.0579918505859376
-0.2454937890625,-0.2357047314453125,0.93142205078125
-0.25789416015625,-0.21242114990234376,0.8653108349609375
-0.23017568359375,-0.30604565673828127,0.8461410400390625
-0.2007551953125,-0.1464918505859375,1.010558896484375
-0.21583015625000002,-0.1866866650390625,1.0884669091796875
-0.210967265625,-0.236194912109375,1.119679267578125
-0.16914640625,-0.15507001220703126,1.1204165673828126
-0.2513292578125,-0.12909043701171874,1.0771616455078126
-0.3301080859375,-0.1935491943359375,1.0031858984375
-0.31576255859375,-0.21095060791015624,0.9009469921875
-0.2659179296875,-0.20849970458984374,0.7615973291015625
-0.1939471484375,-0.22418548583984374,0.7031048779296875
-0.17571130859375,-0.2504101513671875,0.6401886279296874
-0.08623412109375,-0.23055783447265624,0.6303579638671875
-0.06410796875,-0.20727425292968749,0.784453623046875
-0.20804953125,-0.1308060693359375,0.991880634765625
-0.2630001953125,-0.05801424072265625,1.1174673681640626
-0.24038775390625,-0.087179990234375,1.202256845703125
-0.1589343359375,-0.1229631787109375,1.095102607421875
-0.27807515625,-0.06781785400390625,1.0383305224609374
-0.29776986328125,-0.11144393310546875,1.0486527197265625
-0.40183572265625,-0.04698517578125,1.006626630859375
-0.3456693359375,0.03806116943359375,0.900455458984375
-0.18251935546875,-0.04330882080078125,0.8205813134765625
-0.1633109375,-0.151883837890625,0.7974792529296875
-0.1754681640625,-0.15678564453125,0.8136998486328125
-0.16647181640625,-0.1572758251953125,0.868997333984375
-0.18543708984375,-0.2964871337890625,0.8893959619140624
-0.27637314453125,-0.29134023681640625,0.950591845703125
-0.25935302734375,-0.232273466796875,0.95698177734375
-0.2566784375,-0.2494297900390625,0.739232568359375
-0.21510072265625,-0.21193096923828125,0.556382216796875
-0.092312734375,-0.21732295654296874,0.5236952587890625
-0.1005796484375,-0.1004148681640625,0.718096640625
-0.2124261328125,-0.0749254736328125,1.016457294921875
-0.30117388671875,-0.18497103271484375,1.2290454052734374
-0.315033125,-0.00703545166015625,1.30695341796875
-0.2581373046875,-0.1935491943359375,1.1066536376953124
-0.23892888671875,-0.083258544921875,1.0009739990234374
-0.3135742578125,-0.08644471923828125,1.0506188525390625
-0.26129818359375,-0.24134180908203126,1.1110774365234375
-0.347128203125,-0.3033496630859375,0.930930517578125
-0.16306779296875,-0.16879507080078124,0.606518603515625
-0.0762651953125,-0.2092349755859375,0.4160494873046875
-0.02787943359375,-0.21438187255859376,0.3752522314453125
-0.072861171875,-0.2445279833984375,0.37230303222656247
-0.22336763671875,-0.28006608154296875,0.6505108251953124
-0.10860341796875,-0.3180550830078125,0.7866655224609375
-0.2805066015625,-0.04870080810546875,1.1720275537109375
-0.4701593359375,0.18021356201171876,1.39837859375
-0.34785763671875003,-0.047965537109375,1.12017080078125
-0.37752126953125,0.08707923583984375,1.2452660009765626
-0.36439146484375,0.25276030029296875,1.1644087890625
-0.21315556640625,-0.0729647509765625,1.126560732421875
-0.19370400390625,0.01183650390625,1.11525546875
-0.1764407421875,0.0819323388671875,1.212087509765625
-0.27296912109375,-0.21536223388671874,1.2430541015625
-0.38481560546875,-0.04698517578125,1.2565712646484375
-0.33667298828125003,-0.0955130615234375,1.0786362451171876
-0.34931650390625,-0.1729616064453125,1.1680952880859374
-0.50103869140625,-0.167569619140625,1.2745122265625
-0.42201671875,-0.264625390625,1.2767241259765625
-0.37606240234375,-0.1102184814453125,1.1420440283203126
-0.24038775390625,0.080461796875,0.8957858935546875
-0.17911533203125,0.09590248779296875,0.8576920703124999
-0.12708240234375,-0.29795767578125,0.9508376123046876
0.001541054687499998,0.1235976953125,1.06806828125
-0.14167107421875,-0.25212578369140626,0.86457353515625
-0.156502890625,-0.3469757421875,1.0176861279296876
-0.10690140625,-0.4129050415039063,0.9886856689453125
-0.1803310546875,-0.5099608129882812,1.048406953125
-0.366579765625,-0.5178037036132812,0.947642646484375
-0.34032015625,-0.41829702880859376,0.6052897705078125
-0.36050115234375,-0.3864352856445312,0.5568737500000001
-0.41982841796875,-0.42736537109375,0.606518603515625
-0.331566953125,-0.485206689453125,0.8245135791015625
-0.1988100390625,-0.12418863037109375,0.9626344091796875
-0.066053125,-0.076396015625,1.099034873046875
0.037526445312500004,-0.18153976806640626,1.09657720703125
-0.2075632421875,-0.15654055419921875,1.2958939208984375
-0.28658521484375,-0.14085477294921875,1.316292548828125
-0.39648654296875,-0.21193096923828125,1.0476696533203125
-0.34007701171875,-0.025662316894531252,0.757419296875
-0.38967849609375,0.03144373046875,0.59324720703125
-0.1385101953125,0.08217742919921875,0.777080625
-0.36341888671875,0.10570610107421875,1.036118623046875
-0.382141015625,0.06894255126953125,1.1081282373046875
-0.080641796875,-0.02149578125,1.2408422021484375
-0.45411179687500003,0.1544790771484375,1.495210634765625
-0.73202599609375,0.073599267578125,1.239613369140625
-0.226528515625,-0.02125069091796875,0.995812900390625
0.10828150390624999,-0.12320826904296875,0.9193794873046874
0.11168552734375001,0.016738310546875,1.1290183984375
0.10779521484375,-0.096983603515625,1.2383845361328125
-0.2104809765625,-0.34378956787109377,1.24108796875
-0.38043900390625,-0.08840544189453126,1.3022838525390625
-0.52583943359375,-0.26536066162109373,1.0919076416015625
-0.378250703125,-0.27442900390625,1.0267794921875
-0.1477496875,-0.36290661376953126,0.9926179345703126
-0.298499296875,-0.1161006494140625,1.1621968896484376
-0.421044140625,-0.2915853271484375,1.1499085595703125
-0.22239505859375,-0.39182727294921876,1.0943653076171875
-0.2513292578125,-0.11046357177734376,1.1145181689453125
-0.430769921875,-0.23300873779296874,1.0280083251953125
-0.0932853125,-0.146001669921875,0.974185439453125
-0.030067734375000002,-0.13056097900390626,0.8223016796875
-0.060947089843749996,-0.11364974609375,0.840488408203125
-0.1910294140625,-0.07615092529296875,0.778555224609375
-0.164283515625,-0.1994313623046875,0.702859111328125
-0.15358515625,-0.21952876953125,0.66796025390625
0.0433619140625,-0.2445279833984375,0.81148794921875
0.1464551953125,-0.26830174560546877,1.2290454052734374
-0.397702265625,-0.45555075927734373,1.703620712890625
-0.84217046875,-0.2621744873046875,1.5952376416015626
-0.50492900390625,-0.220509130859375,1.3278435791015626
-0.12416466796875,-0.1788437744140625,1.27254609375
0.06013888671875,-0.191098291015625,1.4359808837890624
-0.31381740234375,0.05276658935546875,1.5994156738281249
-0.4682141796875,-0.029338671875,1.3352165771484374
-0.59926908203125,0.0020328906249999995,0.858183603515625
-0.36196001953125,-0.20972515625,0.5802215771484375
0.07132353515625,-0.25849813232421875,0.42612591796875
0.1192230078125,-0.20114699462890626,0.521974892578125
0.055519140625,-0.2964871337890625,0.7576650634765625
-0.23163455078125,-0.43104172607421876,0.9990078662109375
-0.61142630859375,-0.238155634765625,1.1209081005859376
-0.607779140625,-0.08840544189453126,1.2393676025390625
-0.37581925781250003,-0.05262225341796875,1.194392314453125
-0.29752671875000003,0.10987263671875,0.91372685546875
-0.14702025390625,0.02678701416015625,0.7846993896484376
-0.1725504296875,-0.14894275390625,0.637976728515625
-0.2532744140625,-0.1141399267578125,0.7301392041015625
-0.1827625,-0.13840386962890625,0.697943779296875
-0.0587587890625,-0.1298257080078125,0.6677144873046875
-0.05657048828125,-0.2082546142578125,0.7751144921875
-0.09206958984375,-0.112669384765625,0.8778449316406249
-0.203186640625,-0.087179990234375,0.917167587890625
-0.2999581640625,-0.02076051025390625,0.8633447021484375
-0.3767918359375,-0.013162709960937501,0.75053783203125
-0.26518849609375,-0.106787216796875,0.7517666650390625
-0.244034921875,-0.12860025634765626,0.8105048828125
-0.31187224609374997,-0.1979608203125,0.883251796875
-0.24306234375,-0.0945327001953125,0.901438525390625
-0.2095083984375,-0.089140712890625,0.8284458447265625
-0.21704587890625,-0.11364974609375,0.7792925244140625
-0.17571130859375,-0.0876701708984375,0.896523193359375
-0.1346198828125,-0.0857094482421875,0.9547698779296875
-0.125380390625,-0.12541408203125,0.9921264013671875
-0.22044990234375,-0.11634573974609375,0.9444476806640625
-0.26081189453125,-0.04330882080078125,0.9272440185546875
-0.3194097265625,0.0044837939453125,0.9100403564453124
-0.2211793359375,-0.06536695068359374,0.8019030517578125
-0.1754681640625,0.04296297607421875,0.874895732421875
-0.23114826171875,-0.04821062744140625,0.9820499707031249
-0.3033621875,-0.1474722119140625,1.05135615234375
-0.339347578125,0.00570924560546875,1.1769428857421875
-0.2630001953125,-0.1004148681640625,1.0260421923828125
-0.15358515625,-0.14722712158203125,0.951574912109375
-0.18227621093750002,-0.060710234375,1.072000546875
-0.3485870703125,-0.0915916162109375,1.0923991748046875
-0.15869119140625,-0.0602200537109375,1.121645400390625
-0.140941640625,-0.12075736572265625,0.9523122119140625
-0.21412814453125,-0.15065838623046876,0.7930554541015625
-0.12173322265625,-0.11364974609375,0.7935469873046875
-0.24816837890625,-0.17516741943359376,0.761843095703125
-0.2255559375,-0.0798272802734375,0.814928681640625
-0.22750109375,-0.10458140380859375,0.8778449316406249
-0.32208431640625,-0.09575815185546875,0.995812900390625
-0.273212265625,0.03512008544921875,1.0594664501953126
-0.27053767578125,-0.09967959716796874,0.9587021435546875
-0.2133987109375,-0.01046671630859375,0.9449392138671875
-0.1166271875,-0.030319033203124998,0.9363373828125
-0.1477496875,-0.024436865234375,0.97860923828125
-0.10544253906250001,-0.0567887890625,0.9940925341796875
-0.15139685546875,-0.14428603759765624,0.996795966796875
-0.20683380859375,-0.0055649096679687505,1.168832587890625
-0.32694720703125,-0.06291604736328126,1.1464678271484374
-0.26324333984375,0.0451687890625,1.1823497509765626
-0.3738741015625,-0.0455146337890625,1.06315294921875
-0.3408064453125,-0.07370002197265625,1.04349162109375
-0.30700935546875,0.03904153076171875,0.9847534033203125
-0.2406308984375,-0.0347306591796875,0.9405154150390624
-0.23892888671875,0.0584036669921875,1.0211268603515624
-0.30166017578125,0.01159141357421875,1.107882470703125
-0.18738224609375,0.0765403515625,1.0936280078125
-0.2036729296875,0.04100225341796875,0.8879213623046875
-0.2386857421875,-0.02321141357421875,0.8387680419921875
-0.13826705078125,-0.08546435791015625,0.89013326171875
-0.19321771484375,-0.12026718505859375,1.0550426513671876
-0.2746711328125,-0.1602169091796875,1.0597122167968749
-0.25205869140625,-0.1141399267578125,1.10837400390625
-0.40232201171875,-0.1719812451171875,1.104933271484375
-0.26154132812499997,-0.07075893798828126,1.080356611328125
-0.17619759765625,-0.05850442138671875,1.023338759765625
-0.30652306640625,-0.17222633544921875,0.9321593505859375
-0.26251390625,-0.08595453857421875,0.9238032861328125
-0.24476435546875,-0.040122646484374996,0.8653108349609375
-0.1025248046875,-0.19600009765625,0.90389619140625
-0.09985021484375001,-0.22026404052734375,1.0501273193359375
-0.15188314453125001,-0.09722869384765626,1.1685868212890624
-0.3038484765625,-0.13448242431640625,0.8997181591796874
-0.2775888671875,0.0593840283203125,0.8294289111328125
-0.199296328125,0.1417343798828125,0.84097994140625
-0.1589343359375,0.06158984130859375,0.9567360107421875
-0.22823052734375,-0.046004814453125,1.1250861328125
-0.279047734375,-0.008996174316406251,1.215036708984375
-0.3291355078125,-0.0028689160156250004,1.3256316796875
-0.3456693359375,-0.08619962890625,1.171781787109375
-0.44730375,0.0012976196289062499,0.9970417333984375
-0.257651015625,0.1025199267578125,1.06118681640625
-0.3500459375,-0.16070708984375,0.9719735400390626
-0.22288134765625,0.05423713134765625,0.8697346337890625
-0.08331638671875,-0.03350520751953125,0.7928096875
-0.11200744140625,-0.0494360791015625,0.8250051123046875
-0.1871391015625,-0.051886982421875,0.8215643798828125
-0.22044990234375,-0.05090662109375,1.0373474560546876
-0.24184662109375,-0.08301345458984374,1.2194605078125
-0.46359443359375,-0.1543347412109375,1.1762055859375
-0.4127772265625,-0.02076051025390625,1.0383305224609374
-0.20245720703125,-0.202862626953125,0.8323781103515625
-0.20342978515625,-0.26977228759765626,0.739232568359375
-0.27977716796875,-0.2298225634765625,0.6915538476562499
-0.107873984375,-0.212666240234375,0.6569007568359375
-0.1190586328125,-0.173451787109375,0.8009199853515625
-0.13875333984375,-0.1543347412109375,0.949608779296875
-0.152612578125,-0.0562986083984375,1.0599579833984376
-0.201241484375,0.00619942626953125,1.1958669140625
-0.24670951171875,-0.06659240234375,1.2017653125
-0.24306234375,0.03512008544921875,1.1646545556640624
-0.185680234375,-0.05874951171875,1.0167030615234376
-0.1710915625,-0.2327636474609375,0.921099853515625
-0.23649744140625,-0.087179990234375,1.03562708984375
-0.38457246093749997,-0.10213050048828125,1.1140266357421875
-0.30603677734375,-0.18938265869140625,1.1272980322265624
-0.38384302734375,-0.120512275390625,1.091661875
-0.2474389453125,-0.13644314697265625,0.8363103759765624
-0.25011353515625,-0.1249239013671875,0.6313410302734375
-0.21364185546875,-0.17467723876953126,0.6077474365234374
-0.056084199218750005,-0.13301188232421876,0.71318130859375
-0.14799283203125,-0.13546278564453124,0.8557259375
-0.24306234375,-0.1582561865234375,0.91372685546875
-0.23406599609375,-0.17418705810546875,0.852285205078125
-0.1647698046875,-0.1141399267578125,0.7960046533203124
-0.29485212890625,0.04982550537109375,0.9842618701171875
-0.32475890625,-0.0072805419921875,1.120662333984375
-0.24306234375,-0.00262382568359375,1.1322133642578125
-0.2571647265625,-0.08889562255859375,1.079865078125
-0.2338228515625,-0.05752406005859375,1.2536220654296875
-0.3767918359375,-0.12124754638671875,1.35119140625
-0.33618669921875,0.01404231689453125,1.338903076171875
-0.34153587890625,-0.167569619140625,1.116730068359375
-0.41253408203124997,-0.1886473876953125,0.9380577490234375
-0.20026890625,-0.25457668701171876,0.7040879443359375
-0.1579617578125,-0.25653740966796873,0.48560143554687496
0.022451484375,-0.20948006591796875,0.4841268359375
-0.00891416015625,-0.2200189501953125,0.6859012158203125
-0.19564916015625,-0.14036459228515624,1.0267794921875
-0.35272052734375,-0.16928525146484374,1.3652001025390625
-0.3952708203125,-0.15408965087890625,1.5377282568359374
-0.6121557421875,-0.04134809814453125,1.491278369140625
-0.47769681640625,-0.1116890234375,1.0810939111328124
-0.21558701171875,-0.220509130859375,0.7633176953125
-0.32013916015625,-0.16977543212890625,0.6937657470703125
-0.3320532421875,-0.2151171435546875,0.647807392578125
-0.19078626953125,-0.3111925537109375,0.5467973193359374
-0.16160892578125,-0.26339993896484376,0.521974892578125
-0.060947089843749996,-0.2259011181640625,0.5195172265625
-0.0500055859375,-0.1631579931640625,0.6706636865234374
-0.20975154296875,-0.08154291259765625,0.9990078662109375
-0.465782734375,-0.15703073486328126,1.022355693359375
-0.4409819921875,-0.03644629150390625,0.89603166015625
-0.232363984375,-0.0651218603515625,0.714655908203125
-0.20780638671875,0.08266760986328126,0.7045794775390625
-0.2878009375,0.069677822265625,0.990897568359375
-0.2785614453125,-0.17516741943359376,1.129509931640625
-0.199296328125,0.0012976196289062499,1.1897227490234374
-0.25643529296875,-0.16781470947265625,1.0661021484375
-0.11322316406249999,-0.16879507080078124,1.2275708056640624
-0.22750109375,-0.1366882373046875,1.2516559326171874
-0.36730919921875,-0.20114699462890626,1.19881611328125
-0.3301080859375,-0.17026561279296876,1.0550426513671876
-0.2182616015625,-0.1817848583984375,0.8608870361328125
-0.2177753125,-0.1710008837890625,0.7301392041015625
-0.12829812499999999,-0.20457825927734374,0.8859552294921875
-0.187625390625,-0.1288453466796875,1.1567900244140625
-0.32743349609375,-0.2131564208984375,1.307936484375
-0.1929745703125,-0.17467723876953126,1.35414060546875
-0.18932740234375,-0.0406128271484375,1.3492252734375
-0.4040240234375,-0.218548408203125,1.2541135986328125
-0.40718490234375,-0.24305744140625,1.1504000927734375
-0.22774423828125,-0.34378956787109377,0.9975332666015625
-0.25983931640625,-0.30163403076171874,0.99237216796875
-0.282938046875,-0.2808013525390625,1.07494974609375
-0.30530734375,-0.3239372509765625,0.8918536279296875
-0.21193984375,-0.3200158056640625,0.791335087890625
-0.20926525390625,-0.23202837646484376,0.772656826171875
-0.22750109375,-0.20604880126953126,1.0053977978515625
-0.403537734375,-0.15556019287109374,1.1636714892578124
-0.35806970703125,-0.114630107421875,1.11034013671875
-0.16185207031249998,-0.035711020507812496,1.0579918505859376
-0.3797095703125,-0.13987441162109376,1.05135615234375
-0.27418484375,-0.16462853515625,1.09264494140625
-0.2396583203125,-0.20212735595703124,0.938303515625
-0.33521412109375,-0.19379428466796875,0.812471015625
-0.19710802734375,-0.1822750390625,0.71121517578125
-0.1190586328125,-0.27369373291015625,0.639451328125
-0.13194529296875,-0.22271494384765625,0.8891501953125
-0.2163164453125,-0.1670794384765625,1.0874838427734375
-0.23528171875,-0.1665892578125,1.0973145068359376
-0.20391607421875,-0.1151202880859375,1.2452660009765626
-0.19273142578125,-0.09820905517578125,1.348733740234375
-0.3553951171875,0.05423713134765625,1.3637255029296875
-0.40961634765625,0.004973974609375,1.2600119970703125
-0.37314466796875,-0.093062158203125,1.12606919921875
-0.339347578125,-0.0651218603515625,1.0501273193359375
-0.3417790234375,-0.17247142578125,0.86064126953125
-0.15334201171875,-0.19036302001953126,0.69548611328125
-0.212912421875,-0.2955067724609375,0.561297548828125
-0.17960162109375,-0.3190354443359375,0.54999228515625
-0.1205175,-0.3092318310546875,0.6075016699218749
-0.1944334375,-0.3624164331054687,0.7827332568359375
-0.25935302734375,-0.428345732421875,0.946659580078125
-0.267376796875,-0.30408493408203124,1.1159927685546875
-0.2834243359375,-0.17810850341796874,1.140323662109375
-0.35417939453125,-0.12811007568359375,1.110831669921875
-0.393811953125,-0.079337099609375,1.096085673828125
-0.3155194140625,-0.16193254150390626,0.9926179345703126
-0.2960678515625,-0.18938265869140625,0.9916348681640625
-0.16015005859375,-0.25016506103515623,1.016948828125
-0.19321771484375,-0.3180550830078125,0.979100771484375
-0.3028758984375,-0.26389011962890624,0.9690243408203125
-0.23698373046875,-0.204823349609375,0.859658203125
-0.21996361328125,-0.2406065380859375,0.8014115185546875
-0.24281919921875,-0.24134180908203126,0.805098017578125
-0.27807515625,-0.25359632568359375,0.84786140625
-0.12854126953125,-0.2513905126953125,0.9188879541015624
-0.24379177734375002,-0.1945295556640625,1.0174403613281249
-0.24136033203125,-0.161687451171875,1.0958399072265625
-0.2722396875,-0.13644314697265625,1.0346440234375
-0.33764556640625,-0.1994313623046875,1.066593681640625
-0.3485870703125,-0.1259042626953125,1.1975872802734375
-0.24379177734375002,-0.25016506103515623,1.1631799560546874
-0.37168580078125,-0.1808044970703125,1.0786362451171876
-0.26956509765625,-0.13252170166015625,0.95796484375
-0.21023783203125002,-0.36584769775390624,0.7227662060546876
-0.20804953125,-0.2602137646484375,0.7384952685546875
-0.10568568359375,-0.2249207568359375,0.8712092333984375
-0.30919765625,-0.24477307373046875,1.0319405908203125
-0.321841171875,-0.15163874755859374,1.0638902490234374
-0.1827625,-0.2180582275390625,0.9842618701171875
-0.2425760546875,-0.1582561865234375,1.041033955078125
-0.34421046875,-0.12541408203125,1.05332228515625
-0.31697828125,-0.110708662109375,1.1526119921875
-0.34250845703125,-0.261684306640625,1.0938737744140625
-0.37508982421875,-0.22124440185546876,1.094119541015625
-0.2099946875,-0.18546121337890625,1.19881611328125
-0.36196001953125,-0.26585084228515626,1.079865078125
-0.34007701171875,-0.25261596435546874,0.9193794873046874
-0.14264365234375,-0.2915853271484375,0.802148818359375
-0.2211793359375,-0.25016506103515623,0.8186151806640625
-0.2878009375,-0.21781313720703124,0.887675595703125
-0.07310431640625001,-0.3033496630859375,0.8717007666015625
-0.17084841796875,-0.18840229736328126,0.9051250244140625
-0.347128203125,-0.12369844970703125,0.9301932177734376
-0.2999581640625,-0.20310771728515625,0.8407341748046875
-0.18689595703125,-0.14869766357421876,0.8682600341796876
-0.2085358203125,-0.16095218017578125,1.0759328125
-0.23503857421875,-0.25090033203125,1.303512685546875
-0.4088869140625,-0.22320512451171876,1.301546552734375
-0.35515197265625,-0.21438187255859376,1.0267794921875
-0.33910443359375,-0.25212578369140626,0.8446664404296875
-0.10325423828125,-0.18791211669921876,0.8154202148437499
-0.14410251953125,-0.08423890625,0.9611598095703124
-0.21121041015625,-0.1837455810546875,1.13000146484375
-0.20342978515625,-0.17320669677734374,1.21257904296875
-0.34980279296875,-0.15212892822265625,1.00220283203125
-0.17692703125,-0.22614620849609374,0.8864467626953125
-0.28269490234375,-0.1425704052734375,0.8427003076171875
-0.3894353515625,-0.20776443359375,0.8554801708984375
-0.25789416015625,-0.2523708740234375,0.8535140380859375
-0.29582470703125,-0.2513905126953125,0.8834975634765625
-0.185680234375,-0.24134180908203126,0.949608779296875
-0.2163164453125,-0.24820433837890626,0.9262609521484375
-0.23844259765625,-0.1798241357421875,1.0307117578125
-0.2411171875,-0.22222476318359374,1.197833046875
-0.31576255859375,-0.03056412353515625,1.3519287060546874
-0.35466568359375,-0.15212892822265625,1.1823497509765626
-0.12951384765625001,-0.22663638916015624,0.98647376953125
-0.28901666015625,-0.15408965087890625,1.0584833837890626
-0.4040240234375,-0.3249176123046875,0.9808211376953125
-0.0801555078125,-0.30383984375,0.902421591796875
-0.1949197265625,-0.28888933349609375,0.929947451171875
-0.28585578125,-0.26143921630859374,0.9975332666015625
-0.19516287109375,-0.3170747216796875,1.0820769775390624
-0.33108066406250003,-0.16242272216796874,1.0948568408203125
-0.23941517578125,-0.0494360791015625,1.1096028369140625
-0.28950294921874997,-0.2580079516601563,1.14769666015625
-0.3612305859375,-0.1357078759765625,1.1759598193359375
-0.2668905078125,-0.2013920849609375,1.0112961962890625
-0.2688356640625,-0.202862626953125,0.83704767578125
-0.26324333984375,-0.2758995458984375,0.6618160888671875
-0.19662173828125,-0.37172986572265626,0.6062728369140625
-0.1088465625,-0.16854998046875,0.6084847363281249
-0.1112780078125,-0.07909200927734375,0.7709364599609375
-0.26154132812499997,-0.1680597998046875,0.883251796875
-0.2425760546875,-0.05164189208984375,1.0919076416015625
-0.34299474609375,-0.05311243408203125,1.21454517578125
-0.2805066015625,-0.14526639892578125,1.214053642578125
-0.21461443359375,-0.12516899169921875,1.1408151953125
-0.35977171875,-0.22859711181640624,1.0083469970703125
-0.378250703125,-0.1979608203125,0.82918314453125
-0.21899103515625,-0.27516427490234374,0.650756591796875
0.04117361328125,-0.18252012939453124,0.777572158203125
-0.109819140625,-0.19207865234375,1.1602307568359376
-0.48815203125,-0.20408807861328124,1.3907598291015626
-0.24525064453125,-0.18301031005859375,1.2767241259765625
-0.27783201171875,-0.11095375244140625,1.0088385302734375
-0.2532744140625,-0.122472998046875,0.8304119775390625
-0.10301109375,-0.25090033203125,0.735300302734375
-0.19759431640625,-0.09404251953125001,0.859658203125
-0.28804408203125,-0.22467566650390625,0.8176321142578125
-0.23747001953125,-0.22320512451171876,0.8102591162109375
-0.12319208984375,-0.26389011962890624,0.87637033203125
-0.25205869140625,-0.251880693359375,0.8259881787109375
-0.251815546875,-0.412659951171875,0.829674677734375
-0.15042427734375,-0.2604588549804687,1.1572815576171875
-0.23503857421875,-0.2866835205078125,1.21651130859375
-0.32062544921875,-0.179333955078125,1.2103671435546874
-0.04781728515625,-0.1994313623046875,1.13983212890625
-0.15674603515625,-0.3200158056640625,1.05233921875
-0.2396583203125,-0.11536537841796875,1.26566462890625
-0.23357970703125,-0.151883837890625,1.3848614306640625
-0.4147223828125,-0.1513936572265625,1.3204705810546875
-0.300444453125,-0.0023787353515625003,1.126560732421875
-0.24233291015625,-0.17565760009765624,1.000728232421875
-0.4973915234375,-0.37222004638671874,1.0661021484375
-0.3213548828125,-0.2406065380859375,0.90586232421875
-0.31916658203125,-0.25874322265625,0.65812958984375
-0.201241484375,-0.20800952392578126,0.5836623095703125
-0.1015522265625,-0.06193568603515625,0.5863657421875
-0.1141957421875,0.01894412353515625,0.694994580078125
-0.16185207031249998,-0.06193568603515625,0.89406552734375
-0.34104958984375,-0.068553125,1.0592206835937499
-0.4750222265625,-0.0562986083984375,1.0029401318359374
-0.2970404296875,-0.20065681396484375,0.93338818359375
-0.32159802734375,-0.1543347412109375,0.7960046533203124
-0.3777644140625,-0.11879664306640625,0.7861739892578125
-0.22190876953125,-0.18693175537109374,0.744147900390625
-0.0597313671875,-0.0945327001953125,0.6795112841796875
-0.24136033203125,-0.12663953369140624,0.7709364599609375
-0.15528716796875,-0.21046042724609376,0.7969877197265625
-0.16695810546875,-0.05115171142578125,0.8653108349609375
-0.20099833984375,-0.07664110595703125,1.027271025390625
-0.39794541015625,-0.2058037109375,0.93928658203125
-0.164283515625,-0.046249904785156254,1.02383029296875
-0.3126016796875,-0.0886505322265625,1.0167030615234376
-0.2834243359375,-0.10752248779296875,0.851302138671875
-0.12708240234375,-0.13791368896484374,0.74660556640625
-0.206104375,-0.1249239013671875,0.7212916064453125
-0.22968939453125,-0.027868129882812502,0.816894814453125
-0.30457791015625,-0.1509034765625,0.883251796875
-0.159420625,-0.13791368896484374,0.9402696484374999
-0.27272597656249997,-0.06242586669921875,0.9213456201171875
-0.082586953125,-0.0680629443359375,0.9901602685546875
-0.2698082421875,-0.1876670263671875,0.99630443359375
-0.32840607421875,-0.17026561279296876,1.1272980322265624
-0.197351171875,-0.16242272216796874,1.19291771484375
-0.2941226953125,-0.1352176953125,1.1931634814453125
-0.4011062890625,-0.18448085205078124,0.94125271484375
-0.15869119140625,-0.26658611328125,0.738249501953125
-0.039793515625,-0.1494329345703125,0.840488408203125
-0.1754681640625,-0.13546278564453124,1.083305810546875
-0.2250696484375,-0.2131564208984375,1.22634197265625
-0.2610550390625,-0.16634416748046876,1.27746142578125
-0.298499296875,-0.11095375244140625,1.22830810546875
-0.27515742187500003,-0.16977543212890625,1.086255009765625
-0.07456318359375,-0.3915821826171875,1.040542421875
-0.279047734375,-0.17247142578125,1.2963854541015625
-0.4312562109375,-0.26192939697265627,1.2076637109375
-0.2698082421875,-0.27663481689453123,0.92945591796875
-0.18470765625,-0.1572758251953125,1.013508095703125
-0.46164927734375,-0.21095060791015624,1.158510390625
-0.185680234375,-0.02149578125,1.2044687451171874
-0.1949197265625,-0.06487677001953125,1.1346710302734375
-0.27831830078124997,-0.08595453857421875,1.0093300634765625
-0.23528171875,-0.19624518798828125,0.8766160986328125
-0.2649453515625,-0.212666240234375,0.7758517919921875
-0.18786853515625002,-0.3151139990234375,0.7252238720703125
-0.22701480468750002,-0.15261910888671876,0.906353857421875
-0.2668905078125,-0.136198056640625,1.0179318945312499
-0.26324333984375,-0.0259074072265625,1.14671359375
-0.316005703125,-0.1249239013671875,1.0938737744140625
-0.3320532421875,-0.10556176513671875,1.019406494140625
-0.2523018359375,0.13340130859375,1.0329236572265625
-0.16841697265625,-0.018554697265625,1.1656376220703124
-0.38189787109375,-0.15654055419921875,1.11525546875
-0.1725504296875,-0.15752091552734376,1.0643817822265624
-0.28561263671875,-0.16095218017578125,0.9414984814453125
-0.29582470703125,-0.15065838623046876,0.8554801708984375
-0.2250696484375,-0.29967330810546877,0.7016302783203126
-0.09304216796875,-0.18448085205078124,0.848352939453125
-0.2649453515625,-0.183255400390625,1.023338759765625
-0.2980130078125,-0.14967802490234375,0.9994993994140625
-0.17668388671875,-0.1778634130859375,0.854251337890625
-0.15091056640625,-0.21977385986328124,0.790352021484375
-0.19710802734375,-0.2933009594726563,0.81148794921875
-0.2250696484375,-0.25016506103515623,0.93535431640625
-0.31381740234375,-0.16438344482421874,1.0398051220703124
-0.349073359375,-0.20604880126953126,1.03661015625
-0.26664736328125,-0.15457983154296875,0.9704989404296875
-0.38189787109375,-0.098944326171875,0.87243806640625
-0.14604767578125,-0.038161923828125,0.897506259765625
-0.035173769531249996,-0.13840386962890625,0.9046334912109375
-0.0947441796875,-0.0406128271484375,1.17325638671875
-0.444386015625,-0.0376717431640625,1.271071494140625
-0.3719289453125,0.0466393310546875,1.2555881982421875
-0.28220861328125,-0.05801424072265625,0.990897568359375
-0.3242726171875,-0.10115013916015625,0.8970147265625
-0.14750654296875,-0.026397587890625,0.945676513671875
-0.2970404296875,-0.11046357177734376,1.0496357861328125
-0.27734572265625,-0.19918627197265626,1.1093570703125
-0.127325546875,-0.079337099609375,0.9675497412109375
-0.28123603515625,-0.04134809814453125,0.91077765625
-0.28269490234375,-0.09967959716796874,0.9926179345703126
-0.1881116796875,-0.18423576171875,0.9793465380859375
-0.24695265625,-0.107767578125,1.000728232421875
-0.1871391015625,-0.035711020507812496,1.075441279296875
-0.1521262890625,-0.15065838623046876,0.931913583984375
-0.25011353515625,-0.0038492773437499997,0.86359046875
-0.22044990234375,-0.11585555908203125,0.829674677734375
-0.24695265625,-0.08252327392578125,0.8893959619140624
-0.30798193359375,0.00987578125,0.885709462890625
-0.19856689453125,-0.03938737548828125,0.744147900390625
-0.12465095703125,-0.0371815625,0.7183424072265625
-0.292663828125,-0.0072805419921875,0.7684787939453125
-0.13778076171875,-0.00605509033203125,0.8694888671875
-0.0791829296875,0.05619785400390625,0.95108337890625
-0.19370400390625,0.01575794921875,1.0778989453125
-0.23601115234375,-0.11879664306640625,0.954032578125
-0.10082279296875,-0.191098291015625,0.822793212890625
-0.009643593750000002,-0.16070708984375,0.746114033203125
-0.1287844140625,-0.2004117236328125,0.6834435498046875
-0.125380390625,-0.300898759765625,0.6532142578125
-0.041738671875,-0.1626678125,0.764792294921875
-0.06678255859375,-0.18521612304687501,0.7655295947265625
-0.1346198828125,-0.12761989501953125,0.93928658203125
0.051385683593749995,-0.00360418701171875,1.3295639453125
0.1950841015625,0.0211499365234375,1.7338500048828125
0.021965195312499998,0.4159904614257812,2.129718558349609
-0.40475345703125,0.6142685400390625,2.129718558349609
-0.636956484375,0.5201538525390625,2.0145154638671876
-0.6792636328125,0.3907461572265625,1.531584091796875
-0.57252318359375,0.253985751953125,1.0014655322265624
-0.33570041015625,0.2358490673828125,0.7987080859375
0.088586796875,-0.0376717431640625,0.559331416015625
0.054303417968750003,-0.2082546142578125,0.345022939453125
0.043848203125,-0.15703073486328126,0.3858201953125
-0.0067258593750000005,-0.2259011181640625,0.6834435498046875
-0.037362070312499995,-0.302859482421875,0.9164302880859375
-0.220693046875,-0.514617529296875,1.507990498046875
-0.51270962890625,-0.48888304443359376,2.0017356005859375
-0.4886383203125,0.05080586669921875,1.9515992138671874
-0.629175859375,0.028257556152343752,1.4010820263671875
-0.3913805078125,-0.06095532470703125,1.00613509765625
-0.22871681640625,-0.1582561865234375,0.643875126953125
-0.05948822265625,-0.0768861962890625,0.42391401855468747
-0.007698437500000002,-0.14134495361328125,0.46741470703125
-0.09425789062500001,-0.12173772705078124,0.462990908203125
-0.2450075,-0.03987755615234375,0.5273817578125
-0.115654609375,0.02433611083984375,0.8567090039062499
-0.08283009765625,0.01649322021484375,1.1017383056640626
-0.17473873046875,0.2015364208984375,1.4514641796875
-0.27831830078124997,0.26697553955078124,1.5379740234375001
-0.5965944921875,0.1976149755859375,1.4723543408203126
-0.5119801953125,0.2280061767578125,1.227816572265625
-0.52292169921875,0.14688127685546876,1.0346440234375
-0.522192265625,-0.0268877685546875,0.8576920703124999
-0.1988100390625,0.10399046875,0.712689775390625
-0.1355924609375,0.07433453857421875,0.6623076220703125
-0.037362070312499995,0.12482314697265626,0.6583753564453125
-0.1112780078125,0.142224560546875,0.7114609423828124
-0.057056777343750004,0.12874459228515625,0.765775361328125
0.029259531249999998,0.05717821533203125,0.9321593505859375
0.01880431640625,-0.0504164404296875,1.0481611865234375
-0.13972591796875,0.024581201171875,1.0481611865234375
-0.38238416015625,-0.02272123291015625,0.873912666015625
-0.3972159765625,-0.0935523388671875,0.651739658203125
-0.32354318359375,-0.08350363525390625,0.4558636767578125
-0.28464005859375,-0.0288484912109375,0.407939189453125
-0.1239215234375,-0.00507472900390625,0.628146064453125
0.182926875,-0.00409436767578125,0.9306847509765624
0.06062517578125,0.15692998046875,1.524702626953125
-0.6179912109375,0.09394176513671874,1.7660454296875
-0.49325806640625003,-0.19183356201171875,1.408700791015625
-0.04392697265625,0.05521749267578125,1.20471451171875
-0.047574140625,0.0922261328125,1.121645400390625
-0.0772377734375,-0.00507472900390625,1.233714970703125
-0.2435486328125,0.09198104248046875,1.1597392236328126
-0.28172232421875,0.07923634521484375,0.8215643798828125
-0.32791978515625,-0.12663953369140624,0.507228896484375
-0.11200744140625,-0.2607039453125,0.34551447265625
-0.047087851562500005,-0.2347243701171875,0.4047442236328125
-0.29363640625,-0.0347306591796875,0.539670087890625
-0.3189234375,0.132420947265625,0.68565544921875
-0.23990146484375,0.25104466796875,1.0560257177734376
-0.23917203125,0.48044921875,1.522736494140625
-0.16549923828125,0.39295197021484374,1.2885209228515624
-0.11006228515625,0.2083989501953125,1.17325638671875
0.012968847656250001,-0.17173615478515625,0.98843990234375
0.0934496875,0.04247279541015625,0.99237216796875
-0.06143337890625,0.183399736328125,1.2383845361328125
-0.30749564453125,0.08805959716796875,1.3445557080078125
-0.38384302734375,0.269671533203125,1.3071991845703126
-0.46481015625,0.24442722900390626,1.0857634765625
-0.247925234375,0.1613416064453125,0.8576920703124999
-0.20342978515625,0.19884042724609374,0.8498275390625
-0.00842787109375,0.19589934326171876,0.9208540869140625
0.09466541015625,0.03021827880859375,1.02186416015625
-0.07213173828125,0.067717099609375,1.31186875
-0.29631099609375,-0.0886505322265625,1.4475319140625
-0.32791978515625,-0.1141399267578125,1.3288266455078124
-0.3408064453125,0.081442158203125,1.0432458544921874
-0.22774423828125,0.073599267578125,0.757910830078125
0.0871279296875,0.0319339111328125,0.597671005859375
0.07983359375,-0.01389798095703125,0.6446124267578125
-0.05900193359375,-0.0435539111328125,0.9198710205078124
-0.22725794921875,0.01894412353515625,1.3275978125
-0.62017951171875,0.07065818359375,1.49176990234375
-0.3972159765625,-0.011201987304687501,1.12606919921875
-0.05316646484375,0.1201664306640625,0.9247863525390625
-0.08355953125,0.16477287109375,0.8800568310546875
-0.082586953125,-0.03987755615234375,0.9665666748046875
-0.26616107421875,0.01845394287109375,1.0162115283203126
-0.1569891796875,0.14099910888671874,0.935845849609375
-0.1492085546875,0.14590091552734374,1.010558896484375
-0.20245720703125,0.08634396484375,1.2521474658203124
-0.29242068359375,0.19442880126953124,1.43671818359375
-0.37800755859375,0.128499501953125,1.2049602783203124
-0.29825615234375,0.14982236083984374,0.8579378369140624
-0.255705859375,0.0848734228515625,0.56178908203125
-0.0733474609375,0.0446786083984375,0.43104125
-0.013290761718750002,0.106931552734375,0.4922371337890625
-0.09450103515625,0.14443037353515625,0.7045794775390625
-0.170118984375,0.2015364208984375,0.984999169921875
-0.4147223828125,0.143204921875,1.095102607421875
-0.29776986328125,0.14418528320312501,1.102967138671875
-0.0558410546875,0.07580508056640625,1.005643564453125
-0.09450103515625,0.11158826904296874,0.9788550048828125
-0.058272500000000005,0.22138873779296875,1.1331964306640625
-0.29825615234375,0.09051050048828126,1.0368559228515626
-0.312115390625,0.06845237060546874,0.839996875
-0.27199654296875,0.12237224365234375,0.664519521484375
-0.17960162109375,0.10276501708984374,0.5944760400390625
-0.1501811328125,0.1760470263671875,0.6539515576171875
-0.21218298828125,0.2162418408203125,0.8127167822265625
-0.1540714453125,0.21060476318359375,1.0093300634765625
-0.2279873828125,-0.02125069091796875,1.11623853515625
-0.28269490234375,-0.0229663232421875,0.9469053466796875
-0.1900568359375,0.1123235400390625,0.7955131201171874
-0.174981875,0.01257177490234375,0.6785282177734375
-0.21364185546875,0.1417343798828125,0.7045794775390625
-0.3301080859375,0.1270289599609375,0.824759345703125
-0.27102396484375,0.07678544189453125,0.9439561474609375
-0.26154132812499997,0.17506666503906249,0.9508376123046876
-0.32062544921875,0.19687970458984375,0.8613785693359375
-0.18227621093750002,0.1887917236328125,0.8097675830078125
-0.15066742187499998,0.20619313720703125,0.8009199853515625
-0.08380267578125,0.19810515625,0.761843095703125
-0.12124693359375,0.18658591064453126,0.7394783349609375
-0.12343523437500001,0.195164072265625,0.78002982421875
-0.14629082031250001,0.216732021484375,1.006626630859375
-0.26032560546875,0.14590091552734374,1.148188193359375
-0.2591098828125,0.08903995849609375,1.107882470703125
-0.16720125,0.252025029296875,1.0702801806640625
-0.1073876953125,0.16991976806640624,1.0597122167968749
-0.39648654296875,0.18168410400390625,1.126560732421875
-0.30166017578125,0.22531018310546874,1.27942755859375
-0.36633662109375,0.14418528320312501,1.24600330078125
-0.2581373046875,0.1721255810546875,1.1582646240234376
-0.12124693359375,0.03512008544921875,0.9660751416015625
-0.13024328125,0.08805959716796875,0.9228202197265625
-0.15966376953125,0.0672269189453125,0.89603166015625
-0.189570546875,-0.05311243408203125,0.8567090039062499
-0.1472633984375,0.1015395654296875,0.926998251953125
-0.17522501953125,0.0417375244140625,0.9719735400390626
-0.17814275390625,0.06355056396484375,1.0368559228515626
-0.19078626953125,0.0294830078125,1.06511908203125
-0.24330548828125,-0.04281864013671875,1.1022298388671874
-0.2240970703125,0.07531489990234375,1.2324861376953125
-0.3009307421875,0.03928662109375,1.245511767578125
-0.2882872265625,0.17825283935546876,1.2305200048828124
-0.31989601562500003,0.3054547216796875,1.265173095703125
-0.26227076171875,0.259867919921875,1.1641630224609374
-0.252788125,0.06453092529296875,1.11230626953125
-0.154557734375,0.22359455078125,1.1666206884765624
-0.22385392578125,0.09026541015625,1.093136474609375
-0.1569891796875,0.16550814208984374,1.1341794970703125
-0.09206958984375,0.26844608154296873,1.14376439453125
-0.21169669921875,0.1819291943359375,1.0756870458984376
-0.189570546875,0.1152646240234375,1.057746083984375
-0.17182099609375,-0.01487834228515625,1.1302472314453125
-0.42906791015625,0.02360083984375,1.2103671435546874
-0.2800203125,-0.0719843896484375,1.1400778955078126
-0.24038775390625,-0.01634888427734375,0.9601767431640625
-0.29096181640625,0.04345315673828125,0.8879213623046875
-0.1307295703125,0.1378129345703125,0.9606682763671874
-0.2143712890625,0.21599675048828126,0.886692529296875
-0.16355408203125,0.14884199951171875,1.012525029296875
-0.038577792968749997,0.15080272216796875,1.19881611328125
-0.15358515625,0.02678701416015625,1.2332234375
-0.23503857421875,0.07237381591796875,1.2745122265625
-0.2610550390625,0.08634396484375,1.046932353515625
-0.36633662109375,0.20864404052734375,0.87440419921875
-0.33424154296874997,0.17040994873046875,0.7625803955078125
-0.21996361328125,0.19491898193359375,0.718588173828125
-0.290718671875,0.1079119140625,0.9100403564453124
-0.23406599609375,0.0466393310546875,1.066593681640625
-0.22142248046875002,-0.098944326171875,1.06708521484375
-0.24184662109375,-0.10703230712890625,1.0727378466796875
-0.2153438671875,0.01992448486328125,0.9321593505859375
-0.23212083984375,-0.11291447509765624,0.8458952734375
-0.30263275390625,-0.03693647216796875,0.8033776513671875
-0.0558410546875,-0.01953505859375,0.8520394384765625
-0.17960162109375,-0.087179990234375,0.98057537109375
-0.27199654296875,-0.027868129882812502,1.127052265625
-0.2153438671875,-0.02958376220703125,1.1759598193359375
-0.32305689453124997,0.0221302978515625,1.0289913916015625
-0.35393625,0.11060790771484375,0.9820499707031249
-0.27102396484375,0.1642826904296875,0.897506259765625
-0.209022109375,0.11305881103515625,0.7837163232421875
-0.24914095703125,0.07678544189453125,0.8623616357421875
-0.1939471484375,-0.02174087158203125,0.9400238818359374
-0.2644590625,-0.008996174316406251,1.025304892578125
-0.13340416015625,-0.008996174316406251,0.9424815478515625
-0.244034921875,-0.03693647216796875,0.8200897802734375
-0.1890842578125,0.00472888427734375,0.8127167822265625
-0.27588685546875,0.04639424072265625,0.8141913818359375
-0.26129818359375,0.00717978759765625,0.9021758251953125
-0.2450075,0.05031568603515625,1.0189149609375
-0.1958923046875,-0.0016434643554687498,1.099034873046875
-0.23795630859375,0.04884514404296875,1.178663251953125
-0.2941226953125,0.026296833496093748,1.1946380810546875
-0.2552195703125,-0.079337099609375,1.1037044384765624
-0.10860341796875,0.0946770361328125,1.07494974609375
-0.304334765625,-0.05213207275390625,0.962388642578125
-0.2153438671875,-0.13693332763671875,1.0857634765625
-0.2649453515625,0.00668960693359375,1.12312
-0.44511544921875,-0.00752563232421875,1.1051790380859374
-0.43344451171875,-0.15899145751953125,0.9813126708984374
-0.3267040625,-0.08693489990234375,0.8122252490234375
-0.2722396875,-0.060710234375,0.6475616259765625
-0.1608794921875,-0.08595453857421875,0.6023405712890625
-0.08137123046875,-0.1195319140625,0.6593584228515625
-0.221665625,-0.1386489599609375,0.814928681640625
-0.339347578125,-0.1337471533203125,0.9950756005859375
-0.39478453125,-0.0808076416015625,1.1211538671875
-0.22434021484375,-0.13546278564453124,1.1010010058593749
-0.10568568359375,-0.1288453466796875,1.1086197705078125
-0.24525064453125,0.08560869384765625,1.086255009765625
-0.34226531250000003,-0.15654055419921875,1.0737209130859375
-0.446331171875,0.00227798095703125,1.2069264111328124
-0.55112646484375,-0.016593974609375,1.1621968896484376
-0.3242726171875,-0.2513905126953125,0.970253173828125
-0.10568568359375,-0.183255400390625,0.8520394384765625
-0.06532369140625,-0.0651218603515625,0.789368955078125
-0.074806328125,-0.11193411376953125,0.7773263916015625
-0.24427806640625,-0.1876670263671875,0.9867195361328125
-0.30020130859375,0.06109966064453125,1.2088925439453124
-0.3281629296875,0.0515411376953125,1.3059703515625
-0.40280830078125,0.01453249755859375,1.2393676025390625
-0.3651208984375,-0.08938580322265625,1.1287726318359375
-0.23503857421875,-0.21683277587890626,0.8933282275390625
-0.27005138671875,-0.2013920849609375,0.6981895458984375
-0.3111428125,-0.2268814794921875,0.6662398876953125
-0.183735078125,-0.22761675048828126,0.69351998046875
-0.2620276171875,-0.20997024658203126,0.938795048828125
-0.23212083984375,-0.1082577587890625,1.007609697265625
-0.131215859375,-0.1592365478515625,1.0683140478515625
-0.347128203125,-0.0298288525390625,1.1174673681640626
-0.30603677734375,0.02041466552734375,1.11427240234375
-0.14702025390625,-0.07370002197265625,1.102967138671875
-0.32013916015625,-0.06193568603515625,1.1223827001953124
-0.206104375,-0.02737794921875,1.1381117626953126
-0.26761994140625,-0.16462853515625,0.99433830078125
-0.42517759765625,-0.04134809814453125,0.926015185546875
-0.37217208984375,-0.1901179296875,0.682214716796875
-0.19808060546875,-0.24575343505859376,0.5428650537109375
-0.13583560546875,-0.22345021484375,0.5391785546875
-0.11589775390625,-0.2607039453125,0.6495277587890624
-0.14264365234375,-0.2376654541015625,0.8741584326171875
-0.21558701171875,-0.19403937500000001,1.0791277783203126
-0.30360533203125,-0.2376654541015625,1.1902142822265624
-0.230418828125,-0.023456503906250002,1.1644087890625
-0.14580453125,0.028502646484374998,1.1046875048828124
-0.12635296875,-0.03350520751953125,1.0963314404296876
-0.25692158203125,-0.048455717773437504,1.0943653076171875
-0.19224513671875,-0.07566074462890625,1.078390478515625
-0.29047552734375,-0.016593974609375,1.0427543212890624
-0.19175884765625,-0.08619962890625,0.9105318896484375
-0.12805498046875,-0.14379585693359376,1.0432458544921874
-0.22336763671875,-0.08448399658203125,1.2646815625
-0.20026890625,-0.17026561279296876,1.3806833984375
-0.32013916015625,-0.0455146337890625,1.329072412109375
-0.29631099609375,-0.249919970703125,1.060695283203125
-0.18470765625,-0.07517056396484376,1.0137538623046876
-0.11006228515625,-0.0881603515625,1.0471781201171875
-0.30117388671875,-0.2562923193359375,1.0250591259765625
-0.2581373046875,-0.07443529296875,1.16539185546875
-0.392839375,-0.03105430419921875,1.058729150390625
-0.34542619140624997,-0.09012107421875,0.90586232421875
-0.1044699609375,-0.05213207275390625,0.8795652978515625
-0.19078626953125,-0.122472998046875,0.79969115234375
-0.133161015625,-0.13203152099609375,0.9007012255859375
-0.37946642578125,-0.1906081103515625,0.965829375
-0.27102396484375,-0.19673536865234376,0.8490902392578125
-0.2610550390625,-0.11977700439453125,0.778555224609375
-0.21315556640625,0.00865032958984375,0.79772501953125
-0.1997826171875,-0.004829638671875,0.8879213623046875
-0.21607330078125,0.038306259765625,1.0919076416015625
-0.284883203125,-0.014633251953124999,1.08281427734375
-0.1599069140625,-0.01487834228515625,1.043983154296875
-0.2085358203125,-0.04477936279296875,1.0029401318359374
-0.21364185546875,0.0003172583007812497,1.04152548828125
-0.25059982421875,-0.03448556884765625,0.9233117529296875
-0.3301080859375,0.0515411376953125,0.993846767578125
-0.23698373046875,-0.02223105224609375,0.8874298291015625
-0.2104809765625,-0.0631611376953125,0.8009199853515625
-0.11152115234375,0.067717099609375,0.8537598046875
-0.06435111328125,-0.1719812451171875,0.7987080859375
-0.16598552734375,-0.03546593017578125,0.9326508837890625
-0.23212083984375,-0.04085791748046875,0.954524111328125
-0.30166017578125,-0.11364974609375,0.9139726220703125
-0.25084296875,0.10570610107421875,0.935845849609375
-0.12027435546875,-0.114630107421875,0.7266984716796875
-0.2022140625,0.07090327392578125,0.95304951171875
-0.244034921875,0.04712951171875,1.1587561572265626
-0.27929087890625,0.06281529296875,1.1604765234375
-0.2153438671875,0.10864718505859375,1.111814736328125
-0.3466419140625,-0.0327699365234375,0.9459222802734375
-0.18446451171875,0.033404453125,0.95501564453125
-0.11054857421875,-0.0474753564453125,0.98450763671875
-0.2581373046875,0.0005623486328125002,1.0457035205078125
-0.2800203125,-0.06340622802734375,0.8913620947265625
-0.249870390625,0.05325677001953125,0.7952673535156249
-0.035173769531249996,0.00399361328125,0.765283828125
-0.16744439453124998,0.104970830078125,0.9675497412109375
-0.23844259765625,-0.09428760986328125,1.0348897900390626
-0.2668905078125,-0.03129939453125,1.1184504345703126
-0.24379177734375002,0.11379408203125,1.106899404296875
-0.2707808203125,-0.03252484619140625,0.8928366943359375
-0.24719580078125,0.046149150390625,1.1644087890625
-0.2309051171875,0.04296297607421875,1.1253318994140624
-0.183735078125,0.03708080810546875,1.02776255859375
-0.212912421875,-0.01830960693359375,0.8505648388671875
-0.20586123046875,0.0887948681640625,0.7947758203124999
-0.06678255859375,-0.013162709960937501,0.8245135791015625
-0.1375376171875,0.01845394287109375,1.0083469970703125
-0.21266927734375,0.11599989501953126,1.0759328125
-0.23114826171875,0.03659062744140625,1.1228742333984374
-0.3028758984375,-0.0612004150390625,1.0589749169921876
-0.1560166015625,0.18903681396484376,1.06118681640625
-0.3048210546875,0.036345537109375,0.8259881787109375
-0.22361078125,-0.0641414990234375,0.797233486328125
-0.02909515625,-0.13007079833984375,1.00416896484375
-0.2620276171875,-0.10311086181640625,0.9940925341796875
-0.33861814453125,-0.169530341796875,0.9360916162109375
-0.30457791015625,-0.0371815625,1.0801108447265624
-0.2873146484375,-0.04330882080078125,0.958456376953125
-0.1599069140625,0.1015395654296875,0.93142205078125
-0.1783858984375,0.00472888427734375,0.969761640625
-0.25886673828125,0.06502110595703126,1.0196522607421874
-0.166228671875,0.052031318359375,1.048406953125
-0.2834243359375,0.07972652587890625,1.0560257177734376
-0.2425760546875,0.17384121337890626,1.061678349609375
-0.21583015625000002,0.0976181201171875,1.0167030615234376
-0.38287044921875,-0.0371815625,0.99237216796875
-0.31478998046875,0.19393862060546874,1.11427240234375
-0.33326896484375,0.122617333984375,1.046932353515625
-0.05657048828125,0.124578056640625,0.9714820068359376
