ax,ay,az
-0.2800203125,-0.045024453125,0.965829375
-0.279047734375,-0.0327699365234375,0.98057537109375
-0.282938046875,-0.02419177490234375,0.999745166015625
-0.27613,-0.025662316894531252,0.9940925341796875
-0.27831830078124997,-0.030319033203124998,0.977626171875
-0.273212265625,-0.03987755615234375,0.9626344091796875
-0.27053767578125,-0.01879978759765625,0.9599309765625
-0.29776986328125,-0.0317895751953125,0.9714820068359376
-0.25254498046875,-0.02860340087890625,1.0014655322265624
-0.28123603515625,-0.02615249755859375,0.9842618701171875
-0.27053767578125,-0.035711020507812496,0.9852449365234375
-0.28220861328125,-0.00997653564453125,0.96484630859375
-0.28269490234375,-0.023456503906250002,0.9677955078125
-0.28707150390625,-0.0406128271484375,0.96288017578125
-0.2800203125,-0.03350520751953125,0.9380577490234375
-0.27807515625,-0.03987755615234375,0.9341254833984375
-0.26081189453125,-0.04306373046875,0.9454307470703125
-0.27394169921875,-0.027868129882812502,0.952557978515625
-0.27102396484375,-0.03203466552734375,0.9886856689453125
-0.2746711328125,-0.0298288525390625,0.9621428759765625
-0.28391062499999997,-0.03546593017578125,0.9442019140625
-0.28269490234375,-0.03693647216796875,0.9341254833984375
-0.2800203125,-0.02076051025390625,0.9363373828125
-0.271267109375,-0.02713285888671875,0.9198710205078124
-0.27540056640625,-0.0072805419921875,0.924049052734375
-0.28634207031250003,-0.01291761962890625,0.968287041015625
-0.2561921484375,-0.02762303955078125,0.977626171875
-0.2333365625,-0.02664267822265625,0.984016103515625
-0.21704587890625,-0.02321141357421875,0.9886856689453125
-0.21558701171875,-0.027868129882812502,0.9953213671875
-0.20877896484375,-0.0504164404296875,1.0083469970703125
-0.187625390625,-0.0513968017578125,1.0088385302734375
-0.19564916015625,-0.0562986083984375,0.985982236328125
-0.203186640625,-0.0646316796875,0.9719735400390626
-0.22093619140625,-0.046004814453125,0.977626171875
-0.2124261328125,-0.051886982421875,1.00220283203125
-0.207076953125,-0.0612004150390625,1.031203291015625
-0.20586123046875,-0.06487677001953125,1.0171945947265626
-0.19856689453125,-0.05752406005859375,1.006626630859375
-0.19321771484375,-0.06683749267578125,0.9965502001953125
-0.18786853515625002,-0.068553125,0.9972875
-0.18397822265625,-0.06659240234375,0.9886856689453125
-0.1988100390625,-0.06438658935546875,1.0024485986328124
-0.20197091796875,-0.048945898437499996,1.00220283203125
-0.19467658203125,-0.04968116943359375,0.9926179345703126
-0.2056180859375,-0.04134809814453125,0.9953213671875
-0.1832487890625,-0.05556333740234375,0.9955671337890625
-0.207076953125,-0.05703387939453125,1.00220283203125
-0.19808060546875,-0.05115171142578125,1.0167030615234376
-0.1851939453125,-0.063651318359375,1.0245675927734375
-0.16890326171875,-0.067572763671875,1.031203291015625
-0.1715778515625,-0.0641414990234375,1.014491162109375
-0.1735230078125,-0.05703387939453125,1.0137538623046876
-0.1530988671875,-0.05556333740234375,1.05135615234375
-0.15188314453125001,-0.060710234375,1.0466865869140625
-0.15431458984375,-0.06144550537109375,1.0520934521484375
-0.15917748046875,-0.05997496337890625,1.0393135888671874
-0.16598552734375,-0.05997496337890625,1.02972869140625
-0.1555303125,-0.07222947998046875,1.0346440234375
-0.15577345703125,-0.0700236669921875,1.0466865869140625
-0.154557734375,-0.0974737841796875,1.0250591259765625
-0.15869119140625,-0.077376376953125,1.0078554638671875
-0.1501811328125,-0.08007237060546875,1.0039231982421875
-0.1492085546875,-0.0906112548828125,1.01399962890625
-0.13948277343749999,-0.08619962890625,1.0235845263671874
-0.1336473046875,-0.09404251953125001,1.011541962890625
-0.125380390625,-0.09379742919921875,1.023338759765625
-0.13097271484375,-0.083258544921875,1.041033955078125
-0.1258666796875,-0.0837487255859375,1.0417712548828124
-0.129270703125,-0.07664110595703125,1.0427543212890624
-0.13024328125,-0.08007237060546875,1.0196522607421874
-0.13000013671875,-0.077376376953125,1.0289913916015625
-0.12440781249999999,-0.07468038330078125,1.0432458544921874
-0.12610982421875,-0.08619962890625,1.046932353515625
-0.121490078125,-0.07713128662109375,1.0179318945312499
-0.12562353515625,-0.07909200927734375,1.0137538623046876
-0.12343523437500001,-0.07909200927734375,1.0117877294921875
-0.13097271484375,-0.08619962890625,1.0206353271484374
-0.1336473046875,-0.08963089355468751,1.0201437939453124
-0.13437673828125,-0.08007237060546875,1.009575830078125
-0.12562353515625,-0.071494208984375,0.988931435546875
-0.11881548828124999,-0.06977857666015624,0.9985163330078125
-0.12076064453125,-0.0739451123046875,1.010558896484375
-0.12562353515625,-0.0817880029296875,1.0039231982421875
-0.11638404296875,-0.06659240234375,0.995812900390625
-0.11492517578125,-0.059729873046875,0.9950756005859375
-0.11687033203125,-0.057769150390625,1.00613509765625
-0.11857234375,-0.06659240234375,1.02383029296875
-0.13000013671875,-0.059484782714843754,1.0228472265625
-0.112736875,-0.0646316796875,1.0250591259765625
-0.12367837890625,-0.0494360791015625,0.9990078662109375
-0.12124693359375,-0.04821062744140625,1.02186416015625
-0.12416466796875,-0.05556333740234375,1.02186416015625
-0.11832919921875,-0.05360261474609375,1.000728232421875
-0.1166271875,-0.0513968017578125,0.996795966796875
-0.12270580078125,-0.051886982421875,0.9931094677734374
-0.12465095703125,-0.05115171142578125,1.001219765625
-0.131215859375,-0.05752406005859375,1.0093300634765625
-0.1210037890625,-0.046740085449218746,0.99237216796875
-0.1200312109375,-0.03987755615234375,0.985982236328125
-0.121490078125,-0.045024453125,0.99040603515625
-0.1336473046875,-0.045024453125,1.01006736328125
-0.119544921875,-0.052867343750000004,1.0211268603515624
-0.115654609375,-0.04330882080078125,1.00515203125
-0.11541146484375,-0.04134809814453125,1.01203349609375
-0.13024328125,-0.04330882080078125,1.009575830078125
-0.144831953125,-0.050661530761718754,1.01596576171875
-0.14410251953125,-0.052867343750000004,0.989914501953125
-0.15917748046875,-0.05874951171875,0.9709904736328125
-0.17911533203125,-0.0567887890625,0.96484630859375
-0.1866528125,-0.0602200537109375,0.9744312060546875
-0.19905318359375002,-0.07124911865234375,0.9881941357421875
-0.1968648828125,-0.07271966064453125,0.97369390625
-0.19370400390625,-0.06095532470703125,0.9717277734375
-0.1920019921875,-0.05409279541015625,0.9700074072265625
-0.21461443359375,-0.06487677001953125,0.98057537109375
-0.2299325390625,-0.0641414990234375,0.9965502001953125
-0.23747001953125,-0.05801424072265625,0.9759058056640625
-0.2450075,-0.04526954345703125,0.95304951171875
-0.2552195703125,-0.048455717773437504,0.945676513671875
-0.25449013671875,-0.04698517578125,0.972219306640625
-0.271267109375,-0.048945898437499996,0.9886856689453125
-0.255705859375,-0.047965537109375,0.9744312060546875
-0.23819945312500002,-0.034240478515625,0.973202373046875
-0.25205869140625,-0.03546593017578125,0.9714820068359376
-0.2581373046875,-0.02713285888671875,0.9931094677734374
-0.25205869140625,-0.0386521044921875,0.997779033203125
-0.25084296875,-0.04821062744140625,0.973202373046875
-0.25205869140625,-0.030073942871093752,0.9729566064453125
-0.25157240234375,-0.028113220214843748,0.9783634716796875
-0.273212265625,-0.046740085449218746,0.9926179345703126
-0.25935302734375,-0.040122646484374996,0.98254150390625
-0.2620276171875,-0.04183827880859375,0.9717277734375
-0.2630001953125,-0.0406128271484375,0.9641090087890625
-0.26056875,-0.03497574951171875,0.9660751416015625
-0.2620276171875,-0.046740085449218746,0.99040603515625
-0.26056875,-0.046740085449218746,0.9911433349609375
-0.24865466796875,-0.04183827880859375,0.98450763671875
-0.2571647265625,-0.03987755615234375,0.9768888720703125
-0.2561921484375,-0.04134809814453125,0.9749227392578125
-0.263486484375,-0.04968116943359375,0.9913891015625
-0.25473328125,-0.03914228515625,1.0071181640625
-0.2630001953125,-0.05090662109375,0.9852449365234375
-0.26227076171875,-0.055073156738281254,0.973202373046875
-0.26640421875,-0.04772044677734375,0.9926179345703126
-0.27151025390625,-0.0513968017578125,0.990897568359375
-0.26470220703125,-0.05556333740234375,0.9891772021484375
-0.24962724609375,-0.05115171142578125,0.967303974609375
-0.26616107421875,-0.053847705078125,0.9778719384765625
-0.24670951171875,-0.05017135009765625,0.9916348681640625
-0.26154132812499997,-0.047965537109375,1.007609697265625
-0.26324333984375,-0.05360261474609375,0.9990078662109375
-0.26081189453125,-0.0474753564453125,0.9714820068359376
-0.2513292578125,-0.046249904785156254,0.9837703369140625
-0.26227076171875,-0.044044091796875,1.0039231982421875
-0.2678630859375,-0.046249904785156254,0.9970417333984375
-0.2668905078125,-0.03742665283203125,0.9874568359375
-0.273212265625,-0.0411030078125,0.975168505859375
-0.2639727734375,-0.046004814453125,0.9650920751953125
-0.2707808203125,-0.044534272460937496,0.98254150390625
-0.26421591796875,-0.05409279541015625,1.011541962890625
-0.27515742187500003,-0.04968116943359375,0.99040603515625
-0.25935302734375,-0.042328459472656246,0.9690243408203125
-0.26372962890625,-0.04821062744140625,0.9709904736328125
-0.268349375,-0.04281864013671875,0.9886856689453125
-0.2746711328125,-0.06585713134765625,0.9931094677734374
-0.273212265625,-0.04698517578125,0.970253173828125
-0.2698082421875,-0.0366913818359375,0.96877857421875
-0.26761994140625,-0.03399538818359375,0.9783634716796875
-0.26081189453125,-0.04379900146484375,0.9719735400390626
-0.27637314453125,-0.03987755615234375,0.9803296044921875
-0.26518849609375,-0.042083369140625,0.9734481396484375
-0.26178447265625,-0.03644629150390625,0.9724650732421874
-0.27345541015625,-0.0259074072265625,0.977134638671875
-0.277102578125,-0.03693647216796875,0.9749227392578125
-0.27394169921875,-0.0337502978515625,0.9739396728515625
-0.27345541015625,-0.04085791748046875,0.957473310546875
-0.28804408203125,-0.02909358154296875,0.962388642578125
-0.28998923828125,-0.03644629150390625,0.9606682763671874
-0.28585578125,-0.0406128271484375,0.9616513427734374
-0.28074974609375003,-0.046249904785156254,0.959439443359375
-0.2736985546875,-0.038161923828125,0.971236240234375
-0.2814791796875,-0.04183827880859375,0.974185439453125
-0.2795340234375,-0.03742665283203125,0.991880634765625
-0.28658521484375,-0.022476142578125,0.9562444775390625
-0.30117388671875,-0.0455146337890625,0.9646005419921875
-0.29679728515625,-0.03914228515625,0.9709904736328125
-0.28707150390625,-0.04330882080078125,0.970253173828125
-0.28561263671875,-0.026397587890625,0.956490244140625
-0.2892598046875,-0.045024453125,0.9606682763671874
-0.2824517578125,-0.0474753564453125,0.97860923828125
-0.28853037109375,-0.03693647216796875,0.97369390625
-0.28220861328125,-0.026397587890625,0.9599309765625
-0.29096181640625,-0.04085791748046875,0.97271083984375
-0.28998923828125,-0.045024453125,0.9729566064453125
-0.300444453125,-0.028358310546875,0.961897109375
-0.2970404296875,-0.0425735498046875,0.9439561474609375
-0.304334765625,-0.04477936279296875,0.9611598095703124
-0.31284482421875,-0.030073942871093752,0.9498545458984375
-0.31868029296875,-0.044044091796875,0.9572275439453125
-0.32500205078125,-0.03497574951171875,0.94125271484375
-0.333512109375,-0.0229663232421875,0.93437125
-0.33570041015625,-0.0474753564453125,0.95501564453125
-0.3349709765625,-0.03252484619140625,0.9478884130859375
-0.3427516015625,-0.02909358154296875,0.936828916015625
-0.34007701171875,-0.0317895751953125,0.955507177734375
-0.36828177734375,-0.032279755859375,0.9488714794921875
-0.37898013671874997,-0.02737794921875,0.9321593505859375
-0.37265837890625,-0.0259074072265625,0.92945591796875
-0.37533296875,-0.010221625976562499,0.9321593505859375
-0.389921640625,-0.028113220214843748,0.9252778857421875
-0.391866796875,-0.01879978759765625,0.92552365234375
-0.3889490625,-0.01634888427734375,0.9183964208984375
-0.4001337109375,-0.028358310546875,0.925032119140625
-0.39162365234375,-0.00311400634765625,0.9473968798828125
-0.393811953125,-0.030073942871093752,0.9410069482421874
-0.407428046875,-0.01144707763671875,0.94518498046875
-0.38773333984375,-0.01585870361328125,0.93338818359375
-0.4118046484375,-0.01095689697265625,0.946659580078125
-0.39551396484375,-0.013162709960937501,0.9301932177734376
-0.4195852734375,-0.0219859619140625,0.92748978515625
-0.436605390625,-0.008996174316406251,0.9198710205078124
-0.41788326171875,-0.03399538818359375,0.91176072265625
-0.43490337890624997,-0.0082609033203125,0.9095488232421876
-0.4278521875,-0.0190448779296875,0.908319990234375
-0.44706060546875,-0.0210056005859375,0.9284728515625
-0.43490337890624997,-0.022476142578125,0.9363373828125
-0.4341739453125,-0.0180645166015625,0.93338818359375
-0.43247193359375,-0.023456503906250002,0.9206083203125
-0.43441708984375,-0.037916833496093746,0.9311762841796875
-0.44730375,-0.01438816162109375,0.9262609521484375
-0.45435494140625,-0.03595611083984375,0.9213456201171875
-0.4526529296875,0.018699033203125,0.9164302880859375
-0.4555706640625,-0.01978014892578125,0.922082919921875
-0.46651216796875,0.00472888427734375,0.92552365234375
-0.45581380859375,-0.02517213623046875,0.915201455078125
-0.46310814453125,-0.00997653564453125,0.9041419580078125
-0.4507077734375,-0.03987755615234375,0.9007012255859375
-0.47332021484375,-0.01169216796875,0.9284728515625
-0.46019041015625,-0.00777072265625,0.9154472216796875
-0.46408072265625,-0.00311400634765625,0.926015185546875
-0.46286499999999997,-0.00311400634765625,0.9245405859375
-0.48255970703125,0.00791505859375,0.9429730810546875
-0.47526537109375,-0.00360418701171875,0.952557978515625
-0.4750222265625,-0.00703545166015625,0.9324051171875
-0.47186134765625,-0.028113220214843748,0.9228202197265625
-0.4905834765625,-0.0161037939453125,0.9193794873046874
-0.470645625,-0.02272123291015625,0.9149556884765625
-0.46894361328125,0.0069346972656249995,0.9159387548828125
-0.46481015625,-0.02076051025390625,0.9341254833984375
-0.489124609375,0.008895419921875,0.9508376123046876
-0.47842625,-0.0013983740234375002,0.9599309765625
-0.46310814453125,0.0074248779296875,0.9324051171875
-0.46699845703125,-0.03742665283203125,0.9124980224609375
-0.485234296875,-0.0082609033203125,0.906845390625
-0.49423064453125,-0.02223105224609375,0.9127437890625
-0.465782734375,-0.0004180126953125,0.9046334912109375
-0.4905834765625,-0.00458454833984375,0.91372685546875
-0.471618203125,0.00570924560546875,0.9346170166015625
-0.47672423828125,-0.01291761962890625,0.946659580078125
-0.43174250000000003,-0.02223105224609375,0.9503460791015625
-0.487179453125,-0.0254172265625,0.91077765625
-0.44171142578125,-0.04036773681640625,0.9267524853515625
-0.47137505859375,-0.01732924560546875,0.9139726220703125
-0.45630009765625,-0.02468195556640625,0.922082919921875
-0.48304599609375,-0.01438816162109375,0.94518498046875
-0.47234763671875,-0.0249270458984375,0.9360916162109375
-0.46870046875,0.0012976196289062499,0.922082919921875
-0.46456701171875,-0.02958376220703125,0.9041419580078125
-0.4905834765625,-0.01781942626953125,0.9090572900390625
-0.46602587890625,-0.0249270458984375,0.916184521484375
-0.47477908203125,-0.0055649096679687505,0.9085657568359375
-0.45411179687500003,-0.013652890625,0.9051250244140625
-0.4759948046875,0.008405239257812499,0.911269189453125
-0.47429279296875,-0.0092412646484375,0.9206083203125
-0.48401857421875,0.01845394287109375,0.913235322265625
-0.4672416015625,-0.01193725830078125,0.9011927587890625
-0.47915568359375,-0.01487834228515625,0.9048792578125
-0.46408072265625,-0.00458454833984375,0.9075826904296875
-0.45581380859375,0.0093856005859375,0.9166760546875
-0.46408072265625,0.00987578125,0.9375662158203125
-0.4662690234375,0.00963069091796875,0.9532952783203125
-0.46553958984375,0.00276816162109375,0.9481341796875
-0.45143720703125,0.0010525292968750002,0.9238032861328125
-0.45702953125,-0.0043394580078125,0.9127437890625
-0.458002109375,-0.02762303955078125,0.9252778857421875
-0.4789125390625,-0.020515419921875,0.914218388671875
-0.46505330078125,-0.00752563232421875,0.8908705615234375
-0.4847480078125,0.0012976196289062499,0.8618701025390625
-0.469673046875,-0.02076051025390625,0.884726396484375
-0.45824525390625,0.00227798095703125,0.905370791015625
-0.46091984375,0.00865032958984375,0.920116787109375
-0.45240978515625,-0.01953505859375,0.9287186181640625
-0.47721052734375,-0.0055649096679687505,0.9065996240234375
-0.46651216796875,-0.029338671875,0.89603166015625
-0.47137505859375,-0.0268877685546875,0.9164302880859375
-0.47648109375000003,-0.0386521044921875,0.921099853515625
-0.450221484375,-0.038161923828125,0.9242948193359375
-0.46310814453125,-0.03693647216796875,0.93338818359375
-0.4745359375,-0.05213207275390625,0.8977520263671875
-0.48207341796875003,-0.03350520751953125,0.9090572900390625
-0.49179919921875,-0.0371815625,0.8962774267578125
-0.485234296875,-0.027868129882812502,0.8977520263671875
-0.4633512890625,-0.01561361328125,0.914218388671875
-0.46748474609375,-0.04330882080078125,0.947642646484375
-0.46870046875,-0.018554697265625,0.9788550048828125
-0.47040248046875,-0.013652890625,0.9537868115234375
-0.49471693359375,0.0025230712890624996,0.938795048828125
-0.49909353515625,0.016738310546875,0.9262609521484375
-0.51538421875,-0.0190448779296875,0.9191337207031249
-0.5168430859375,-0.0006631030273437505,0.9129895556640625
-0.51076447265625,-0.03105430419921875,0.9174133544921875
-0.487179453125,-0.03497574951171875,0.8982435595703124
-0.50638787109375,-0.00777072265625,0.9026673583984375
-0.528027734375,-0.02664267822265625,0.8987350927734374
-0.5508833203125,0.024091020507812498,0.9061080908203125
-0.56376998046875,0.01575794921875,0.903404658203125
-0.54067125,-0.00581,0.9375662158203125
-0.5168430859375,-0.0038492773437499997,0.970253173828125
-0.40815748046875,-0.0523771630859375,0.9985163330078125
-0.42031470703125,-0.053847705078125,0.9559987109375
-0.42906791015625,-0.046249904785156254,0.85867513671875
-0.51222333984375,0.0368357177734375,0.8800568310546875
-0.53653779296875,-0.0386521044921875,0.9218371533203125
-0.545534140625,-0.0259074072265625,0.9198710205078124
-0.55842080078125,-0.03742665283203125,0.8908705615234375
-0.5489381640625,-0.02664267822265625,0.78592822265625
-0.4497351953125,-0.02223105224609375,0.767741494140625
-0.45702953125,0.08707923583984375,0.7896147216796875
-0.5576913671875,-0.0141430712890625,0.8987350927734374
-0.572766328125,-0.01830960693359375,1.093136474609375
-0.51514107421875,-0.014633251953124999,1.075441279296875
-0.46481015625,0.11060790771484375,0.9267524853515625
-0.489124609375,0.00987578125,0.8800568310546875
-0.4745359375,-0.0023787353515625003,0.9272440185546875
-0.45168035156249997,0.16673359375,1.0108046630859375
-0.54674986328125,0.02090484619140625,0.9695158740234375
-0.50638787109375,0.1471263671875,1.0044147314453125
-0.45240978515625,-0.05703387939453125,0.9439561474609375
-0.39162365234375,0.14835181884765625,1.0014655322265624
-0.329621796875,-0.00605509033203125,0.94715111328125
-0.58322154296875,0.01257177490234375,0.8746499658203125
-0.52729830078125,-0.052867343750000004,0.8382765087890625
-0.56328369140625,-0.07835673828125,0.8616243359375
-0.52194912109375,0.01747358154296875,0.7507835986328125
-0.50954875,-0.06046514404296875,0.7434106005859376
-0.42590703125,-0.10115013916015625,0.82918314453125
-0.5314317578125,-0.0719843896484375,0.8402426416015625
-0.44803318359375,0.01845394287109375,0.910286123046875
-0.54383212890625,-0.03938737548828125,0.8884128955078126
-0.5178156640625,0.0407571630859375,1.00220283203125
-0.43636224609375,-0.06683749267578125,0.9390408154296875
-0.54723615234375,-0.015368522949218751,0.9007012255859375
-0.30919765625,-0.038161923828125,0.92159138671875
-0.3972159765625,0.03806116943359375,0.9473968798828125
-0.48353228515625,0.03536517578125,0.999745166015625
-0.5927041796875,-0.11536537841796875,1.009084296875
-0.512466484375,0.085363603515625,0.9439561474609375
-0.52486685546875,0.02237538818359375,0.94518498046875
-0.3816547265625,0.018699033203125,1.02776255859375
-0.36828177734375,-0.010221625976562499,1.032677890625
-0.38092529296875,0.010611052246093749,1.0575003173828126
-0.510521328125,-0.02027032958984375,1.0112961962890625
-0.53872609375,-0.012427438964843749,0.909303056640625
-0.52340798828125,-0.11830646240234374,0.73480876953125
-0.47477908203125,0.0789912548828125,0.769707626953125
-0.56182482421875,-0.057278969726562504,0.843929140625
-0.489124609375,-0.0749254736328125,0.9282270849609375
-0.42663646484375,0.01110123291015625,0.9670582080078125
-0.41496552734375003,0.114774443359375,0.9911433349609375
-0.49885039062500003,-0.12860025634765626,0.9110234228515625
-0.50638787109375,-0.0023787353515625003,0.8498275390625
-0.53070232421875,-0.02615249755859375,0.8471241064453126
-0.4419545703125,0.06158984130859375,0.8458952734375
-0.496905234375,-0.08227818359375,0.83704767578125
-0.4779399609375,-0.05556333740234375,0.9213456201171875
-0.52681201171875,0.0936966748046875,0.9523122119140625
-0.42931105468749997,-0.048945898437499996,0.918150654296875
-0.4584883984375,-0.05801424072265625,0.9191337207031249
-0.3889490625,-0.008751083984375,0.9990078662109375
-0.553314765625,-0.05556333740234375,0.9149556884765625
-0.3194097265625,0.07139345458984375,0.9675497412109375
-0.3583128515625,0.01159141357421875,0.977134638671875
-0.50298384765625,-0.02076051025390625,0.997779033203125
-0.5110076171875,0.05080586669921875,1.073475146484375
-0.5294866015625,-0.03914228515625,0.952557978515625
-0.46481015625,0.0348749951171875,0.98450763671875
-0.47575166015625,0.04737460205078125,0.9488714794921875
-0.53605150390625,0.0387964404296875,0.9867195361328125
-0.5217059765625,-0.05458297607421875,1.0289913916015625
-0.5644994140625,0.03610044677734375,0.91077765625
-0.531918046875,0.0020328906249999995,0.8156659814453124
-0.54285955078125,-0.037916833496093746,0.8525309716796875
-0.5674171484375,0.0103659619140625,0.861132802734375
-0.5771429296875,-0.09820905517578125,0.874895732421875
-0.586382421875,-0.02419177490234375,0.8871840625
-0.5703348828125,-0.01389798095703125,0.8653108349609375
-0.59002958984375,-0.0670825830078125,0.8368019091796874
-0.6145871875,-0.03105430419921875,0.8633447021484375
-0.625285546875,-0.04968116943359375,0.84786140625
-0.5635268359375,0.055462583007812497,0.8603955029296875
-0.479398828125,-0.1092381201171875,0.841471474609375
-0.45046462890625,0.02923791748046875,0.87637033203125
-0.52194912109375,-0.0533575244140625,0.854251337890625
-0.539698671875,-0.02860340087890625,0.891607861328125
-0.46286499999999997,0.04100225341796875,0.915201455078125
-0.57544091796875,0.04296297607421875,0.8687515673828125
-0.520247109375,-0.01634888427734375,0.87931953125
-0.46408072265625,0.04541387939453125,0.946168046875
-0.51903138671875,0.04100225341796875,0.883251796875
-0.51368220703125,0.033404453125,0.8871840625
-0.50590158203125,0.04541387939453125,0.9537868115234375
-0.54431841796875,0.052031318359375,0.91372685546875
-0.53896923828125,-0.00262382568359375,0.806081083984375
-0.52097654296875,-0.0028689160156250004,0.75250396484375
-0.524137421875,-0.012427438964843749,0.73874103515625
-0.5562325,0.0054641552734375,0.7208000732421875
-0.5448047070312501,-0.01634888427734375,0.7252238720703125
-0.56863287109375,0.0123266845703125,0.7586481298828125
-0.5693623046875,0.02580665283203125,0.845403740234375
-0.59051587890625,0.0505607763671875,0.8476156396484374
-0.617504921875,0.05080586669921875,0.843437607421875
-0.5810332421875,0.0789912548828125,0.8962774267578125
-0.56911916015625,0.00791505859375,0.9206083203125
-0.518301953125,0.00865032958984375,0.98057537109375
-0.539698671875,-0.011201987304687501,0.929947451171875
-0.4847480078125,0.033404453125,0.9599309765625
-0.52146283203125,-0.00850599365234375,0.899472392578125
-0.5834646875,0.0010525292968750002,0.8633447021484375
-0.47477908203125,0.0064445166015625,0.906845390625
-0.51854509765625,-0.049926259765625,0.934862783203125
-0.48742259765625,-0.00777072265625,1.0284998583984375
-0.501768125,-0.08840544189453126,0.9945840673828125
-0.48596373046875,-0.07075893798828126,0.9660751416015625
-0.41836955078125,-0.07370002197265625,0.9773804052734375
-0.4682141796875,-0.07811164794921875,0.9498545458984375
-0.5134390625,-0.0886505322265625,0.9665666748046875
-0.59002958984375,-0.063651318359375,0.9311762841796875
-0.53994181640625,-0.065612041015625,0.89603166015625
-0.50347013671875,-0.08987598388671875,0.870963466796875
-0.4993366796875,-0.0415931884765625,0.91372685546875
-0.50687416015625,-0.02321141357421875,0.9734481396484375
-0.5353220703125,-0.0268877685546875,0.9704989404296875
-0.5032269921875,-0.03987755615234375,0.950591845703125
-0.52438056640625,-0.008996174316406251,0.9139726220703125
-0.506631015625,0.0191892138671875,0.9552614111328125
-0.51854509765625,-0.0016434643554687498,0.95108337890625
-0.57057802734375,0.040266982421875,0.9650920751953125
-0.50103869140625,0.028257556152343752,0.9503460791015625
-0.4993366796875,-0.05213207275390625,0.9095488232421876
-0.51951767578125,0.02972809814453125,0.924049052734375
-0.49520322265625,0.00717978759765625,0.9124980224609375
-0.49666208984375,-0.00948635498046875,0.8358188427734374
-0.424934453125,-0.0229663232421875,0.88816712890625
-0.4059691796875,-0.032279755859375,0.96681244140625
-0.4380642578125,0.013552136230468751,1.030220224609375
-0.4789125390625,-0.02737794921875,0.9842618701171875
-0.4721044921875,0.015022678222656249,0.9046334912109375
-0.40572603515625,-0.028358310546875,0.930438984375
-0.4351465234375,-0.05409279541015625,0.9414984814453125
-0.413263515625,-0.0592396923828125,0.93535431640625
-0.3962433984375,-0.060710234375,0.8741584326171875
-0.3933256640625,0.03315936279296875,0.9547698779296875
-0.38530189453125,-0.00458454833984375,1.0058893310546875
-0.43538966796875,-0.004829638671875,1.0228472265625
-0.387976484375,-0.0009081933593750001,0.9375662158203125
-0.35174794921875,0.01992448486328125,0.88620099609375
-0.35758341796875,-0.0011532836914062497,0.8930824609375
-0.428824765625,-0.03448556884765625,0.8844806298828125
-0.4118046484375,-0.03203466552734375,0.8481071728515625
-0.33764556640625,-0.00409436767578125,0.8304119775390625
-0.34007701171875,-0.046740085449218746,0.8731753662109375
-0.32791978515625,-0.04919098876953125,0.98254150390625
-0.40572603515625,-0.060710234375,1.0402966552734374
-0.38919220703125,-0.012672529296875,0.956490244140625
-0.36585033203125,-0.06267095703125,0.8780906982421874
-0.32548833984375003,-0.1023755908203125,0.8569547705078124
-0.3446967578125,-0.02272123291015625,0.938795048828125
-0.41253408203124997,-0.1210024560546875,0.9783634716796875
-0.40378087890625003,-0.044044091796875,0.9965502001953125
-0.31819400390625,-0.0415931884765625,0.9196252539062499
-0.35952857421875,0.00325834228515625,0.9478884130859375
-0.42201671875,-0.02860340087890625,0.9719735400390626
-0.41982841796875,-0.0435539111328125,0.9714820068359376
-0.38530189453125,-0.0690433056640625,0.957473310546875
-0.36974064453125,-0.0803174609375,0.9439561474609375
-0.41058892578125,-0.01978014892578125,0.9321593505859375
-0.333512109375,-0.05899460205078125,0.852285205078125
-0.408400625,-0.038161923828125,0.8223016796875
-0.38967849609375,-0.0200252392578125,0.8908705615234375
-0.42906791015625,-0.0474753564453125,0.9282270849609375
-0.4434134375,0.0054641552734375,0.8874298291015625
-0.4468174609375,0.0270321044921875,0.8267254785156251
-0.3865176171875,-0.013407800292968751,0.833606943359375
-0.386031328125,-0.026397587890625,0.914709921875
-0.4225030078125,-0.00850599365234375,0.9837703369140625
-0.4351465234375,-0.020515419921875,0.9638632421875
-0.40037685546875,0.0211499365234375,0.926015185546875
-0.42566388671875,-0.00507472900390625,0.9626344091796875
-0.39989056640625,0.008895419921875,1.043983154296875
-0.40645546875,-0.01781942626953125,1.0543053515625
-0.4458448828125,0.00865032958984375,1.03169482421875
-0.4195852734375,-0.05703387939453125,1.019406494140625
-0.49131291015625,-0.04821062744140625,1.0191607275390624
-0.45727267578124997,-0.04036773681640625,0.966320908203125
-0.43295822265625,-0.0190448779296875,0.9434646142578125
-0.41107521484375,-0.028358310546875,1.002694365234375
-0.4176401171875,-0.0425735498046875,1.0653648486328124
-0.47575166015625,-0.05090662109375,1.037101689453125
-0.4312562109375,-0.02125069091796875,0.990897568359375
-0.46456701171875,-0.06242586669921875,0.9282270849609375
-0.42031470703125,-0.06781785400390625,0.9557529443359375
-0.4721044921875,-0.11561046875,0.9444476806640625
-0.45095091796875,-0.08840544189453126,0.9282270849609375
-0.4779399609375,-0.06683749267578125,0.8736668994140625
-0.4905834765625,-0.049926259765625,0.9021758251953125
-0.48766574218750003,-0.07173929931640625,0.88423486328125
-0.40523974609375,-0.042328459472656246,0.9252778857421875
-0.45143720703125,-0.1102184814453125,0.969270107421875
-0.4944737890625,-0.0866898095703125,0.9808211376953125
-0.44997833984375,-0.06781785400390625,0.882760263671875
-0.50347013671875,-0.06781785400390625,0.7640549951171876
-0.46529644531250003,-0.0533575244140625,0.782487490234375
-0.45240978515625,-0.075415654296875,0.8127167822265625
-0.4438997265625,-0.044534272460937496,0.878827998046875
-0.44292714843750003,7.216796875000007e-05,0.904387724609375
-0.46019041015625,0.0387964404296875,0.9129895556640625
-0.4808576953125,0.04296297607421875,0.985982236328125
-0.53751037109375,0.0133070458984375,1.0058893310546875
-0.5207333984375,0.085363603515625,0.9950756005859375
-0.4905834765625,0.0133070458984375,0.8731753662109375
-0.46408072265625,0.06845237060546874,0.9245405859375
-0.4045103125,0.028502646484374998,0.9582106103515625
-0.48450486328125,-0.0180645166015625,0.9906518017578125
-0.4823165625,0.0152677685546875,1.01203349609375
-0.5110076171875,-0.02860340087890625,0.901438525390625
-0.52535314453125,-0.03105430419921875,0.8397511083984375
-0.43441708984375,-0.06781785400390625,0.86457353515625
-0.47526537109375,-0.0935523388671875,0.87243806640625
-0.432715078125,-0.1004148681640625,0.9503460791015625
-0.50492900390625,-0.081297822265625,0.8987350927734374
-0.4511940625,-0.06683749267578125,0.8992266259765624
-0.4011062890625,-0.0866898095703125,0.820335546875
-0.39745912109375,-0.13350206298828124,0.862115869140625
-0.368524921875,-0.06732767333984375,0.97467697265625
-0.4409819921875,-0.0710040283203125,0.9813126708984374
-0.467727890625,-0.00850599365234375,0.9129895556640625
-0.50687416015625,-0.0592396923828125,0.7994453857421875
-0.43782111328125,-0.07443529296875,0.79772501953125
-0.4370916796875,-0.03399538818359375,0.827708544921875
-0.41739697265625,-0.04698517578125,0.820827080078125
-0.38676076171875,-0.02909358154296875,0.8289373779296875
-0.4682141796875,-0.0097314453125,0.8159117480468749
-0.33983386718749997,-0.022476142578125,0.8481071728515625
-0.36196001953125,-0.00997653564453125,0.9031588916015625
-0.50055240234375,0.02580665283203125,0.9508376123046876
-0.42323244140625,0.08511851318359374,0.89504859375
-0.47915568359375,-0.00262382568359375,0.8377849755859375
-0.508576171875,0.0721287255859375,0.931913583984375
-0.4584883984375,0.11649007568359375,0.95108337890625
-0.426879609375,0.056933125,0.9759058056640625
-0.45775896484375,0.06158984130859375,1.02186416015625
-0.48304599609375,0.02041466552734375,1.0412797216796874
-0.42760904296875,0.0486000537109375,0.9370746826171875
-0.378250703125,-0.0018885546875000003,0.8254966455078125
-0.4341739453125,-0.022476142578125,0.838522275390625
-0.49520322265625,-0.048455717773437504,0.937811982421875
-0.485234296875,0.0201695751953125,0.95108337890625
-0.566930859375,-0.04870080810546875,0.9744312060546875
-0.45873154296875,0.04884514404296875,0.959439443359375
-0.45386865234375,0.0564429443359375,0.92748978515625
-0.44924890625,0.0397768017578125,0.946659580078125
-0.45630009765625,0.0407571630859375,0.90586232421875
-0.42712275390625,0.0280124658203125,0.890624794921875
-0.47818310546875,-0.0055649096679687505,0.8608870361328125
-0.38821962890625,0.0025230712890624996,0.8662939013671875
-0.42274615234375,0.0329142724609375,0.855234404296875
-0.43976626953125,-0.030073942871093752,0.9208540869140625
-0.4458448828125,-0.01732924560546875,1.08674654296875
-0.535808359375,-0.0347306591796875,1.1388490625
-0.50055240234375,0.07139345458984375,1.08871267578125
-0.4798851171875,-0.1033559521484375,0.9582106103515625
-0.41423609375,-0.018554697265625,1.0582376171875
-0.467727890625,-0.07222947998046875,1.0466865869140625
-0.5012818359375,-0.1023755908203125,0.988931435546875
-0.41934212890625,-0.05850442138671875,0.9090572900390625
-0.43830740234375,-0.08987598388671875,0.8731753662109375
-0.38043900390625,0.015022678222656249,0.929947451171875
-0.465782734375,-0.08448399658203125,0.9621428759765625
-0.477453671875,-0.00752563232421875,1.0395593554687501
-0.5333769140625,-0.08227818359375,0.9508376123046876
-0.5148979296875,-0.00409436767578125,0.988931435546875
-0.50736044921875,-0.023456503906250002,0.9980247998046875
-0.5187882421875,-0.0788469189453125,1.037101689453125
-0.41788326171875,0.030463369140625002,1.106899404296875
-0.54067125,-0.030319033203124998,1.024321826171875
-0.4341739453125,-0.00997653564453125,0.9906518017578125
-0.44171142578125,0.07678544189453125,0.9164302880859375
-0.4390368359375,0.022620478515625,0.8567090039062499
-0.4672416015625,0.021640117187500002,0.9321593505859375
-0.50930560546875,-0.0170841552734375,0.953541044921875
-0.4438997265625,0.0030132519531249997,0.9311762841796875
-0.55307162109375,0.0069346972656249995,0.851793671875
-0.48547744140625,-0.0347306591796875,0.8087845166015625
-0.50103869140625,-0.01879978759765625,0.777080625
-0.47818310546875,-0.04428918212890625,0.8368019091796874
-0.366579765625,-0.0366913818359375,0.869980400390625
-0.4166675390625,-0.0504164404296875,0.8874298291015625
-0.43587595703125,-0.02762303955078125,0.992863701171875
-0.424934453125,-0.02713285888671875,0.8805483642578125
-0.39600025390625,0.0030132519531249997,0.820827080078125
-0.3515048046875,-0.0043394580078125,0.834590009765625
-0.37606240234375,-0.02737794921875,0.912252255859375
-0.52681201171875,-0.0406128271484375,0.9719735400390626
-0.448276328125,-0.0151234326171875,0.9407611816406249
-0.4915560546875,0.010856142578125,0.8195982470703125
-0.4244481640625,-0.057278969726562504,0.832623876953125
-0.3933256640625,-0.08252327392578125,0.8662939013671875
-0.40232201171875,0.010856142578125,0.9306847509765624
-0.37654869140625,-0.032279755859375,0.85867513671875
-0.30360533203125,0.0008074389648437498,0.8210728466796875
-0.3670660546875,-0.0249270458984375,0.80067421875
-0.40280830078125,-0.06585713134765625,0.8230389794921875
-0.38311359375,0.0348749951171875,0.8245135791015625
-0.44462916015625,-0.0141430712890625,0.8328696435546875
-0.424934453125,-0.010221625976562499,0.8712092333984375
-0.42517759765625,-0.01438816162109375,0.8380307421875
-0.41204779296875,-0.00409436767578125,0.7829790234375
-0.338375,0.0142874072265625,0.887675595703125
-0.439523125,-0.08105273193359375,0.908319990234375
-0.39989056640625,-0.0175743359375,0.95796484375
-0.26810623046875,-0.00654527099609375,0.9513291455078126
-0.28974609375,-0.0710040283203125,1.0152284619140626
-0.341292734375,-0.006790361328125,1.120662333984375
-0.35417939453125,-0.03203466552734375,1.1565442578125
-0.3709563671875,-0.0366913818359375,1.1263149658203124
-0.471618203125,0.05325677001953125,1.119679267578125
-0.47477908203125,-0.026397587890625,1.0545511181640626
-0.49034033203125,-0.03129939453125,0.9877026025390625
-0.3811684375,0.03855135009765625,0.9439561474609375
-0.3583128515625,-0.0249270458984375,0.8790737646484375
-0.33910443359375,-0.036201201171875,0.8790737646484375
-0.32013916015625,-0.05556333740234375,0.839996875
-0.37168580078125,-0.02958376220703125,0.9009469921875
-0.33424154296874997,-0.0004180126953125,0.9837703369140625
-0.41934212890625,0.04835496337890625,1.096085673828125
-0.44730375,0.0740894482421875,1.1553154248046875
-0.44414287109375,0.106931552734375,1.0958399072265625
-0.47648109375000003,-0.0366913818359375,0.989914501953125
-0.430769921875,0.030463369140625002,0.96484630859375
-0.4332013671875,-0.01046671630859375,0.86850580078125
-0.4662690234375,-0.02517213623046875,0.8365561425781249
-0.34104958984375,-0.037916833496093746,0.8694888671875
-0.4166675390625,-0.09330724853515625,0.9183964208984375
-0.36585033203125,0.00227798095703125,1.0142453955078126
-0.32864921874999997,-0.1229631787109375,0.9562444775390625
-0.34250845703125,-0.0533575244140625,0.9901602685546875
-0.48353228515625,-0.01683906494140625,1.057746083984375
-0.46797103515625,-0.077376376953125,1.0638902490234374
-0.4837754296875,-0.03301502685546875,1.02383029296875
-0.41204779296875,-0.08007237060546875,0.926015185546875
-0.35709712890625,-0.092081796875,0.825742412109375
-0.36220316406249997,0.011346323242187501,0.8746499658203125
-0.335457265625,0.0030132519531249997,1.015474228515625
-0.42615017578125003,-0.055073156738281254,1.0383305224609374
-0.39065107421875,0.0044837939453125,1.08674654296875
-0.368524921875,-0.068553125,1.0191607275390624
-0.38287044921875,-0.051886982421875,0.9346170166015625
-0.325731484375,0.02752228515625,0.871946533203125
-0.38870591796875,0.00619942626953125,0.816894814453125
-0.39891798828125,-0.00752563232421875,0.93338818359375
-0.452166640625,0.09345158447265625,1.0152284619140626
-0.4098594921875,0.05668803466796875,0.8908705615234375
-0.3612305859375,0.04443351806640625,0.8557259375
-0.2882872265625,0.04198261474609375,0.839996875
-0.3952708203125,0.03561026611328125,0.8987350927734374
-0.3437241796875,0.0338946337890625,1.007609697265625
-0.36098744140625,0.0623251123046875,1.00810123046875
-0.38870591796875,0.05031568603515625,0.9488714794921875
-0.36755234375,-0.01978014892578125,0.8938197607421875
-0.37314466796875,0.05374695068359375,0.875387265625
-0.42177357421875,-0.008996174316406251,0.777572158203125
-0.3709563671875,-0.0092412646484375,0.80853875
-0.2722396875,-0.03154448486328125,0.8068183837890625
-0.415208671875,-0.036201201171875,0.81345408203125
-0.36730919921875,-0.00581,0.899472392578125
-0.41058892578125,0.03536517578125,0.89209939453125
-0.31989601562500003,0.05570767333984375,0.90389619140625
-0.37168580078125,-0.03399538818359375,0.9395323486328125
-0.28464005859375,0.02286556884765625,0.9606682763671874
-0.2999581640625,0.00963069091796875,0.9080742236328125
-0.3874901953125,-0.05360261474609375,0.9508376123046876
-0.30360533203125,0.09002031982421875,0.98942296875
-0.47648109375000003,-0.01144707763671875,0.9095488232421876
-0.290718671875,-0.06438658935546875,0.967303974609375
-0.34396732421875,-0.03252484619140625,0.9186421875
-0.38627447265625,-0.05752406005859375,0.9360916162109375
-0.265431640625,-0.046004814453125,0.9311762841796875
-0.34007701171875,-0.05360261474609375,0.9287186181640625
-0.35588140625,-0.0332601171875,0.9931094677734374
-0.37946642578125,-0.0298288525390625,1.0385762890625
-0.2882872265625,-0.05164189208984375,1.00515203125
-0.38092529296875,-0.03252484619140625,0.9729566064453125
-0.29144810546875,-0.037916833496093746,0.9945840673828125
-0.35199109375,-0.03644629150390625,0.906845390625
-0.3942982421875,0.0338946337890625,0.9562444775390625
-0.3631757421875,-0.0739451123046875,0.9626344091796875
-0.31308796875,0.0201695751953125,0.9795923046875
-0.38092529296875,-0.0533575244140625,0.938303515625
-0.354908828125,-0.05017135009765625,0.9414984814453125
-0.339347578125,0.07188363525390624,0.93437125
-0.3262177734375,-0.069533486328125,0.9196252539062499
-0.3291355078125,0.02433611083984375,1.012525029296875
-0.376305546875,-0.0004180126953125,1.0857634765625
-0.4225030078125,-0.0543378857421875,1.0353813232421876
-0.38505875,0.06011929931640625,0.9606682763671874
-0.40280830078125,-0.10899302978515625,0.8815314306640625
-0.33326896484375,-0.04772044677734375,0.8569547705078124
-0.392839375,-0.09085634521484375,0.7989538525390625
-0.26616107421875,-0.10580685546875,0.7773263916015625
-0.3320532421875,-0.1102184814453125,0.781504423828125
-0.314060546875,-0.0415931884765625,0.9247863525390625
-0.33813185546875,0.01551285888671875,0.9360916162109375
-0.37168580078125,-0.07370002197265625,0.95108337890625
-0.34396732421875,0.0530116796875,1.0503730859375
-0.393811953125,-0.10164031982421876,0.9931094677734374
-0.37363095703125,0.0348749951171875,0.9936010009765625
-0.33667298828125003,-0.01781942626953125,0.9336339501953125
-0.38676076171875,0.00276816162109375,0.917167587890625
-0.27613,-0.00752563232421875,0.9011927587890625
-0.34396732421875,0.0054641552734375,0.8643277685546875
-0.2989855859375,0.110852998046875,0.9481341796875
-0.3446967578125,-0.006790361328125,0.92552365234375
-0.35904228515625003,0.07776580322265625,0.97664310546875
-0.3339983984375,0.083402880859375,0.9872110693359375
-0.44560173828125,0.053992041015625,0.8913620947265625
-0.29144810546875,0.07433453857421875,0.8852179296875
-0.36585033203125,0.057913486328125,0.8333611767578125
-0.35612455078125,0.0348749951171875,0.91077765625
-0.33253953125,0.044188427734375,0.92552365234375
-0.27102396484375,0.0387964404296875,0.9483799462890625
-0.2736985546875,0.06845237060546874,1.0235845263671874
-0.47526537109375,0.03928662109375,1.0604495166015624
-0.36147373046875,0.13462676025390624,1.0661021484375
-0.39989056640625,0.05325677001953125,0.929947451171875
-0.3656071875,-0.052867343750000004,0.8579378369140624
-0.21218298828125,0.06894255126953125,0.8815314306640625
-0.29485212890625,-0.10850284912109374,0.8304119775390625
-0.32062544921875,-0.00581,0.931913583984375
-0.3262177734375,-0.0729647509765625,0.9439561474609375
-0.39405509765625,-0.0001729223632812504,0.9773804052734375
-0.32597462890625,0.0008074389648437498,0.9680412744140625
-0.40062,-0.0710040283203125,0.8402426416015625
-0.2688356640625,-0.0013983740234375002,0.839996875
-0.2980130078125,-0.07419020263671874,0.772656826171875
-0.2177753125,-0.08301345458984374,0.83311541015625
-0.2099946875,-0.059729873046875,0.8289373779296875
-0.32500205078125,-0.06267095703125,0.8756330322265625
-0.21801845703125,-0.04306373046875,0.8235305126953125
-0.36293259765625,-0.0876701708984375,0.756927763671875
-0.1633109375,0.11967625,0.949608779296875
-0.421044140625,-0.09428760986328125,1.043983154296875
-0.41691068359375,0.056933125,1.2698426611328124
-0.4011062890625,0.06796218994140625,1.1327048974609375
-0.41593810546875,0.00766996826171875,1.0184234277343749
-0.26616107421875,0.0608545703125,1.0137538623046876
-0.33618669921875,-0.00703545166015625,0.93535431640625
-0.2450075,-0.0082609033203125,1.004660498046875
-0.41447923828125,-0.1788437744140625,0.9402696484374999
-0.2834243359375,0.01183650390625,0.905370791015625
-0.3719289453125,-0.12712971435546874,0.7955131201171874
-0.48401857421875,-0.06781785400390625,0.8751414990234375
-0.38773333984375,-0.01193725830078125,0.8989808593749999
-0.3942982421875,-0.09845414550781251,0.9390408154296875
-0.39308251953125,-0.0151234326171875,0.9528037451171875
-0.4234755859375,-0.16070708984375,0.9749227392578125
-0.3500459375,-0.01928996826171875,0.973202373046875
-0.36001486328125,0.0294830078125,1.01989802734375
-0.39113736328125,-0.00360418701171875,1.1132893359375
-0.56863287109375,-0.042083369140625,1.127543798828125
-0.51027818359375,-0.05801424072265625,0.950591845703125
-0.366579765625,-0.0661022216796875,0.792318154296875
-0.27151025390625,-0.0249270458984375,0.7915808544921875
-0.33521412109375,0.028257556152343752,0.95304951171875
-0.44511544921875,-0.06634731201171876,1.0329236572265625
-0.479398828125,-0.0396324658203125,0.951574912109375
-0.48450486328125,0.0093856005859375,0.8692431005859375
-0.39162365234375,-0.01830960693359375,0.849336005859375
-0.3787369921875,0.0025230712890624996,0.8849721630859375
-0.463837578125,-0.00262382568359375,1.0702801806640625
-0.39454138671875,-0.0259074072265625,1.0948568408203125
-0.4278521875,-0.0151234326171875,1.1056705712890624
-0.399647421875,0.07188363525390624,0.9660751416015625
-0.3612305859375,-0.03546593017578125,0.8574463037109374
-0.36755234375,0.12384278564453124,0.9599309765625
-0.3194097265625,0.09296140380859375,1.089204208984375
-0.4011062890625,0.07090327392578125,1.2246216064453126
-0.46748474609375,0.06355056396484375,1.19684998046875
-0.4808576953125,0.10227483642578125,1.0294829248046875
-0.3835998828125,0.07139345458984375,0.928964384765625
-0.32548833984375003,0.03021827880859375,0.962388642578125
-0.4477900390625,0.02433611083984375,1.038084755859375
-0.28585578125,-0.07419020263671874,1.07101748046875
-0.36876806640625,-0.11757119140625,0.954032578125
-0.29387955078125,-0.08963089355468751,0.9547698779296875
-0.35977171875,-0.07664110595703125,0.8667854345703125
-0.32086859375,-0.095022880859375,0.8603955029296875
-0.34810078125,-0.0886505322265625,0.917167587890625
-0.3446967578125,-0.02370159423828125,1.025304892578125
-0.37557611328125,-0.06536695068359374,0.97074470703125
-0.315033125,-0.11487519775390626,0.8387680419921875
-0.28366748046875,-0.13546278564453124,0.8594124365234375
-0.32597462890625,-0.04036773681640625,0.9891772021484375
-0.34445361328125,-0.09869923583984375,0.991880634765625
-0.41642439453125,-0.00850599365234375,0.8967689599609375
-0.35466568359375,-0.06242586669921875,0.8105048828125
-0.3952708203125,-0.0562986083984375,0.7080202099609375
-0.31187224609374997,0.0191892138671875,0.6716467529296875
-0.26761994140625,0.0848734228515625,0.6613245556640625
-0.3962433984375,0.126538779296875,0.663044921875
-0.30214646484375,0.008405239257812499,0.653705791015625
-0.27053767578125,0.1510478125,0.741690234375
-0.41836955078125,0.12947986328125,0.7950215869140624
-0.30919765625,0.0878145068359375,0.9965502001953125
-0.49374435546875,0.1476165478515625,0.97271083984375
-0.41618125,0.0819323388671875,0.8348357763671875
-0.2192341796875,-0.045024453125,0.81640328125
-0.29144810546875,-0.09722869384765626,0.9002096923828125
-0.34737134765625,-0.0886505322265625,1.0933822412109375
-0.393811953125,-0.12026718505859375,1.197341513671875
-0.39478453125,-0.1161006494140625,1.1172216015625
-0.44900576171875,0.057668395996093746,0.9542783447265625
-0.35417939453125,-0.0474753564453125,0.7947758203124999
-0.469673046875,-0.036201201171875,0.9115149560546875
-0.31430369140625003,0.03217900146484375,0.9599309765625
-0.40523974609375,-0.03154448486328125,0.94911724609375
-0.35515197265625,0.00668960693359375,0.957473310546875
-0.32281375,-0.04772044677734375,0.9414984814453125
-0.42590703125,-0.05801424072265625,0.9582106103515625
-0.4828028515625,-0.1082577587890625,0.97664310546875
-0.46091984375,-0.00262382568359375,0.9965502001953125
-0.44414287109375,-0.022476142578125,1.0009739990234374
-0.4040240234375,0.0025230712890624996,1.0742124462890625
-0.403537734375,0.01796376220703125,1.0778989453125
-0.4118046484375,0.0711483642578125,1.079373544921875
-0.3991611328125,-0.0288484912109375,0.9729566064453125
-0.4127772265625,0.0946770361328125,0.947642646484375
-0.35588140625,-0.0200252392578125,0.9442019140625
-0.4234755859375,0.05962911865234375,1.1096028369140625
-0.44146828125,-0.04526954345703125,1.14573052734375
-0.51757251953125,-0.0001729223632812504,1.1228742333984374
-0.4254207421875,0.0162481298828125,1.0299744580078125
-0.46456701171875,-0.0053198193359375,1.00810123046875
-0.53118861328125,-0.01169216796875,1.061678349609375
-0.4001337109375,-0.05115171142578125,1.09264494140625
-0.43393080078125,-0.0141430712890625,0.9768888720703125
-0.4390368359375,0.09002031982421875,0.98647376953125
-0.349073359375,-0.1062970361328125,0.9827872705078124
-0.37119951171875,0.04982550537109375,0.997779033203125
-0.4049966015625,0.04933532470703125,1.115747001953125
-0.4195852734375,-0.04134809814453125,1.137374462890625
-0.590272734375,-0.02762303955078125,1.158510390625
-0.4944737890625,-0.01193725830078125,1.0294829248046875
-0.5411575390625,-0.12933552734375,0.8726838330078125
-0.282938046875,-0.1837455810546875,0.78199595703125
-0.30919765625,-0.1710008837890625,0.68762158203125
-0.30749564453125,-0.10286577148437501,0.82525087890625
-0.31989601562500003,-0.0857094482421875,0.89799779296875
-0.32840607421875,-0.07075893798828126,0.930438984375
-0.25692158203125,-0.0719843896484375,1.047915419921875
-0.21655958984375,-0.05556333740234375,1.3089195507812499
-0.33108066406250003,-0.0063001806640625,1.4256586865234375
-0.45702953125,0.12482314697265626,1.36692046875
-0.48037140625,0.07335417724609375,1.246494833984375
-0.426879609375,0.11649007568359375,1.0771616455078126
-0.32159802734375,0.05374695068359375,0.9852449365234375
-0.33521412109375,-0.0011532836914062497,0.83704767578125
-0.30798193359375,0.09418685546875,0.8210728466796875
-0.21412814453125,0.11207844970703125,0.8289373779296875
-0.19273142578125,0.0682072802734375,0.7554531640625
-0.2386857421875,0.17188049072265624,0.871946533203125
-0.34639876953125,0.0456589697265625,0.9341254833984375
-0.41423609375,-0.01830960693359375,1.012525029296875
-0.34639876953125,0.1000690234375,0.922082919921875
-0.3116291015625,-0.03448556884765625,0.8058353173828126
-0.210967265625,-0.042328459472656246,0.7139186083984375
-0.2931501171875,-0.1116890234375,0.6106966357421875
-0.1647698046875,-0.13742350830078126,0.6224934326171875
-0.26810623046875,-0.1484525732421875,0.686146982421875
-0.3145468359375,-0.0200252392578125,0.8741584326171875
-0.2450075,-0.1190417333984375,0.9677955078125
-0.3233000390625,-0.0523771630859375,1.075441279296875
-0.28123603515625,0.011346323242187501,1.0304659912109375
-0.24768208984375,-0.11340465576171875,0.8318865771484375
-0.17473873046875,-0.0161037939453125,0.7593854296875
-0.27807515625,-0.055808427734375,0.766758427734375
-0.2600824609375,-0.04870080810546875,0.8962774267578125
-0.23309341796875,-0.09918941650390625,1.0130165625
-0.36585033203125,-0.00581,1.1010010058593749
-0.37338781249999997,-0.0366913818359375,0.9827872705078124
-0.24476435546875,0.063795654296875,0.876861865234375
-0.25935302734375,0.0054641552734375,0.8065726171875
-0.35904228515625003,0.07286399658203124,0.942727314453125
-0.302389609375,0.03462990478515625,0.9356000830078125
-0.2931501171875,0.05668803466796875,0.9105318896484375
-0.30360533203125,-0.03644629150390625,0.909303056640625
-0.23747001953125,0.09786321044921875,0.9891772021484375
-0.35952857421875,0.016738310546875,1.0068723974609375
-0.30117388671875,0.04247279541015625,1.0653648486328124
-0.25643529296875,-0.045024453125,0.9891772021484375
-0.42712275390625,0.02752228515625,1.032186357421875
-0.41423609375,0.067717099609375,1.0850261767578124
-0.3242726171875,-0.047965537109375,0.934862783203125
-0.35344996093750003,-0.04575972412109375,0.8989808593749999
-0.26372962890625,-0.04036773681640625,0.9616513427734374
-0.29825615234375,-0.03742665283203125,1.0412797216796874
-0.34737134765625,0.0701680029296875,1.108865537109375
-0.37533296875,-0.004829638671875,1.0179318945312499
-0.39551396484375,-0.02517213623046875,0.99433830078125
-0.30992708984375,-0.0700236669921875,1.044966220703125
-0.408400625,-0.06928839599609375,1.081339677734375
-0.37606240234375,0.04296297607421875,1.0068723974609375
-0.43247193359375,-0.09379742919921875,0.84491220703125
-0.37411724609375,-0.063651318359375,0.73874103515625
-0.29825615234375,-0.0268877685546875,0.773148359375
-0.20197091796875,-0.14918784423828124,0.765775361328125
-0.22288134765625,-0.02615249755859375,0.9601767431640625
-0.30871136718750003,0.06355056396484375,1.0653648486328124
-0.35758341796875,-0.0327699365234375,0.996795966796875
-0.30919765625,0.12825441162109374,1.030220224609375
-0.399647421875,-0.03350520751953125,1.0722463134765625
-0.39502767578125,-0.0072805419921875,1.1823497509765626
-0.36779548828124997,0.0211499365234375,1.138357529296875
-0.34542619140624997,-0.03644629150390625,0.92159138671875
-0.2659179296875,-0.0621807763671875,0.8159117480468749
-0.34810078125,-0.006790361328125,0.8009199853515625
-0.20245720703125,-0.03546593017578125,0.835573076171875
-0.25862359375,0.0740894482421875,1.0663479150390625
-0.3515048046875,0.05423713134765625,1.137374462890625
-0.403537734375,0.04639424072265625,1.0329236572265625
-0.29096181640625,0.05521749267578125,0.9100403564453124
-0.304334765625,0.02972809814453125,0.8309035107421875
-0.32864921874999997,-0.0011532836914062497,0.845403740234375
-0.23212083984375,-0.0631611376953125,0.9144641552734375
-0.31284482421875,-0.06291604736328126,0.9493630126953125
-0.2912049609375,-0.013652890625,1.0004824658203124
-0.3048210546875,-0.0298288525390625,1.06511908203125
-0.32086859375,0.0593840283203125,1.0503730859375
-0.28366748046875,0.0162481298828125,0.99827056640625
-0.32597462890625,0.0407571630859375,0.9478884130859375
-0.19467658203125,0.01208159423828125,0.9562444775390625
-0.280992890625,-0.09012107421875,0.947642646484375
-0.1744955859375,0.0436982470703125,1.0319405908203125
-0.28804408203125,0.008895419921875,0.8997181591796874
-0.370470078125,0.030708459472656248,0.9284728515625
-0.23406599609375,0.09884357177734375,1.0385762890625
-0.4434134375,0.008405239257812499,0.9488714794921875
-0.1599069140625,0.0003172583007812497,0.9783634716796875
-0.3038484765625,-0.01978014892578125,0.90782845703125
-0.29169125,-0.024436865234375,0.9577190771484375
-0.221665625,-0.09183670654296874,0.922082919921875
-0.33715927734375,0.01600303955078125,0.9444476806640625
-0.29242068359375,-0.077376376953125,0.88030259765625
-0.21266927734375,-0.1386489599609375,0.9051250244140625
-0.20634751953125,-0.00948635498046875,0.95796484375
-0.25862359375,-0.1092381201171875,1.0245675927734375
-0.27005138671875,-0.052867343750000004,1.097068740234375
-0.47404964843749997,-0.0170841552734375,0.9768888720703125
-0.2124261328125,-0.0817880029296875,0.8746499658203125
-0.28172232421875,-0.07762146728515625,0.8323781103515625
-0.11589775390625,7.216796875000007e-05,0.9965502001953125
-0.37338781249999997,-0.0011532836914062497,1.128526865234375
-0.36633662109375,0.1309504052734375,1.1184504345703126
-0.3816547265625,0.15521434814453125,0.9036504248046875
-0.1866528125,0.09982393310546875,0.9498545458984375
-0.2873146484375,0.1446754638671875,1.0933822412109375
-0.37508982421875,0.087324326171875,1.293682021484375
-0.41642439453125,0.0525214990234375,1.213070576171875
-0.43830740234375,0.10399046875,0.9877026025390625
-0.31868029296875,0.14688127685546876,0.8741584326171875
-0.3077387890625,0.036345537109375,0.77806369140625
-0.346155625,-0.02713285888671875,0.82525087890625
-0.30141703125,-0.028113220214843748,0.890624794921875
-0.38578818359375,-0.108747939453125,0.8510563720703125
-0.35077537109375,0.0015427099609375003,0.88620099609375
-0.3612305859375,-0.13693332763671875,0.835573076171875
-0.36536404296875,-0.0435539111328125,0.963371708984375
-0.45411179687500003,0.046149150390625,1.015474228515625
-0.3485870703125,-0.02737794921875,0.9429730810546875
-0.296554140625,-0.01978014892578125,0.899472392578125
-0.380195859375,-0.05556333740234375,0.9188879541015624
-0.38335673828125,0.015022678222656249,0.9835245703125
-0.31576255859375,-0.0190448779296875,1.00515203125
-0.37265837890625,-0.01193725830078125,0.9955671337890625
-0.46529644531250003,0.0397768017578125,0.98057537109375
-0.39600025390625,-0.0259074072265625,0.89504859375
-0.3602580078125,0.04639424072265625,0.8667854345703125
-0.39113736328125,0.08266760986328126,0.954524111328125
-0.29971501953125,0.1113431787109375,0.995812900390625
-0.4312562109375,0.00276816162109375,0.95698177734375
-0.38432931640625,0.14982236083984374,0.97074470703125
-0.3057936328125,-0.0072805419921875,0.969270107421875
-0.43782111328125,0.02874773681640625,1.005643564453125
-0.2902323828125,0.05570767333984375,1.027271025390625
-0.4341739453125,-0.07075893798828126,0.993355234375
-0.4808576953125,0.07237381591796875,1.043983154296875
-0.374360390625,-0.07566074462890625,0.92650671875
-0.374360390625,0.00178780029296875,0.906845390625
-0.37144265625,-0.025662316894531252,0.867522734375
-0.43782111328125,0.0172284912109375,0.859166669921875
-0.21315556640625,7.216796875000007e-05,0.8839890966796875
-0.37800755859375,-0.03546593017578125,0.861132802734375
-0.31284482421875,0.04737460205078125,0.943710380859375
-0.46942990234375,-0.0464949951171875,0.8223016796875
-0.32257060546875,-0.04379900146484375,0.8014115185546875
-0.2756437109375,-0.0254172265625,0.849336005859375
-0.43757796875,-0.11193411376953125,0.95501564453125
-0.40669861328125,-0.055808427734375,0.922574453125
-0.294608984375,-0.048455717773437504,0.8871840625
-0.29582470703125,-0.03252484619140625,0.9528037451171875
-0.42590703125,0.01575794921875,1.0476696533203125
-0.27734572265625,0.00276816162109375,1.0609410498046874
-0.43587595703125,-0.03987755615234375,0.9459222802734375
-0.20002576171875,0.08242251953125,0.9599309765625
-0.30506419921875,-0.0332601171875,0.959439443359375
-0.36390517578125,0.0765403515625,1.049881552734375
-0.29436583984375,0.10619628173828125,1.004660498046875
-0.325731484375,0.09737302978515625,0.9729566064453125
-0.2970404296875,0.07776580322265625,1.0398051220703124
-0.294608984375,0.07629526123046874,1.1329506640625
-0.314060546875,0.03021827880859375,1.05332228515625
-0.33375525390625,-0.008751083984375,0.9604225097656249
-0.33108066406250003,0.03659062744140625,1.0216183935546874
-0.4045103125,-0.037916833496093746,0.9700074072265625
-0.16160892578125,-0.069533486328125,0.9080742236328125
-0.1774133203125,-0.09845414550781251,0.855234404296875
-0.26664736328125,-0.0955130615234375,0.9815584374999999
-0.2153438671875,-0.10286577148437501,1.03759322265625
-0.34591248046875,-0.05017135009765625,1.0063808642578125
-0.31624884765625,-0.03399538818359375,0.957473310546875
-0.2450075,-0.0670825830078125,0.928964384765625
-0.24525064453125,0.02923791748046875,0.99237216796875
-0.347128203125,-0.05115171142578125,0.916184521484375
-0.191515703125,0.0338946337890625,0.9321593505859375
-0.271267109375,0.04149243408203125,0.8771076318359375
-0.29193439453125003,-0.15261910888671876,0.9127437890625
-0.1744955859375,0.06109966064453125,0.9970417333984375
-0.2878009375,0.01845394287109375,0.8928366943359375
-0.2124261328125,0.0123266845703125,0.9183964208984375
-0.29193439453125003,0.03610044677734375,0.9407611816406249
-0.368524921875,0.0456589697265625,1.0110504296875
-0.205131796875,0.06453092529296875,0.976151572265625
-0.2474389453125,0.0878145068359375,0.9985163330078125
-0.267376796875,0.09933375244140626,0.961897109375
-0.29242068359375,0.03021827880859375,0.880794130859375
-0.23309341796875,0.08462833251953125,0.9284728515625
-0.2591098828125,-0.018554697265625,0.91765912109375
-0.325731484375,0.04296297607421875,1.00023669921875
-0.29144810546875,-0.0690433056640625,0.9670582080078125
-0.26081189453125,-0.075415654296875,0.8481071728515625
-0.2328502734375,0.03217900146484375,0.875387265625
-0.2133987109375,0.091245771484375,1.0648733154296874
-0.2133987109375,-0.0621807763671875,0.9999909326171875
-0.26616107421875,0.052031318359375,1.042017021484375
-0.27418484375,0.07286399658203124,0.983033037109375
-0.30068759765624997,-0.01291761962890625,0.8943112939453125
-0.24622322265625,0.04835496337890625,0.90782845703125
-0.22361078125,-0.006790361328125,0.8682600341796876
-0.2484115234375,-0.0013983740234375002,1.0014655322265624
-0.28074974609375003,-0.01732924560546875,1.1022298388671874
-0.38311359375,-0.1023755908203125,1.05528841796875
-0.183735078125,-0.046740085449218746,0.9429730810546875
-0.21996361328125,-0.083258544921875,0.82131861328125
-0.13948277343749999,-0.10556176513671875,0.8633447021484375
-0.21169669921875,-0.01046671630859375,0.9518206787109375
-0.3223274609375,-0.013407800292968751,1.034152490234375
-0.26810623046875,-0.00605509033203125,0.9936010009765625
-0.27588685546875,-0.03252484619140625,1.058729150390625
-0.29193439453125003,0.0515411376953125,1.079373544921875
-0.277102578125,0.00766996826171875,0.9820499707031249
-0.16549923828125,0.0133070458984375,0.8572005371093749
-0.1958923046875,0.0378160791015625,0.8500733056640625
-0.1958923046875,0.050070595703125,1.000728232421875
-0.3446967578125,-0.01830960693359375,1.0697886474609375
-0.31697828125,0.01453249755859375,1.0776531787109376
-0.27102396484375,-0.03154448486328125,0.94321884765625
-0.23163455078125,0.08707923583984375,0.9115149560546875
-0.265431640625,0.03364954345703125,0.83508154296875
-0.292663828125,0.05570767333984375,0.8245135791015625
-0.185680234375,0.03610044677734375,0.9397781152343749
-0.2746711328125,0.042227705078125,0.9724650732421874
-0.19224513671875,-0.07026875732421875,0.9980247998046875
-0.28123603515625,0.0069346972656249995,1.065610615234375
-0.3038484765625,-0.04723026611328125,0.984999169921875
-0.20391607421875,0.0848734228515625,0.937811982421875
-0.3067662109375,-0.05654369873046875,0.8987350927734374
-0.28585578125,0.1392834765625,1.0307117578125
-0.23406599609375,0.004973974609375,1.0830600439453124
-0.24233291015625,0.07482471923828125,1.131476064453125
-0.19346085937500002,0.08242251953125,1.1268064990234374
-0.32281375,-0.018554697265625,1.0673309814453125
-0.2795340234375,0.03659062744140625,1.0658563818359374
-0.24695265625,0.0436982470703125,1.048406953125
-0.298499296875,-0.013652890625,1.0592206835937499
-0.19175884765625,-0.0016434643554687498,1.0334151904296875
-0.3359435546875,0.028257556152343752,0.9992536328125
-0.33132380859375,-0.09477779052734375,0.974185439453125
-0.247925234375,-0.046740085449218746,1.0088385302734375
-0.17814275390625,-0.0788469189453125,1.0722463134765625
-0.32354318359375,-0.067572763671875,1.058729150390625
-0.2722396875,0.0015427099609375003,1.0791277783203126
-0.23601115234375,0.03315936279296875,1.07298361328125
-0.360744296875,-0.130315888671875,1.0661021484375
-0.214857578125,0.0682072802734375,1.1263149658203124
-0.25886673828125,0.00963069091796875,0.9685328076171875
-0.299471875,-0.01561361328125,0.8795652978515625
-0.24330548828125,0.0005623486328125002,0.9007012255859375
-0.21972046875,-0.10972830078125,0.968287041015625
-0.2931501171875,-0.08056255126953125,1.0624156494140624
-0.24695265625,-0.07909200927734375,0.9931094677734374
-0.26616107421875,-0.0259074072265625,0.9203625537109374
-0.29436583984375,-0.0690433056640625,0.907336923828125
-0.3680386328125,-0.025662316894531252,0.9960586669921875
-0.2153438671875,-0.05311243408203125,1.0265337255859375
-0.31284482421875,-0.0827683642578125,1.01006736328125
-0.2902323828125,0.00521906494140625,0.9532952783203125
-0.23114826171875,0.0142874072265625,0.8343442431640625
-0.2095083984375,-0.0210056005859375,0.78789435546875
-0.2717533984375,0.01845394287109375,0.8594124365234375
-0.24281919921875,-0.028113220214843748,1.020389560546875
-0.29047552734375,-0.03105430419921875,1.0132623291015626
-0.17376615234375,0.01159141357421875,1.0700344140625
-0.2347954296875,-0.0219859619140625,0.947642646484375
-0.31916658203125,-0.06830803466796875,0.9395323486328125
-0.2678630859375,0.02237538818359375,0.965829375
-0.23163455078125,-0.02027032958984375,1.0425085546875
-0.41204779296875,-0.00948635498046875,1.0818312109375
-0.34737134765625,0.0358553564453125,1.064627548828125
-0.19248828125,-0.08840544189453126,0.89996392578125
-0.24330548828125,0.04884514404296875,0.89799779296875
-0.255705859375,0.028502646484374998,0.9719735400390626
-0.3242726171875,0.00816014892578125,0.9798380712890625
-0.20926525390625,0.055952763671875,0.962388642578125
-0.23017568359375,0.04737460205078125,0.9891772021484375
-0.3111428125,-0.07517056396484376,1.0068723974609375
-0.35272052734375,0.046149150390625,1.0049062646484375
-0.21193984375,0.02727719482421875,0.957473310546875
-0.3111428125,-0.027868129882812502,0.904387724609375
-0.2644590625,0.04296297607421875,0.9759058056640625
-0.12221951171875,-0.04821062744140625,1.0063808642578125
-0.30311904296875003,-0.01487834228515625,1.011541962890625
-0.27613,0.03462990478515625,1.0127707958984375
-0.23601115234375,-0.024436865234375,0.8540055712890625
-0.24622322265625,0.075559990234375,0.8662939013671875
-0.1910294140625,-0.004829638671875,0.929947451171875
-0.2873146484375,0.01404231689453125,0.9346170166015625
-0.07383375,-0.07713128662109375,0.9449392138671875
-0.2163164453125,-0.0288484912109375,0.94518498046875
-0.32402947265625,-0.0082609033203125,0.967303974609375
-0.2474389453125,-0.07958218994140626,0.8812856640625
-0.28998923828125,-0.03522083984375,0.977626171875
-0.28561263671875,-0.02468195556640625,0.9788550048828125
-0.23552486328125,-0.0562986083984375,0.9380577490234375
-0.25789416015625,0.0010525292968750002,0.96877857421875
-0.17960162109375,-0.0028689160156250004,1.0024485986328124
-0.1988100390625,-0.03448556884765625,0.9397781152343749
-0.2513292578125,0.048109873046875,0.9906518017578125
-0.30992708984375,-0.08154291259765625,1.0122792626953125
-0.172064140625,0.0373258984375,0.9638632421875
-0.31965287109375,0.00227798095703125,0.9277355517578125
-0.21023783203125002,-0.042083369140625,0.9783634716796875
-0.24281919921875,0.0319339111328125,1.016457294921875
-0.25084296875,0.0123266845703125,1.0825685107421874
-0.40523974609375,0.01845394287109375,1.0189149609375
-0.21704587890625,-0.025662316894531252,0.947642646484375
-0.286828359375,-0.046004814453125,0.7714279931640625
-0.18859796875,0.09394176513671874,0.8289373779296875
-0.18081734375,-0.0504164404296875,0.820827080078125
-0.16793068359375,0.0069346972656249995,1.0319405908203125
-0.2450075,0.0701680029296875,1.1548238916015625
-0.32864921874999997,-0.01193725830078125,1.0619241162109374
-0.300444453125,0.02237538818359375,0.875878798828125
-0.2523018359375,0.02752228515625,0.745130966796875
-0.207076953125,-0.008751083984375,0.7729025927734375
-0.2484115234375,0.021640117187500002,0.8893959619140624
-0.26640421875,-0.0612004150390625,0.9837703369140625
-0.23892888671875,0.0765403515625,0.9759058056640625
-0.23455228515625,-0.03252484619140625,0.943710380859375
-0.25935302734375,0.04296297607421875,0.9331424169921875
-0.24038775390625,-0.106787216796875,0.9186421875
-0.27783201171875,0.0074248779296875,1.0110504296875
-0.310170234375,-0.079337099609375,1.0108046630859375
-0.20245720703125,0.0025230712890624996,0.962388642578125
-0.23212083984375,0.0030132519531249997,0.97664310546875
-0.26907880859375,-0.05115171142578125,1.042017021484375
-0.2610550390625,0.02972809814453125,1.0653648486328124
-0.2853694921875,0.07139345458984375,1.00613509765625
-0.26372962890625,-0.0033590966796874996,0.9242948193359375
-0.28366748046875,0.0037485229492187503,1.0447204541015624
-0.20829267578125,0.02874773681640625,1.1376202294921876
-0.47672423828125,-0.00605509033203125,0.7070371435546875
-0.34056330078125,-0.057769150390625,0.827708544921875
-0.46019041015625,-0.0651218603515625,0.905370791015625
-0.51854509765625,0.018699033203125,0.990897568359375
-0.44171142578125,0.04320806640625,0.929947451171875
-0.54431841796875,0.06281529296875,0.909303056640625
-0.541643828125,0.140263837890625,0.908319990234375
-0.51951767578125,0.16477287109375,0.9026673583984375
-0.53751037109375,0.12825441162109374,0.9994993994140625
-0.49228548828125,0.127519140625,0.980083837890625
-0.48061455078125,0.0436982470703125,0.9847534033203125
-0.5236511328125,0.18805645263671875,1.0796193115234376
-0.54869501953125,0.11109808837890625,1.0071181640625
-0.5985396484375,0.07286399658203124,1.0088385302734375
-0.54261640625,0.04982550537109375,1.056271484375
-0.62650126953125,0.07776580322265625,0.994829833984375
-0.54529099609375,0.0037485229492187503,0.843437607421875
-0.5382398046875,-0.10458140380859375,0.689096181640625
-0.50371328125,-0.0494360791015625,0.6672229541015625
-0.52194912109375,-0.028113220214843748,0.7153932080078125
-0.5523421875,0.0025230712890624996,0.763809228515625
-0.55550306640625,0.08021670654296875,0.8097675830078125
-0.52511,-0.0033590966796874996,0.728418837890625
-0.49179919921875,-0.07909200927734375,0.7758517919921875
-0.40134943359374997,0.0037485229492187503,0.926998251953125
-0.49593265625,0.05717821533203125,1.0476696533203125
-0.2921775390625,0.07972652587890625,1.0673309814453125
-0.36779548828124997,0.1309504052734375,1.07298361328125
-0.38141158203125003,0.134381669921875,1.100017939453125
-0.35199109375,0.10619628173828125,1.095594140625
-0.4594609765625,0.09026541015625,1.027271025390625
-0.343237890625,0.096147578125,1.1194335009765626
-0.37217208984375,-0.06291604736328126,1.1582646240234376
-0.3690112109375,0.02335574951171875,1.1368829296875
-0.35393625,0.011346323242187501,0.992863701171875
-0.19662173828125,0.03413972412109375,0.946168046875
-0.33424154296874997,-0.01046671630859375,0.96877857421875
-0.34980279296875,-0.0288484912109375,1.0324321240234375
-0.4312562109375,-0.014633251953124999,0.9913891015625
-0.34153587890625,-0.03448556884765625,0.993846767578125
-0.43393080078125,-0.1229631787109375,0.9795923046875
-0.32840607421875,-0.081297822265625,1.1115689697265625
-0.38287044921875,-0.0268877685546875,1.079865078125
-0.4614061328125,-0.01928996826171875,1.0570087841796876
-0.4633512890625,0.016738310546875,0.993355234375
-0.2931501171875,-0.052867343750000004,0.9591936767578125
-0.39016478515624997,-0.093062158203125,1.0609410498046874
-0.41545181640625,-0.07835673828125,1.213070576171875
-0.38238416015625,-0.165608896484375,1.144255927734375
-0.42615017578125003,-0.1033559521484375,0.984999169921875
-0.3777644140625,0.0436982470703125,0.9380577490234375
-0.4370916796875,-0.08963089355468751,0.95796484375
-0.354908828125,0.04541387939453125,1.0776531787109376
-0.57762921875,-0.0602200537109375,1.0481611865234375
-0.360744296875,0.073599267578125,1.006626630859375
-0.48158712890625,-0.0376717431640625,0.75840236328125
-0.27540056640625,-0.038161923828125,0.7026133447265624
-0.335457265625,-0.036201201171875,0.688113115234375
-0.32208431640625,0.02090484619140625,0.762826162109375
-0.30020130859375,0.1329111279296875,0.9183964208984375
-0.33715927734375,0.12972495361328126,1.040050888671875
-0.40426716796875,0.08242251953125,1.0555341845703126
-0.34785763671875003,0.1829095556640625,1.0530765185546875
-0.29533841796875,0.0897752294921875,1.0796193115234376
-0.51538421875,0.09247122314453125,1.107882470703125
-0.31138595703125,0.04002189208984375,1.09067880859375
-0.4662690234375,-0.089140712890625,0.9444476806640625
-0.30846822265625,0.05105095703125,0.961897109375
-0.4137498046875,-0.0866898095703125,0.8618701025390625
-0.21461443359375,-0.024436865234375,0.9768888720703125
-0.38724705078125,0.06673673828125,1.0275167919921875
-0.41423609375,0.0093856005859375,1.0363643896484376
-0.255705859375,0.0427178857421875,0.938795048828125
-0.40572603515625,-0.052867343750000004,0.9124980224609375
-0.3038484765625,0.026296833496093748,0.9906518017578125
-0.32840607421875,-0.03105430419921875,1.0024485986328124
-0.43976626953125,0.03561026611328125,0.963371708984375
-0.43830740234375,0.033404453125,0.843437607421875
-0.34348103515625,-0.023456503906250002,0.80165728515625
-0.3116291015625,-0.02149578125,0.8264797119140626
-0.3612305859375,0.0436982470703125,0.887675595703125
-0.28585578125,0.00963069091796875,0.9245405859375
-0.35393625,-0.08938580322265625,0.9196252539062499
-0.43636224609375,0.01159141357421875,0.9680412744140625
-0.4536255078125,-0.11830646240234374,0.9567360107421875
-0.40378087890625003,-0.08619962890625,0.832623876953125
-0.37168580078125,-0.028113220214843748,0.7043337109375
-0.21193984375,-0.09183670654296874,0.680248583984375
-0.214857578125,0.00668960693359375,0.8431918408203125
-0.4122909375,0.04688442138671875,0.974185439453125
-0.4789125390625,-0.010221625976562499,1.0176861279296876
-0.37119951171875,0.1005592041015625,1.0968229736328126
-0.4750222265625,-0.014633251953124999,1.0339067236328126
-0.40037685546875,0.05864875732421875,1.0638902490234374
-0.331566953125,0.10325519775390625,1.0550426513671876
-0.38821962890625,0.042227705078125,1.0058893310546875
-0.40621232421875,0.030463369140625002,1.0152284619140626
-0.3388612890625,0.11599989501953126,1.023338759765625
-0.4565432421875,0.06673673828125,0.989914501953125
-0.45824525390625,-0.03056412353515625,0.9292101513671875
-0.2800203125,-0.06879821533203125,0.883743330078125
-0.36633662109375,-0.0543378857421875,0.8618701025390625
-0.33521412109375,-0.06879821533203125,0.8773533984374999
-0.24938410156250002,-0.13325697265625,0.832623876953125
-0.35904228515625003,-0.014633251953124999,0.9641090087890625
-0.5265688671875,-0.0533575244140625,0.9424815478515625
-0.33667298828125003,-0.0960032421875,0.778555224609375
-0.330594375,0.0074248779296875,0.722520439453125
-0.46699845703125,0.04198261474609375,0.76626689453125
-0.263486484375,7.216796875000007e-05,0.9065996240234375
-0.40694175781249997,0.106931552734375,1.0368559228515626
-0.40062,0.23413343505859374,1.076424345703125
-0.39989056640625,0.183399736328125,0.97369390625
-0.37703498046875,-0.0161037939453125,0.8616243359375
-0.3126016796875,-0.02517213623046875,0.7458682666015625
-0.3904079296875,-0.02370159423828125,0.6677144873046875
-0.26859251953125,-0.08203309326171875,0.6932742138671875
-0.29339326171875,-0.04477936279296875,0.797233486328125
-0.4244481640625,0.01404231689453125,0.9385492822265625
-0.47186134765625,0.095167216796875,1.092153408203125
-0.41982841796875,0.07580508056640625,1.136391396484375
-0.46553958984375,0.0686974609375,1.0425085546875
-0.33424154296874997,-0.0072805419921875,0.93338818359375
-0.28464005859375,0.150067451171875,0.983033037109375
-0.3729015234375,-0.09796396484375,1.08674654296875
-0.370470078125,-0.04723026611328125,1.1346710302734375
-0.50103869140625,0.146146005859375,1.068559814453125
-0.5362946484375,0.00570924560546875,0.8431918408203125
-0.207076953125,0.09296140380859375,0.8756330322265625
-0.29971501953125,0.0691876416015625,0.888658662109375
-0.32840607421875,0.0515411376953125,1.1607222900390626
-0.29922873046875,-0.00360418701171875,1.3052330517578126
-0.58540984375,0.05570767333984375,1.3632339697265625
-0.51903138671875,-0.0332601171875,1.0550426513671876
-0.4594609765625,-0.00581,0.7625803955078125
-0.1949197265625,-0.03448556884765625,0.6932742138671875
-0.14847912109375,-0.07713128662109375,0.9002096923828125
-0.44560173828125,-0.03914228515625,1.1902142822265624
-0.555259921875,-0.08227818359375,1.1494170263671875
-0.4234755859375,0.0012976196289062499,0.9242948193359375
-0.2805066015625,-0.0018885546875000003,0.660587255859375
-0.2027003515625,-0.01585870361328125,0.6669771875
-0.26275705078125,0.0397768017578125,0.8810398974609375
-0.46748474609375,0.00717978759765625,1.1140266357421875
-0.5324043359375,0.028257556152343752,1.2138078759765625
-0.2843969140625,-0.01144707763671875,1.0582376171875
-0.4745359375,-0.008751083984375,0.9282270849609375
-0.3748466796875,0.1035002880859375,0.9164302880859375
-0.26251390625,-0.04526954345703125,0.89013326171875
-0.4623787109375,-0.0254172265625,0.89504859375
-0.3573402734375,-0.03693647216796875,0.818860947265625
-0.36828177734375,-0.147962392578125,0.69745224609375
-0.22968939453125,0.0059543359375,0.639451328125
-0.317950859375,-0.11242429443359375,0.595704873046875
-0.2255559375,0.00570924560546875,0.707774443359375
-0.401592578125,0.052031318359375,0.7060540771484375
-0.3967296875,0.0887948681640625,0.790352021484375
-0.25351755859375,-0.045024453125,0.911269189453125
-0.38967849609375,0.048109873046875,1.0936280078125
-0.3077387890625,0.08315779052734375,1.12410306640625
-0.42566388671875,0.01306195556640625,1.129509931640625
-0.1949197265625,0.16746886474609374,1.138357529296875
-0.37071322265625,0.00227798095703125,0.98450763671875
-0.35466568359375,0.16624341308593749,1.13196759765625
-0.299471875,0.0231106591796875,1.09952640625
-0.53070232421875,-0.0543378857421875,0.9822957373046874
-0.28585578125,0.05913893798828125,0.8554801708984375
-0.3942982421875,-0.132276611328125,0.5812046435546875
-0.32864921874999997,0.0368357177734375,0.577026611328125
-0.2931501171875,-0.08423890625,0.541636220703125
-0.181789921875,0.03512008544921875,0.8274627783203125
-0.4118046484375,0.10423555908203125,1.150154326171875
-0.496905234375,-0.077376376953125,1.3381657763671875
-0.44803318359375,0.021640117187500002,1.28532595703125
-0.54067125,0.05521749267578125,1.0368559228515626
-0.2591098828125,0.148106728515625,1.094119541015625
-0.37703498046875,-0.1033559521484375,1.069542880859375
-0.49568951171875,0.04124734375,1.040542421875
-0.296554140625,0.0476196923828125,0.948625712890625
-0.39600025390625,-0.01781942626953125,0.9385492822265625
-0.4302836328125,0.0015427099609375003,0.88423486328125
-0.42979734375,-0.08497417724609375,0.7276815380859375
-0.30311904296875003,-0.09796396484375,0.694503046875
-0.374360390625,0.021885207519531248,0.74463943359375
-0.43684853515625,-0.0317895751953125,0.8279543115234375
-0.40134943359374997,0.0456589697265625,0.9532952783203125
-0.459947265625,0.07850107421875,0.976151572265625
-0.38481560546875,0.05815857666015625,0.8997181591796874
-0.32889236328125,-0.0906112548828125,0.9488714794921875
-0.21193984375,0.02286556884765625,0.9208540869140625
-0.4978778125,7.216796875000007e-05,0.9488714794921875
-0.31527626953125,-0.10654212646484375,0.8301662109375
-0.1851939453125,0.061834931640625,0.90193005859375
-0.4507077734375,-0.03399538818359375,0.962388642578125
-0.47332021484375,0.14099910888671874,1.1005094726562499
-0.3602580078125,0.0309535498046875,1.07888201171875
-0.44706060546875,-0.034240478515625,0.922574453125
-0.35952857421875,0.0020328906249999995,0.8161575146484374
-0.3602580078125,-0.048945898437499996,0.59619640625
-0.224583359375,-0.12418863037109375,0.435465048828125
-0.12124693359375,-0.19477464599609376,0.399091591796875
-0.137051328125,-0.09526797119140624,0.41236298828125
-0.206104375,0.0172284912109375,0.4312870166015625
-0.3699837890625,-0.10654212646484375,0.4288293505859375
-0.26154132812499997,0.012816865234374999,0.6387140283203125
-0.2766162890625,0.013552136230468751,0.9036504248046875
-0.23892888671875,0.03168882080078125,1.2054518115234374
-0.10763083984374999,0.1956542529296875,1.5097108642578125
-0.13340416015625,0.2907493017578125,1.7815287255859376
-0.599998515625,0.3172190576171875,1.7048495458984374
-0.73105341796875,0.2976118310546875,1.472600107421875
-0.658353203125,0.1976149755859375,1.0865007763671874
-0.30895451171875,0.0652661962890625,0.8812856640625
-0.00842787109375,-0.07517056396484376,0.70728291015625
-0.05559791015625,-0.11340465576171875,0.602586337890625
-0.16209521484375,-0.11977700439453125,0.6141373681640625
-0.4536255078125,0.0280124658203125,0.8235305126953125
-0.50152498046875,0.07188363525390624,1.080356611328125
-0.45313921875,-0.00262382568359375,1.5126600634765626
-0.3904079296875,0.336336103515625,1.860911337890625
-0.52705515625,0.43143115234375,1.5342875244140626
-0.24233291015625,0.07580508056640625,1.5942545751953126
-0.56766029296875,-0.23006765380859376,1.4059973583984375
-0.65519232421875,-0.05311243408203125,1.1051790380859374
-0.35661083984374997,-0.1327667919921875,0.902421591796875
-0.36779548828124997,-0.14869766357421876,0.6269172314453125
-0.3038484765625,-0.1406096826171875,0.4022865576171875
-0.26227076171875,-0.18399067138671876,0.394176259765625
-0.25862359375,-0.14624676025390626,0.5276275244140625
-0.49325806640625003,0.04002189208984375,0.9282270849609375
-0.7016329296875,0.04933532470703125,1.410175390625
-0.80837337890625,0.1299700439453125,1.5623049169921874
-0.68777369140625,0.12286242431640625,1.2388760693359375
-0.3578265625,-0.03840701416015625,0.9754142724609375
-0.23698373046875,0.0025230712890624996,0.889641728515625
-0.35806970703125,0.038306259765625,0.7942842871093749
-0.2824517578125,-0.14281549560546875,0.7316138037109375
-0.115654609375,-0.14673694091796874,0.82525087890625
-0.3767918359375,-0.03105430419921875,0.9166760546875
-0.5290003125,0.067717099609375,0.8540055712890625
-0.459947265625,-0.0641414990234375,0.7655295947265625
-0.2960678515625,0.1510478125,0.80067421875
-0.40134943359374997,0.06796218994140625,0.7783094580078125
-0.28269490234375,0.0652661962890625,0.875387265625
-0.1851939453125,0.09002031982421875,1.041033955078125
-0.44049570312499997,-0.073454931640625,1.110831669921875
-0.162338359375,0.06796218994140625,1.1489254931640625
-0.36196001953125,0.04737460205078125,1.015474228515625
-0.35369310546875,-0.00581,0.81148794921875
-0.10519939453125,-0.02958376220703125,0.6957318798828125
-0.05170759765625,0.0740894482421875,0.82525087890625
-0.0091573046875,0.0358553564453125,1.13098453125
0.020020039062499998,0.02531647216796875,1.39837859375
-0.19175884765625,0.042227705078125,1.7657996630859376
-0.71160185546875,0.111833359375,1.678060986328125
-0.79670244140625,0.0936966748046875,1.24108796875
-0.5829783984375,0.1848702783203125,1.04152548828125
-0.34931650390625,0.1927131689453125,1.054796884765625
-0.3500459375,0.132420947265625,0.849336005859375
-0.3524773828125,-0.04428918212890625,0.9174133544921875
-0.3359435546875,-0.038161923828125,0.859166669921875
-0.4565432421875,0.032424091796875,0.6760705517578125
-0.12562353515625,-0.048455717773437504,0.5379497216796875
0.026341796875,0.0191892138671875,0.591772607421875
-0.04781728515625,0.18830154296875,1.1007552392578126
-0.42906791015625,0.089285048828125,1.2034856787109376
-0.605833984375,-0.0710040283203125,1.091661875
-0.6043751171875,-0.09796396484375,1.0235845263671874
-0.56036595703125,-0.12909043701171874,0.8520394384765625
-0.5559893554687501,-0.0033590966796874996,0.909303056640625
-0.37581925781250003,-0.13448242431640625,1.0599579833984376
-0.255705859375,-0.02321141357421875,1.0226014599609374
-0.392839375,-0.10997339111328125,0.985490703125
-0.2386857421875,-0.210705517578125,0.964354775390625
-0.23066197265625,-0.10164031982421876,0.92945591796875
-0.24695265625,0.011346323242187501,0.8938197607421875
-0.2630001953125,0.10668646240234375,0.9614055761718749
-0.31770771484375,0.04051207275390625,1.0184234277343749
-0.50979189453125,0.07972652587890625,0.9513291455078126
-0.4589746875,-0.07468038330078125,0.8082929833984375
-0.481343984375,0.023845930175781252,0.7790467578125
-0.3884627734375,-0.0386521044921875,0.734317236328125
-0.3476144921875,-0.11585555908203125,0.810013349609375
-0.34421046875,-0.010221625976562499,1.00810123046875
-0.25643529296875,-0.0621807763671875,1.0255506591796875
-0.2610550390625,0.055462583007812497,1.029237158203125
