ax,ay,az
-0.31868029296875,-0.11364974609375,0.9729566064453125
-0.39089421875,-0.07075893798828126,1.0747039794921875
-0.37460353515625,-0.01095689697265625,1.0034316650390624
-0.41204779296875,-0.10654212646484375,0.80755568359375
-0.32451576171875,-0.0700236669921875,0.7596311962890625
-0.179844765625,-0.06389640869140625,0.6699263867187499
-0.1944334375,-0.0621807763671875,0.89013326171875
-0.2377131640625,-0.0332601171875,1.2430541015625
-0.44803318359375,-0.034240478515625,1.31678408203125
-0.465782734375,0.053992041015625,1.2457575341796876
-0.26640421875,0.0030132519531249997,1.0363643896484376
-0.29509527343749997,-0.08448399658203125,0.7920723876953125
-0.2955815625,-0.0180645166015625,0.853268271484375
-0.16404037109375,-0.0170841552734375,0.9410069482421874
-0.3942982421875,-0.09379742919921875,0.9901602685546875
-0.4419545703125,-0.03105430419921875,1.1538408251953125
-0.187625390625,0.01208159423828125,1.136391396484375
-0.24816837890625,0.02752228515625,1.047915419921875
-0.2688356640625,0.0936966748046875,1.2037314453125
-0.30992708984375,-0.01487834228515625,1.2575543310546875
-0.4701593359375,-0.04477936279296875,1.2430541015625
-0.5090624609375,0.06943273193359376,1.1872650830078124
-0.41156150390625,0.01992448486328125,1.0348897900390626
-0.39600025390625,-0.142080224609375,0.8849721630859375
-0.2999581640625,-0.0175743359375,0.7532412646484374
-0.279047734375,-0.06928839599609375,0.65223119140625
-0.265431640625,-0.13595296630859374,0.7674957275390625
-0.27807515625,-0.03448556884765625,0.95108337890625
-0.3126016796875,0.03144373046875,0.9638632421875
-0.41934212890625,-0.10016977783203125,0.80362341796875
-0.3729015234375,-0.04772044677734375,0.7065456103515625
-0.3242726171875,-0.03644629150390625,0.6441208935546875
-0.2644590625,0.0642858349609375,0.64633279296875
-0.18251935546875,0.0505607763671875,0.7082659765625
-0.273212265625,-0.0768861962890625,0.8653108349609375
-0.370470078125,0.09026541015625,1.0004824658203124
-0.45435494140625,-0.00581,0.916184521484375
-0.31308796875,-0.01291761962890625,0.7947758203124999
-0.15358515625,-0.02419177490234375,0.77019916015625
-0.09936392578125,-0.1710008837890625,0.859658203125
-0.25205869140625,-0.091101435546875,1.06905134765625
-0.33181009765625,-0.04379900146484375,1.307936484375
-0.37995271484375,-0.047965537109375,1.3607763037109375
-0.35028908203125,0.0525214990234375,1.3489795068359376
-0.26956509765625,0.04712951171875,1.32858087890625
-0.436605390625,-0.0053198193359375,1.3116229833984374
-0.43757796875,0.08021670654296875,1.2079094775390624
-0.32013916015625,-0.1023755908203125,1.0093300634765625
-0.3155194140625,-0.12149263671875,0.91765912109375
-0.1637972265625,-0.11389483642578124,0.8707177001953125
-0.1774133203125,-0.22712656982421875,0.7350545361328125
-0.2450075,-0.1935491943359375,0.7365291357421875
-0.27005138671875,-0.12222790771484375,0.7139186083984375
-0.22288134765625,-0.11683592041015625,0.746114033203125
-0.21218298828125,-0.16683434814453124,0.86653966796875
-0.3072525,-0.006790361328125,0.9419900146484375
-0.30555048828125,0.07237381591796875,0.873912666015625
-0.33083751953125,0.09198104248046875,0.8712092333984375
-0.17668388671875,0.1142842626953125,1.0245675927734375
-0.36001486328125,0.12139188232421876,1.1966042138671875
-0.38092529296875,0.17653720703125,1.319241748046875
-0.337402421875,0.16893940673828126,1.2885209228515624
-0.25643529296875,0.16109651611328124,1.1558069580078125
-0.0937716015625,0.11845079833984375,1.220935107421875
-0.2099946875,-0.04477936279296875,1.36003900390625
-0.29582470703125,-0.051886982421875,1.3720815673828124
-0.35466568359375,-0.142080224609375,1.182595517578125
-0.393811953125,-0.03987755615234375,1.168832587890625
-0.4939875,-0.07051384765625,1.2076637109375
-0.52875716796875,-0.17124597412109374,1.0975602734375
-0.29679728515625,-0.1259042626953125,0.9127437890625
-0.2333365625,-0.14575657958984375,0.8195982470703125
-0.26372962890625,-0.2347243701171875,0.9075826904296875
-0.24476435546875,-0.224430576171875,1.0127707958984375
-0.34007701171875,-0.1141399267578125,0.964354775390625
-0.345183046875,-0.10850284912109374,0.7827332568359375
-0.34883021484375,-0.10311086181640625,0.6411716943359375
-0.06143337890625,-0.09845414550781251,0.6362563623046875
-0.0655668359375,-0.14967802490234375,0.868014267578125
-0.29874244140625,0.00717978759765625,1.2489525
-0.529972890625,7.216796875000007e-05,1.43770125
-0.354908828125,-0.048455717773437504,1.2506728662109374
-0.36147373046875,-0.045024453125,1.0466865869140625
-0.41156150390625,-0.0072805419921875,1.01596576171875
-0.28196546875,-0.0464949951171875,1.0530765185546875
-0.330594375,-0.07664110595703125,1.0255506591796875
-0.34202216796875,-0.13350206298828124,0.9913891015625
-0.24865466796875,-0.08056255126953125,1.0643817822265624
-0.46408072265625,-0.126394443359375,1.009084296875
-0.24962724609375,0.0037485229492187503,0.9267524853515625
-0.23455228515625,0.056933125,0.8559717041015625
-0.2931501171875,0.0103659619140625,0.9999909326171875
-0.34104958984375,0.03659062744140625,1.0167030615234376
-0.39940427734375,-0.0651218603515625,0.8564632373046875
-0.29387955078125,-0.0915916162109375,0.8019030517578125
-0.30919765625,-0.08154291259765625,0.744147900390625
-0.2552195703125,-0.07517056396484376,0.812962548828125
-0.34493990234375,-0.00777072265625,0.94911724609375
-0.469673046875,-0.06830803466796875,0.933879716796875
-0.30798193359375,0.00570924560546875,0.828200078125
-0.2659179296875,-0.087179990234375,0.7011387451171875
-0.158448046875,-0.0631611376953125,0.70728291015625
-0.191515703125,-0.01144707763671875,0.7753602587890625
-0.27783201171875,-0.0268877685546875,0.8648193017578125
-0.3223274609375,0.04492369873046875,1.040542421875
-0.40913005859375,0.0642858349609375,1.1066536376953124
-0.34007701171875,0.05889384765625,1.098051806640625
-0.38676076171875,0.10202974609375,0.973202373046875
-0.32864921874999997,-0.0690433056640625,0.832623876953125
-0.2357680078125,-0.016593974609375,0.7542243310546874
-0.292663828125,0.0008074389648437498,0.8161575146484374
-0.31430369140625003,-0.14036459228515624,0.9036504248046875
-0.34980279296875,-0.14771730224609375,0.9481341796875
-0.36585033203125,-0.0415931884765625,0.9611598095703124
-0.252788125,-0.18301031005859375,0.92159138671875
-0.255705859375,-0.07615092529296875,0.9405154150390624
-0.28609892578125,-0.0180645166015625,0.978117705078125
-0.368524921875,0.0054641552734375,0.9351085498046875
-0.22725794921875,-0.04428918212890625,0.8427003076171875
-0.28074974609375003,0.00178780029296875,0.8952943603515625
-0.30409162109375,-0.05997496337890625,0.9945840673828125
-0.22288134765625,-0.12271808837890624,1.0147369287109376
-0.3524773828125,-0.06438658935546875,1.06708521484375
-0.3515048046875,-0.0259074072265625,1.0196522607421874
-0.3748466796875,-0.07566074462890625,0.9166760546875
-0.2785614453125,-0.01291761962890625,0.9655836083984375
-0.2989855859375,-0.0006631030273437505,1.0216183935546874
-0.308225078125,-0.16046199951171874,0.9911433349609375
-0.36925435546875,-0.0023787353515625003,0.9449392138671875
-0.24330548828125,-0.04723026611328125,0.923065986328125
-0.22920310546875,-0.0700236669921875,0.947642646484375
-0.3072525,0.04002189208984375,1.1361456298828125
-0.349073359375,-0.03546593017578125,1.1287726318359375
-0.393811953125,0.0010525292968750002,0.970253173828125
-0.33667298828125003,-0.07615092529296875,0.8702261669921875
-0.23528171875,0.02433611083984375,0.9587021435546875
-0.253760703125,-0.0406128271484375,1.095594140625
-0.32840607421875,0.03168882080078125,1.2413337353515626
-0.38457246093749997,-0.0724745703125,1.182103984375
-0.4176401171875,0.03462990478515625,1.16244265625
-0.38700390625000003,0.0368357177734375,1.047915419921875
-0.32694720703125,-0.11095375244140625,0.8989808593749999
-0.2707808203125,-0.15016820556640625,0.8800568310546875
-0.2177753125,-0.07075893798828126,0.849336005859375
-0.2707808203125,-0.14869766357421876,0.8122252490234375
-0.21655958984375,-0.1670794384765625,0.8962774267578125
-0.33253953125,-0.0386521044921875,0.9501003125
-0.41593810546875,-0.0621807763671875,0.95698177734375
-0.31308796875,-0.04183827880859375,0.9528037451171875
-0.31381740234375,-0.0011532836914062497,0.920116787109375
-0.3271903515625,-0.06683749267578125,0.9818042041015624
-0.2017277734375,-0.02149578125,1.1014925390624999
-0.29971501953125,-0.040122646484374996,1.080356611328125
-0.36730919921875,-0.008751083984375,1.05725455078125
-0.2902323828125,0.020659755859375,1.0211268603515624
-0.316005703125,0.04100225341796875,0.9021758251953125
-0.31697828125,0.0535018603515625,0.9793465380859375
-0.22823052734375,-0.01291761962890625,1.037101689453125
-0.2620276171875,-0.0513968017578125,0.9626344091796875
-0.3194097265625,0.02139502685546875,1.03169482421875
-0.2435486328125,0.012816865234374999,1.0825685107421874
-0.376305546875,-0.03522083984375,0.9414984814453125
-0.33229638671875,0.01404231689453125,1.0112961962890625
-0.4122909375,-0.092081796875,1.001219765625
-0.37144265625,-0.01487834228515625,0.962388642578125
-0.267376796875,-0.0710040283203125,0.8849721630859375
-0.24816837890625,-0.03522083984375,0.9007012255859375
-0.36220316406249997,-0.0425735498046875,0.897506259765625
-0.386031328125,-0.08644471923828125,0.8948028271484375
-0.21412814453125,0.055462583007812497,0.92552365234375
-0.3194097265625,-0.08644471923828125,0.8648193017578125
-0.268349375,-0.046004814453125,0.991880634765625
-0.25084296875,-0.0366913818359375,1.0226014599609374
-0.37898013671874997,-0.08644471923828125,0.993355234375
-0.3962433984375,0.0280124658203125,0.9228202197265625
-0.3009307421875,0.0037485229492187503,0.92650671875
-0.24573693359375,-0.03522083984375,0.9813126708984374
-0.47137505859375,-0.00507472900390625,1.039067822265625
-0.2488978125,-0.0063001806640625,1.0747039794921875
-0.33472783203125,-0.08399381591796876,0.849336005859375
-0.27151025390625,-0.07222947998046875,0.903404658203125
-0.1307295703125,-0.06634731201171876,1.008592763671875
-0.19759431640625,-0.10262068115234375,1.120662333984375
-0.4361191015625,0.019434304199218752,1.2511643994140624
-0.4409819921875,-0.12271808837890624,1.0771616455078126
-0.279047734375,-0.0553182470703125,0.8844806298828125
-0.35174794921875,-0.0592396923828125,0.8616243359375
-0.31746457031249997,-0.13399224365234375,0.891607861328125
-0.294608984375,-0.081297822265625,0.8495817724609375
-0.298499296875,-0.03693647216796875,0.8191067138671875
-0.3072525,-0.107767578125,0.712689775390625
-0.24914095703125,-0.069533486328125,0.8242678125
-0.34445361328125,0.05105095703125,0.9832788037109375
-0.32889236328125,0.022620478515625,0.9365831494140625
-0.2620276171875,0.01992448486328125,0.8380307421875
-0.268349375,0.08315779052734375,0.86260740234375
-0.2610550390625,0.04590406005859375,1.0348897900390626
-0.33424154296874997,0.09786321044921875,1.19390078125
-0.3602580078125,-0.0141430712890625,0.9756600390625
-0.2630001953125,-0.01389798095703125,0.9100403564453124
-0.292663828125,0.069677822265625,1.0031858984375
-0.300444453125,-0.10899302978515625,1.0044147314453125
-0.3189234375,0.01894412353515625,1.12312
-0.39113736328125,0.03217900146484375,1.110831669921875
-0.36001486328125,-0.10262068115234375,0.9277355517578125
-0.3330258203125,-0.05654369873046875,0.7960046533203124
-0.2523018359375,-0.0141430712890625,0.8948028271484375
-0.2474389453125,-0.00801581298828125,0.970253173828125
-0.2892598046875,-0.0876701708984375,0.921099853515625
-0.33108066406250003,-0.02370159423828125,0.95894791015625
-0.2853694921875,-0.03056412353515625,0.9193794873046874
-0.339347578125,-0.0006631030273437505,0.859166669921875
-0.222638203125,-0.1587463671875,0.828200078125
-0.2746711328125,0.00766996826171875,0.9134810888671875
-0.4341739453125,-0.05090662109375,0.8736668994140625
-0.2163164453125,0.0003172583007812497,0.811979482421875
-0.279047734375,0.019679394531249998,0.87637033203125
-0.26421591796875,-0.03105430419921875,1.0697886474609375
-0.408400625,0.02360083984375,1.150645859375
-0.338375,-0.00360418701171875,1.1194335009765626
-0.3194097265625,0.01649322021484375,0.926015185546875
-0.24865466796875,0.00570924560546875,0.8569547705078124
-0.2464663671875,-0.06683749267578125,0.8343442431640625
-0.2610550390625,-0.0788469189453125,0.7507835986328125
-0.1667149609375,-0.09796396484375,0.7613515625
-0.312115390625,-0.10360104248046875,0.825742412109375
-0.26859251953125,-0.06683749267578125,1.0348897900390626
-0.35223423828125,-0.132276611328125,1.1125520361328125
-0.19808060546875,0.0162481298828125,1.24403716796875
-0.4195852734375,0.15864561279296874,1.2123332763671875
-0.44025255859375,0.1760470263671875,1.14573052734375
-0.24087404296875,0.15815543212890626,1.101984072265625
-0.3563676953125,0.056933125,1.1562984912109375
-0.30895451171875,0.0976181201171875,1.2423168017578126
-0.3106565234375,-0.0700236669921875,1.2462490673828124
-0.39356880859375,-0.02272123291015625,1.117713134765625
-0.35612455078125,0.03364954345703125,1.00515203125
-0.36463460937500003,-0.10409122314453124,0.8795652978515625
-0.3602580078125,0.05889384765625,1.0098215966796875
-0.3826273046875,-0.01781942626953125,1.0516019189453125
-0.3573402734375,-0.03301502685546875,1.0810939111328124
-0.34785763671875003,-0.08938580322265625,0.99040603515625
-0.25497642578125,-0.12320826904296875,0.9414984814453125
-0.26956509765625,-0.1955099169921875,0.9188879541015624
-0.39697283203125,-0.077376376953125,0.8923451611328125
-0.3184371484375,-0.1587463671875,0.8618701025390625
-0.37533296875,-0.11879664306640625,0.926998251953125
-0.2581373046875,0.04835496337890625,1.0530765185546875
-0.33229638671875,-0.06659240234375,1.0034316650390624
-0.22823052734375,0.04002189208984375,1.0697886474609375
-0.2581373046875,0.01575794921875,1.0525849853515625
-0.27929087890625,-0.05850442138671875,0.99630443359375
-0.23917203125,0.0015427099609375003,0.9483799462890625
-0.362689453125,0.008405239257812499,0.914709921875
-0.31187224609374997,-0.008751083984375,0.8419630078125
-0.34250845703125,-0.0935523388671875,0.738249501953125
-0.268349375,-0.013407800292968751,0.7139186083984375
-0.26372962890625,-0.055808427734375,0.7232577392578124
-0.12951384765625001,0.011346323242187501,0.82525087890625
-0.2873146484375,0.0838930615234375,0.94911724609375
-0.44462916015625,0.0843832421875,1.037101689453125
-0.26518849609375,0.14148928955078124,0.94223578125
-0.22774423828125,0.18609572998046875,0.9316678173828125
-0.28074974609375003,0.1309504052734375,0.9606682763671874
-0.37119951171875,0.17678229736328124,0.95501564453125
-0.28026345703125,0.1427147412109375,0.849336005859375
-0.252788125,-0.02076051025390625,0.7611057958984375
-0.2450075,-0.00997653564453125,0.7891231884765625
-0.27296912109375,-0.04919098876953125,0.7325968701171874
-0.1579617578125,-0.128355166015625,0.7311222705078125
-0.10106593750000001,0.040266982421875,0.8377849755859375
-0.4361191015625,-0.0055649096679687505,0.9832788037109375
-0.36536404296875,0.0446786083984375,1.1307387646484375
-0.28998923828125,0.1456558251953125,1.1700614208984375
-0.24914095703125,0.2083989501953125,1.106899404296875
-0.29387955078125,0.2025167822265625,1.0304659912109375
-0.3485870703125,0.1162449853515625,0.914709921875
-0.19370400390625,0.0642858349609375,0.743164833984375
-0.02204396484375,-0.02664267822265625,0.746114033203125
-0.14167107421875,-0.0151234326171875,0.9609140429687499
-0.31770771484375,-0.12909043701171874,1.2521474658203124
-0.510521328125,0.01600303955078125,1.4654728759765625
-0.59829650390625,0.0059543359375,1.391005595703125
-0.4944737890625,0.0378160791015625,1.149171259765625
-0.2873146484375,0.07850107421875,0.9493630126953125
-0.2250696484375,-0.03938737548828125,0.718096640625
-0.27418484375,0.01551285888671875,0.6736128857421875
-0.23892888671875,-0.05164189208984375,0.682214716796875
-0.174009296875,-0.1170810107421875,0.8505648388671875
-0.3067662109375,-0.027868129882812502,1.1115689697265625
-0.35977171875,-0.12075736572265625,1.1862820166015624
-0.32864921874999997,-0.1700205224609375,1.2423168017578126
-0.2513292578125,-0.112669384765625,1.0471781201171875
-0.43538966796875,0.06257020263671875,1.2723003271484374
-0.52146283203125,0.05423713134765625,1.205697578125
-0.47721052734375,0.12874459228515625,1.0697886474609375
-0.42663646484375,0.0740894482421875,0.9508376123046876
-0.3602580078125,0.052031318359375,0.8712092333984375
-0.40183572265625,-0.029338671875,0.7625803955078125
-0.27005138671875,-0.09330724853515625,0.6706636865234374
-0.2445212109375,-0.07762146728515625,0.5802215771484375
-0.2211793359375,-0.1004148681640625,0.538687021484375
-0.1258666796875,-0.15507001220703126,0.553433017578125
-0.14264365234375,-0.08399381591796876,0.7134270751953125
-0.24719580078125,0.11501953369140624,1.004660498046875
-0.337402421875,0.056933125,1.306461884765625
-0.40523974609375,0.0887948681640625,1.5505081201171875
-0.49520322265625,0.2152614794921875,1.4875918701171875
-0.46797103515625,0.14001874755859375,1.2226554736328126
-0.38724705078125,-0.00948635498046875,1.001219765625
-0.3456693359375,7.216796875000007e-05,0.9604225097656249
-0.2736985546875,-0.18202994873046874,0.85474287109375
-0.26056875,-0.22271494384765625,0.7724110595703125
-0.22044990234375,-0.25653740966796873,0.807064150390625
-0.3038484765625,-0.2920755078125,0.812962548828125
-0.2873146484375,-0.14918784423828124,0.8360646093749999
-0.177899609375,-0.0915916162109375,0.8970147265625
-0.33108066406250003,-0.100905048828125,1.0299744580078125
-0.4351465234375,0.03168882080078125,1.1164843017578125
-0.40329458984375,-0.01438816162109375,0.9999909326171875
-0.34785763671875003,-0.1023755908203125,0.8267254785156251
-0.30068759765624997,-0.0945327001953125,0.8458952734375
-0.20440236328125,-0.15948163818359376,0.84786140625
-0.35223423828125,-0.18153976806640626,0.810013349609375
-0.26810623046875,-0.16144236083984376,0.8043607177734375
-0.22823052734375,-0.1464918505859375,0.8065726171875
-0.13948277343749999,-0.06683749267578125,1.00810123046875
-0.1321884375,-0.1523740185546875,1.10837400390625
-0.1501811328125,-0.15212892822265625,1.3293181787109374
-0.3267040625,-0.08350363525390625,1.4349978173828124
-0.53070232421875,-0.08963089355468751,1.2273250390625
-0.35272052734375,-0.04870080810546875,0.98450763671875
-0.362689453125,0.00865032958984375,0.9729566064453125
-0.50954875,-0.0631611376953125,0.9542783447265625
-0.42615017578125003,-0.0494360791015625,0.793301220703125
-0.1579617578125,0.030708459472656248,0.7429190673828125
-0.27783201171875,-0.0082609033203125,0.7232577392578124
-0.3096839453125,-0.00360418701171875,0.7736398925781249
-0.25449013671875,-0.03546593017578125,0.818860947265625
-0.1686601171875,-0.03301502685546875,0.97271083984375
-0.2644590625,0.02360083984375,1.1646545556640624
-0.33618669921875,-0.06781785400390625,1.3337419775390624
-0.41545181640625,0.042227705078125,1.297614287109375
-0.4040240234375,0.030708459472656248,0.9783634716796875
-0.40913005859375,-0.05017135009765625,0.8028861181640625
-0.3408064453125,0.03217900146484375,0.829674677734375
-0.24962724609375,0.07678544189453125,0.853268271484375
-0.2766162890625,0.06502110595703126,0.9105318896484375
-0.31819400390625,-0.0151234326171875,1.083305810546875
-0.3670660546875,-0.050661530761718754,1.16539185546875
-0.31722142578125,-0.075415654296875,1.2197062744140625
-0.35952857421875,-0.07860182861328124,1.14966279296875
-0.28196546875,-0.09820905517578125,1.0422627880859374
-0.2843969140625,-0.17859868408203125,0.895540126953125
-0.39405509765625,-0.0768861962890625,0.99237216796875
-0.382141015625,-0.19281392333984376,1.0899415087890625
-0.4118046484375,-0.2170778662109375,1.0579918505859376
-0.392839375,-0.08007237060546875,0.9011927587890625
-0.33983386718749997,-0.1759026904296875,0.6863927490234375
-0.30846822265625,-0.236194912109375,0.6436293603515625
-0.2659179296875,-0.25898831298828123,0.64240052734375
-0.14580453125,-0.25016506103515623,0.79575888671875
-0.22190876953125,-0.14722712158203125,1.126560732421875
-0.46067669921875,-0.083258544921875,1.18898544921875
-0.3427516015625,-0.10801266845703125,1.019406494140625
-0.2022140625,-0.040122646484374996,1.0221099267578124
-0.29290697265625,0.0809519775390625,1.17522251953125
-0.41836955078125,0.02678701416015625,1.2452660009765626
-0.475508515625,0.0348749951171875,1.1828412841796876
-0.46602587890625,0.07850107421875,0.9346170166015625
-0.36001486328125,0.05521749267578125,0.7635634619140625
-0.16720125,-0.061690595703125004,0.721537373046875
-0.19808060546875,-0.05115171142578125,0.828691611328125
-0.39794541015625,0.120656611328125,0.96288017578125
-0.461892421875,-0.0055649096679687505,0.904387724609375
-0.2921775390625,-0.0219859619140625,0.9464138134765625
-0.28318119140625,-0.07320984130859375,1.0255506591796875
-0.34980279296875,-0.17859868408203125,1.05332228515625
-0.28026345703125,-0.19992154296875,1.0108046630859375
-0.315033125,-0.091101435546875,0.9085657568359375
-0.2795340234375,-0.1979608203125,0.81148794921875
-0.41253408203124997,-0.11830646240234374,0.8348357763671875
-0.299471875,-0.0376717431640625,0.89996392578125
-0.23455228515625,-0.12712971435546874,0.8682600341796876
-0.1861665234375,-0.06144550537109375,0.89603166015625
-0.16987583984375,-0.1278649853515625,0.9365831494140625
-0.25254498046875,-0.07909200927734375,1.0874838427734375
-0.39575710937499997,-0.02468195556640625,1.1720275537109375
-0.42371873046874997,0.0064445166015625,1.14966279296875
-0.325731484375,-0.0141430712890625,1.085271943359375
-0.28366748046875,-0.06267095703125,1.0845346435546874
-0.30360533203125,-0.06659240234375,1.1223827001953124
-0.30311904296875003,-0.0641414990234375,1.077407412109375
-0.2756437109375,-0.050661530761718754,0.9749227392578125
-0.3369161328125,-0.11634573974609375,0.80165728515625
-0.2386857421875,-0.15556019287109374,0.791335087890625
-0.24622322265625,-0.21340151123046874,0.9056165576171875
-0.2231244921875,-0.18399067138671876,1.0260421923828125
-0.29728357421875,-0.0513968017578125,1.1361456298828125
-0.4127772265625,-0.0411030078125,1.1685868212890624
-0.3388612890625,-0.02958376220703125,1.0058893310546875
-0.27515742187500003,0.05105095703125,1.0471781201171875
-0.424934453125,0.00717978759765625,1.0189149609375
-0.32500205078125,-0.008751083984375,0.9097945898437501
-0.267376796875,0.0280124658203125,0.755944697265625
-0.23503857421875,0.0005623486328125002,0.7031048779296875
-0.17279357421875,-0.15605037353515624,0.7031048779296875
-0.22239505859375,-0.1808044970703125,0.812962548828125
-0.32159802734375,-0.052867343750000004,0.8333611767578125
-0.35174794921875,-0.05801424072265625,0.8500733056640625
-0.27637314453125,-0.0161037939453125,0.9149556884765625
-0.183735078125,0.073599267578125,1.0525849853515625
-0.3252451953125,0.05570767333984375,1.16735798828125
-0.39356880859375,0.0623251123046875,1.229291171875
-0.37606240234375,0.12482314697265626,1.103950205078125
-0.31624884765625,0.0917359521484375,0.9557529443359375
-0.2581373046875,0.0387964404296875,0.973202373046875
-0.42371873046874997,-0.02125069091796875,0.9852449365234375
-0.3291355078125,-0.042083369140625,1.0179318945312499
-0.33181009765625,-0.0411030078125,0.84491220703125
-0.26129818359375,-0.02076051025390625,0.7134270751953125
-0.166228671875,-0.12149263671875,0.6925369140625
-0.14945169921875,-0.11561046875,0.8839890966796875
-0.4156949609375,-0.05801424072265625,1.0009739990234374
-0.43295822265625,-0.05703387939453125,0.9832788037109375
-0.36050115234375,-0.00850599365234375,0.949608779296875
-0.3446967578125,-0.04870080810546875,0.8159117480468749
-0.20440236328125,-0.08963089355468751,0.77019916015625
-0.26567478515625,0.02237538818359375,0.8731753662109375
-0.362689453125,-0.004829638671875,0.8662939013671875
-0.27540056640625,0.00717978759765625,0.917167587890625
-0.3583128515625,0.06551128662109375,0.9596852099609375
-0.32451576171875,0.07188363525390624,1.034152490234375
-0.26640421875,-0.08791526123046875,1.07691587890625
-0.3028758984375,0.07237381591796875,1.1100943701171875
-0.38092529296875,-0.063651318359375,1.0673309814453125
-0.39454138671875,-0.071494208984375,0.989914501953125
-0.360744296875,-0.013652890625,0.8567090039062499
-0.29485212890625,-0.02125069091796875,0.831640810546875
-0.31333111328125,-0.1033559521484375,0.8456495068359375
-0.3223274609375,0.0922261328125,0.9360916162109375
-0.23990146484375,-0.0016434643554687498,1.0442289208984374
-0.42080099609375,0.03315936279296875,1.1066536376953124
-0.3126016796875,0.1157548046875,1.1341794970703125
-0.32548833984375003,-0.0651218603515625,1.0179318945312499
-0.33132380859375,0.00472888427734375,1.00613509765625
-0.26154132812499997,-0.06144550537109375,0.9048792578125
-0.35515197265625,-0.12516899169921875,0.9454307470703125
-0.2075632421875,-0.00581,1.15752732421875
-0.4273658984375,-0.06781785400390625,1.1093570703125
-0.40621232421875,0.05668803466796875,1.043000087890625
-0.22725794921875,-0.06830803466796875,0.9134810888671875
-0.38432931640625,-0.1013952294921875,0.7502920654296875
-0.24938410156250002,-0.04036773681640625,0.748080166015625
-0.25011353515625,-0.1023755908203125,0.731368037109375
-0.267376796875,-0.025662316894531252,0.8441749072265625
-0.22531279296875,-0.0602200537109375,0.9127437890625
-0.20051205078125,-0.0396324658203125,0.9852449365234375
-0.36536404296875,-0.05899460205078125,0.9945840673828125
-0.36779548828124997,-0.032279755859375,1.0444746875
-0.2357680078125,0.057913486328125,1.106899404296875
-0.3262177734375,0.026296833496093748,1.1351625634765625
-0.3271903515625,-0.0435539111328125,1.160968056640625
-0.331566953125,0.010611052246093749,1.0739666796875
-0.335457265625,0.011346323242187501,0.934862783203125
-0.25838044921875,-0.055073156738281254,0.87047193359375
-0.25400384765625,-0.09771887451171875,0.9557529443359375
-0.3544225390625,0.061834931640625,1.0471781201171875
-0.27394169921875,0.03806116943359375,1.1071451708984374
-0.411318359375,-0.03987755615234375,1.067576748046875
-0.36341888671875,0.07972652587890625,1.0108046630859375
-0.19248828125,-0.0406128271484375,0.8579378369140624
-0.35952857421875,-0.09477779052734375,0.8490902392578125
-0.30749564453125,-0.01978014892578125,0.7915808544921875
-0.2450075,-0.1376685986328125,0.6765620849609375
-0.22336763671875,-0.11364974609375,0.812471015625
-0.18495080078125,-0.08154291259765625,0.9680412744140625
-0.31527626953125,-0.17516741943359376,1.081339677734375
-0.4098594921875,0.0037485229492187503,1.1233657666015624
-0.2464663671875,-0.01389798095703125,1.0083469970703125
-0.2853694921875,-0.1013952294921875,0.9559987109375
-0.25108611328125,0.0008074389648437498,1.07691587890625
-0.28585578125,-0.040122646484374996,1.1722733203125
-0.3690112109375,0.01306195556640625,1.1189419677734376
-0.40329458984375,0.06060947998046875,1.0471781201171875
-0.2532744140625,-0.0254172265625,0.985982236328125
-0.3806821484375,0.0319339111328125,1.0058893310546875
-0.3388612890625,0.0020328906249999995,0.9459222802734375
-0.23260712890625002,-0.037916833496093746,0.8338527099609375
-0.2318776953125,-0.05850442138671875,0.8250051123046875
-0.267376796875,-0.0700236669921875,0.817877880859375
-0.28220861328125,-0.03693647216796875,0.91077765625
-0.376305546875,-0.025662316894531252,0.9832788037109375
-0.40280830078125,-0.12320826904296875,0.875387265625
-0.2338228515625,0.1079119140625,0.957473310546875
-0.21850474609375,-0.05556333740234375,0.9813126708984374
-0.33132380859375,0.0191892138671875,1.04349162109375
-0.3670660546875,0.07972652587890625,1.0398051220703124
-0.2450075,-0.06634731201171876,1.0103131298828125
-0.372415234375,0.06894255126953125,1.0398051220703124
-0.27248283203125,-0.0055649096679687505,1.1005094726562499
-0.3009307421875,0.032424091796875,0.98942296875
-0.26907880859375,0.12188206298828125,0.9739396728515625
-0.28658521484375,-0.083258544921875,0.97860923828125
-0.44754689453125,0.018699033203125,1.0914161083984375
-0.362689453125,0.17482157470703125,1.1135351025390625
-0.3495596484375,0.0201695751953125,0.9481341796875
-0.362689453125,0.05227640869140625,0.8672769677734375
-0.2561921484375,-0.01978014892578125,0.7615973291015625
-0.20026890625,-0.0886505322265625,0.7424275341796875
-0.29582470703125,-0.1278649853515625,0.7999369189453125
-0.35661083984374997,-0.09575815185546875,0.862115869140625
-0.2484115234375,-0.19918627197265626,0.8972604931640625
-0.331566953125,-0.01487834228515625,1.078390478515625
-0.33375525390625,0.07433453857421875,0.9414984814453125
-0.329621796875,-0.10899302978515625,0.788385888671875
-0.2255559375,0.0799716162109375,0.9009469921875
-0.360744296875,0.00227798095703125,0.914218388671875
-0.31478998046875,-0.01781942626953125,1.05725455078125
-0.296554140625,-0.00213364501953125,1.0958399072265625
-0.3641483203125,0.0025230712890624996,0.9901602685546875
-0.3359435546875,0.0338946337890625,0.8313950439453125
-0.31916658203125,0.059874208984374996,0.8245135791015625
-0.24281919921875,0.028502646484374998,0.8549886376953125
-0.3111428125,0.0584036669921875,0.9921264013671875
-0.33181009765625,0.07531489990234375,1.0348897900390626
-0.337402421875,-0.011201987304687501,0.9798380712890625
-0.30068759765624997,-0.0092412646484375,0.98942296875
-0.3344846875,0.014777587890624999,0.9778719384765625
-0.2396583203125,-0.04919098876953125,1.07298361328125
-0.28196546875,0.02286556884765625,1.11427240234375
-0.39940427734375,-0.07443529296875,1.0299744580078125
-0.408400625,0.057913486328125,1.04152548828125
-0.308225078125,0.0486000537109375,1.006626630859375
-0.327676640625,-0.03105430419921875,0.9820499707031249
-0.346155625,0.07580508056640625,1.100017939453125
-0.37071322265625,-0.03154448486328125,0.9636174755859375
-0.21801845703125,-0.05262225341796875,0.8997181591796874
-0.29339326171875,0.0231106591796875,0.9572275439453125
-0.38335673828125,-0.026397587890625,0.9911433349609375
-0.21996361328125,-0.0562986083984375,1.0503730859375
-0.52827087890625,0.0152677685546875,1.04545775390625
-0.28901666015625,-0.046004814453125,1.0373474560546876
-0.33424154296874997,-0.05090662109375,0.924049052734375
-0.2318776953125,-0.06634731201171876,1.0368559228515626
-0.33667298828125003,0.00325834228515625,1.049881552734375
-0.335457265625,-0.08546435791015625,0.9115149560546875
-0.24695265625,-0.014633251953124999,0.9520664453125
-0.27151025390625,-0.01585870361328125,1.069542880859375
-0.35101851562499997,-0.12958061767578125,1.1248403662109374
-0.37338781249999997,0.0044837939453125,1.1130435693359375
-0.28074974609375003,-0.00997653564453125,1.058729150390625
-0.3544225390625,-0.040122646484374996,0.901438525390625
-0.20342978515625,-0.01928996826171875,0.8431918408203125
-0.25838044921875,-0.1562954638671875,0.80067421875
-0.2688356640625,-0.06732767333984375,0.9120064892578125
-0.35344996093750003,-0.04330882080078125,0.9097945898437501
-0.29339326171875,-0.05164189208984375,0.854251337890625
-0.21072412109375,0.00963069091796875,0.8446664404296875
-0.292663828125,0.038306259765625,0.904387724609375
-0.335457265625,0.04443351806640625,1.026287958984375
-0.32840607421875,0.0436982470703125,1.0894499755859375
-0.2736985546875,0.10913736572265625,1.06708521484375
-0.30919765625,0.04884514404296875,0.9906518017578125
-0.28196546875,0.024581201171875,1.0191607275390624
-0.3184371484375,-0.030319033203124998,0.974185439453125
-0.247925234375,-0.004829638671875,0.9245405859375
-0.30555048828125,0.0044837939453125,0.89504859375
-0.3038484765625,-0.08203309326171875,0.91765912109375
-0.27394169921875,-0.049926259765625,0.9351085498046875
-0.32937865234375,-0.11928682373046876,0.9213456201171875
-0.2523018359375,-0.10311086181640625,1.0653648486328124
-0.20464550781250002,-0.163648173828125,1.069542880859375
-0.3583128515625,-0.09526797119140624,1.0786362451171876
-0.29509527343749997,-0.020515419921875,1.11623853515625
-0.330594375,-0.118551552734375,0.9955671337890625
-0.366579765625,-0.00850599365234375,1.0329236572265625
-0.27029453125,-0.011201987304687501,1.0383305224609374
-0.2707808203125,-0.055073156738281254,1.019406494140625
-0.3811684375,-0.059484782714843754,1.0147369287109376
-0.30530734375,0.042227705078125,1.0108046630859375
-0.33521412109375,-0.01291761962890625,1.1096028369140625
-0.41593810546875,-0.02958376220703125,1.0904330419921875
-0.38578818359375,0.03659062744140625,1.053813818359375
-0.3135742578125,-0.05899460205078125,0.8962774267578125
-0.32062544921875,0.0936966748046875,0.8537598046875
-0.36196001953125,-0.0011532836914062497,0.825742412109375
-0.386031328125,0.08242251953125,0.81148794921875
-0.347128203125,-0.008751083984375,0.7630719287109375
-0.300444453125,-0.03889719482421875,0.722520439453125
-0.1890842578125,-0.06389640869140625,0.7350545361328125
-0.288773515625,-0.10016977783203125,0.78396208984375
-0.34493990234375,-0.0562986083984375,0.879811064453125
-0.34493990234375,-0.079337099609375,0.9267524853515625
-0.3787369921875,-0.08963089355468751,0.9641090087890625
-0.387976484375,-0.0013983740234375002,0.925032119140625
-0.32281375,0.03144373046875,0.8785822314453124
-0.26664736328125,0.0093856005859375,0.7969877197265625
-0.323786328125,-0.00409436767578125,0.733825703125
-0.22044990234375,-0.032279755859375,0.84097994140625
-0.25205869140625,-0.057278969726562504,0.9523122119140625
-0.33618669921875,-0.0464949951171875,0.98450763671875
-0.35174794921875,0.0373258984375,0.97271083984375
-0.265431640625,-0.046249904785156254,0.9717277734375
-0.23747001953125,0.03757098876953125,1.0031858984375
-0.267376796875,0.004973974609375,1.0280083251953125
-0.356853984375,-0.0268877685546875,1.0024485986328124
-0.30944080078125,0.04100225341796875,1.062661416015625
-0.35904228515625003,0.1084020947265625,1.0348897900390626
-0.230418828125,0.04296297607421875,1.00023669921875
-0.33618669921875,0.034384814453125,0.9891772021484375
-0.23819945312500002,0.15815543212890626,1.1368829296875
-0.35612455078125,-0.042328459472656246,0.9813126708984374
-0.1696326953125,0.08707923583984375,1.0982975732421876
-0.24233291015625,-0.04698517578125,1.1400778955078126
-0.4419545703125,-0.044534272460937496,1.2442829345703126
-0.34493990234375,-0.04379900146484375,1.168832587890625
-0.377278125,-0.0553182470703125,0.989914501953125
-0.30166017578125,0.0250713818359375,0.945676513671875
-0.33253953125,-0.0955130615234375,0.85081060546875
-0.205131796875,0.0642858349609375,0.859658203125
-0.28196546875,-0.02615249755859375,0.8299204443359375
-0.3106565234375,-0.1180613720703125,0.859658203125
-0.19759431640625,-0.11977700439453125,0.88226873046875
-0.25789416015625,-0.25310614501953127,0.9675497412109375
-0.27248283203125,-0.13056097900390626,1.06806828125
-0.35393625,-0.1033559521484375,1.10444173828125
-0.33326896484375,-0.044044091796875,1.102967138671875
-0.34202216796875,-0.0651218603515625,1.163917255859375
-0.42615017578125003,0.004973974609375,1.1422897949218749
-0.31673513671875,-0.0170841552734375,1.0584833837890626
-0.35466568359375,-0.02737794921875,0.959439443359375
-0.19078626953125,0.07531489990234375,1.00515203125
-0.2630001953125,0.008405239257812499,0.89013326171875
-0.323786328125,-0.00850599365234375,0.995812900390625
-0.27685943359375,0.01845394287109375,1.1110774365234375
-0.38238416015625,-0.015368522949218751,1.031203291015625
-0.28123603515625,0.0672269189453125,1.0437373876953124
-0.24306234375,0.00963069091796875,1.01989802734375
-0.3670660546875,-0.01585870361328125,0.9245405859375
-0.40645546875,0.05423713134765625,0.8830060302734375
-0.2785614453125,0.0495804150390625,0.8200897802734375
-0.2333365625,0.11379408203125,0.8490902392578125
-0.33667298828125003,-0.00581,1.0179318945312499
-0.42760904296875,0.0191892138671875,1.0973145068359376
-0.35758341796875,0.1044806494140625,1.047915419921875
-0.2912049609375,-0.01438816162109375,0.9100403564453124
-0.3826273046875,-0.08350363525390625,0.8392595751953125
-0.1210037890625,0.04541387939453125,0.8567090039062499
-0.23844259765625,-0.0317895751953125,0.784453623046875
-0.3699837890625,-0.010221625976562499,0.796741953125
-0.31965287109375,0.01698340087890625,0.8613785693359375
-0.366579765625,-0.037916833496093746,0.8380307421875
-0.33764556640625,0.067717099609375,0.9031588916015625
-0.28634207031250003,-0.0866898095703125,0.828200078125
-0.302389609375,-0.01389798095703125,0.8223016796875
-0.26956509765625,-0.06634731201171876,0.8451579736328125
-0.1861665234375,-0.0562986083984375,0.9444476806640625
-0.28415376953125,0.0093856005859375,1.0575003173828126
-0.4370916796875,-0.12467881103515625,1.1371286962890625
-0.31478998046875,-0.03987755615234375,1.158510390625
-0.29363640625,0.01453249755859375,1.109848603515625
-0.40183572265625,-0.06095532470703125,0.9953213671875
-0.17571130859375,0.0623251123046875,0.9749227392578125
-0.372415234375,-0.028358310546875,0.9080742236328125
-0.4186126953125,0.0368357177734375,0.9783634716796875
-0.321841171875,0.046149150390625,0.96288017578125
-0.25497642578125,0.00423870361328125,0.9577190771484375
-0.21315556640625,-0.008751083984375,0.9896687353515625
-0.37411724609375,-0.1788437744140625,1.001219765625
-0.2411171875,-0.0001729223632812504,1.09067880859375
-0.41204779296875,-0.04968116943359375,0.94911724609375
-0.39478453125,-0.00311400634765625,0.9945840673828125
-0.2474389453125,-0.013652890625,0.8662939013671875
-0.30992708984375,-0.0661022216796875,0.8544971044921875
-0.1326747265625,-0.0631611376953125,0.9501003125
-0.2931501171875,-0.0151234326171875,0.845403740234375
-0.24184662109375,-0.02174087158203125,0.9365831494140625
-0.3145468359375,-0.0004180126953125,1.0201437939453124
-0.46091984375,0.11060790771484375,1.072000546875
-0.3203823046875,0.1054610107421875,1.14179826171875
-0.29193439453125003,0.01845394287109375,1.07691587890625
-0.3967296875,0.0427178857421875,1.012525029296875
-0.4049966015625,0.065756376953125,0.8618701025390625
-0.26275705078125,0.0515411376953125,0.72104583984375
-0.19078626953125,-0.0219859619140625,0.7832247900390625
-0.105928828125,0.0731090869140625,0.987948369140625
-0.29631099609375,0.03659062744140625,1.1130435693359375
-0.35661083984374997,0.022620478515625,1.1238572998046874
-0.3213548828125,0.091245771484375,0.94223578125
-0.2435486328125,0.01453249755859375,0.8687515673828125
-0.22239505859375,-0.07664110595703125,0.9252778857421875
-0.40475345703125,-0.07713128662109375,1.0857634765625
-0.500795546875,0.03806116943359375,1.079865078125
-0.28196546875,-0.15948163818359376,0.87440419921875
-0.3145468359375,-0.104826494140625,0.800182685546875
-0.27151025390625,-0.05801424072265625,0.83901380859375
-0.137051328125,-0.11585555908203125,0.8498275390625
-0.30895451171875,-0.09134652587890625,0.96288017578125
-0.284883203125,0.12188206298828125,1.098051806640625
-0.3330258203125,0.08119706787109375,0.9945840673828125
-0.36196001953125,0.0211499365234375,1.0004824658203124
-0.28658521484375,0.17531175537109375,1.0597122167968749
-0.43587595703125,0.0780108935546875,0.9842618701171875
-0.34421046875,0.10080429443359375,0.9756600390625
-0.2931501171875,-0.0004180126953125,0.9945840673828125
-0.3301080859375,0.0535018603515625,1.198324580078125
-0.45970412109375003,-0.09281706787109376,1.1582646240234376
-0.36633662109375,0.0025230712890624996,1.0992806396484376
-0.23309341796875,-0.02370159423828125,0.978117705078125
-0.34445361328125,-0.024436865234375,0.8913620947265625
-0.17522501953125,-0.0268877685546875,0.9773804052734375
-0.4098594921875,-0.14330567626953125,0.8984893261718749
-0.268349375,0.07065818359375,0.9124980224609375
-0.19224513671875,-0.05703387939453125,0.798216552734375
-0.2980130078125,-0.0016434643554687498,0.840488408203125
-0.26616107421875,0.06453092529296875,0.9444476806640625
-0.35588140625,0.071638544921875,1.0137538623046876
-0.3427516015625,0.05472731201171875,1.1037044384765624
-0.40718490234375,-0.05164189208984375,0.941744248046875
-0.30506419921875,0.07629526123046874,1.0039231982421875
-0.3369161328125,-0.09085634521484375,1.00023669921875
-0.346155625,-0.110708662109375,0.951574912109375
-0.26859251953125,-0.0411030078125,1.00515203125
-0.24622322265625,-0.05850442138671875,0.9759058056640625
-0.31965287109375,-0.091101435546875,0.8481071728515625
-0.302389609375,-0.011201987304687501,0.765283828125
-0.29752671875000003,0.019679394531249998,0.689096181640625
-0.14945169921875,0.03217900146484375,0.7409529345703125
-0.284883203125,0.10619628173828125,0.9916348681640625
-0.35126166015625,0.04541387939453125,1.144255927734375
-0.38676076171875,0.1584005224609375,1.2084010107421874
-0.4667553125,0.080461796875,1.14376439453125
-0.337402421875,0.09835339111328124,1.1022298388671874
-0.2775888671875,-0.053847705078125,1.097068740234375
-0.4302836328125,-0.0817880029296875,0.97467697265625
-0.331566953125,-0.014633251953124999,0.8874298291015625
-0.16793068359375,-0.05703387939453125,0.797233486328125
-0.206104375,-0.068553125,0.8289373779296875
-0.17717017578125,-0.04870080810546875,0.911269189453125
-0.17303671874999998,0.0358553564453125,1.0245675927734375
-0.46651216796875,-0.01095689697265625,1.1789090185546875
-0.51514107421875,-0.004829638671875,1.2206893408203126
-0.2177753125,0.08953013916015624,1.159984990234375
-0.32548833984375003,-0.05262225341796875,0.94715111328125
-0.3485870703125,-0.1739419677734375,0.8928366943359375
-0.224583359375,-0.08423890625,0.8844806298828125
-0.29582470703125,-0.1484525732421875,0.859166669921875
-0.2552195703125,-0.15114856689453124,0.8785822314453124
-0.26275705078125,-0.130315888671875,0.941744248046875
-0.2484115234375,-0.11757119140625,0.987948369140625
-0.37533296875,-0.059729873046875,1.022355693359375
-0.2878009375,-0.03987755615234375,1.12803533203125
-0.30603677734375,0.022620478515625,1.0609410498046874
-0.3690112109375,0.0456589697265625,0.9380577490234375
-0.415208671875,-0.07664110595703125,0.8456495068359375
-0.32208431640625,0.0535018603515625,0.869980400390625
-0.27515742187500003,0.0044837939453125,0.8333611767578125
-0.35223423828125,0.0255615625,0.8982435595703124
-0.28585578125,0.0883046875,1.0653648486328124
-0.4127772265625,0.03757098876953125,1.01596576171875
-0.30117388671875,0.0172284912109375,1.038084755859375
-0.26154132812499997,-0.06659240234375,0.97074470703125
-0.222638203125,-0.19967645263671874,0.8726838330078125
-0.1239215234375,-0.12149263671875,0.967303974609375
-0.2571647265625,-0.0945327001953125,1.1051790380859374
-0.38335673828125,-0.052867343750000004,1.1975872802734375
-0.4604335546875,0.050070595703125,1.1449932275390624
-0.548451875,0.01208159423828125,0.9557529443359375
-0.44414287109375,-0.01683906494140625,0.7645465283203124
-0.2659179296875,-0.07026875732421875,0.668451787109375
-0.0538958984375,-0.0268877685546875,0.8638362353515625
-0.39089421875,0.04320806640625,1.0346440234375
-0.34931650390625,-0.055073156738281254,1.1504000927734375
-0.30846822265625,-0.028113220214843748,1.039067822265625
-0.32500205078125,-0.07419020263671874,0.918150654296875
-0.1667149609375,-0.07615092529296875,0.9183964208984375
-0.28269490234375,-0.12271808837890624,0.859166669921875
-0.39940427734375,-0.051886982421875,0.84786140625
-0.4234755859375,-0.03448556884765625,0.7942842871093749
-0.33618669921875,-0.0386521044921875,0.75643623046875
-0.28366748046875,-0.014633251953124999,0.788877421875
-0.1861665234375,-0.03448556884765625,0.8338527099609375
-0.31916658203125,-0.07664110595703125,0.850319072265625
-0.3446967578125,-0.0038492773437499997,1.1054248046875
-0.28123603515625,-0.09036616455078125,1.1037044384765624
-0.30871136718750003,-0.05213207275390625,1.0727378466796875
-0.29752671875000003,0.0348749951171875,1.0796193115234376
-0.37533296875,-0.13840386962890625,0.9070911572265625
-0.268349375,-0.0006631030273437505,0.880794130859375
-0.242089765625,0.0255615625,0.8348357763671875
-0.38919220703125,-0.02517213623046875,0.9174133544921875
-0.23990146484375,0.0338946337890625,1.0668394482421875
-0.45411179687500003,-0.06781785400390625,1.0267794921875
-0.3583128515625,-0.0945327001953125,1.0307117578125
-0.2367405859375,0.02090484619140625,1.0570087841796876
-0.4448723046875,-0.13007079833984375,0.97860923828125
-0.296554140625,-0.06928839599609375,0.9901602685546875
-0.27734572265625,-0.16585398681640626,0.9277355517578125
-0.27248283203125,-0.01830960693359375,0.9835245703125
-0.25400384765625,-0.14134495361328125,1.0260421923828125
-0.29436583984375,-0.06781785400390625,1.0149826953125
-0.29776986328125,-0.04477936279296875,0.9641090087890625
-0.28658521484375,-0.0504164404296875,0.9621428759765625
-0.2980130078125,-0.06585713134765625,0.922082919921875
-0.29776986328125,-0.08301345458984374,0.9552614111328125
-0.39454138671875,-0.07051384765625,0.869980400390625
-0.356853984375,-0.0768861962890625,0.8151744482421874
-0.29776986328125,-0.0308092138671875,0.78494515625
-0.26178447265625,-0.0866898095703125,0.74660556640625
-0.35515197265625,-0.059729873046875,0.8559717041015625
-0.32500205078125,0.01453249755859375,0.9324051171875
-0.2425760546875,-0.063651318359375,0.914218388671875
-0.25862359375,-0.063651318359375,0.9508376123046876
-0.30652306640625,-0.008751083984375,1.04939001953125
-0.3189234375,0.01012087158203125,1.05725455078125
-0.280992890625,0.0368357177734375,1.0444746875
-0.3787369921875,0.07629526123046874,1.0525849853515625
-0.3505322265625,0.10570610107421875,1.1005094726562499
-0.29339326171875,-0.028358310546875,1.0250591259765625
-0.38432931640625,0.12433296630859375,1.0751955126953125
-0.3729015234375,0.00399361328125,1.068559814453125
-0.28585578125,0.011346323242187501,0.9857364697265625
-0.27783201171875,0.0995788427734375,0.9965502001953125
-0.2746711328125,-0.1102184814453125,0.909303056640625
-0.30506419921875,-0.170510703125,0.9326508837890625
-0.2484115234375,-0.0808076416015625,1.0201437939453124
-0.32013916015625,-0.2092349755859375,0.964354775390625
-0.43393080078125,-0.14698203125,0.925032119140625
-0.33715927734375,-0.12663953369140624,0.7905977880859375
-0.31187224609374997,-0.12614935302734376,0.6775451513671875
-0.27394169921875,-0.03129939453125,0.745130966796875
-0.21510072265625,-0.12614935302734376,0.7227662060546876
-0.28755779296875,-0.03105430419921875,0.8338527099609375
-0.42809533203125,0.02531647216796875,0.946168046875
-0.30141703125,-0.09575815185546875,1.0034316650390624
-0.29533841796875,-0.08889562255859375,1.1430270947265626
-0.2921775390625,-0.055808427734375,1.17817171875
-0.321841171875,-0.10311086181640625,1.114763935546875
-0.387976484375,-0.07051384765625,1.0112961962890625
-0.29631099609375,-0.03742665283203125,0.8812856640625
-0.28269490234375,0.0368357177734375,0.828691611328125
-0.28269490234375,0.0378160791015625,0.9704989404296875
-0.21899103515625,-0.055073156738281254,1.05528841796875
-0.3096839453125,0.03953171142578125,1.18505318359375
-0.46602587890625,0.01012087158203125,1.1523662255859375
-0.2800203125,0.0015427099609375003,0.98647376953125
-0.403537734375,0.0010525292968750002,0.97369390625
-0.5168430859375,-0.0964934228515625,1.0265337255859375
-0.38238416015625,-0.13350206298828124,0.89013326171875
-0.23819945312500002,-0.05899460205078125,0.6657483544921875
-0.08769298828125,-0.0621807763671875,0.6106966357421875
-0.197351171875,0.0407571630859375,0.802148818359375
-0.26567478515625,0.0686974609375,1.04742388671875
-0.39648654296875,0.071638544921875,1.20864677734375
-0.34007701171875,0.07482471923828125,1.418531455078125
-0.43149935546875,0.04002189208984375,1.3981328271484375
-0.37338781249999997,0.097127939453125,1.2010280126953126
-0.44171142578125,-0.05605351806640625,1.0658563818359374
-0.4079143359375,-0.01046671630859375,1.124594599609375
-0.42906791015625,-0.15899145751953125,1.002694365234375
-0.31819400390625,-0.15899145751953125,0.8412257080078125
-0.24938410156250002,-0.08350363525390625,0.647315859375
-0.23649744140625,-0.07517056396484376,0.59324720703125
-0.1764407421875,-0.1308060693359375,0.6451039599609375
-0.20440236328125,-0.04821062744140625,0.8618701025390625
-0.3262177734375,-0.08619962890625,1.08379734375
-0.5212196875,-0.12860025634765626,1.1548238916015625
-0.35320681640625,-0.18006922607421874,1.148188193359375
-0.43684853515625,-0.2209993115234375,1.0334151904296875
-0.37898013671874997,-0.13301188232421876,0.924049052734375
-0.33667298828125003,0.00276816162109375,0.9080742236328125
-0.24476435546875,-0.04821062744140625,0.922082919921875
-0.28391062499999997,-0.046740085449218746,0.97467697265625
-0.2912049609375,-0.06144550537109375,0.9397781152343749
-0.177899609375,-0.03154448486328125,0.8702261669921875
-0.22701480468750002,-0.02958376220703125,0.99433830078125
-0.3057936328125,0.083402880859375,1.157035791015625
-0.36974064453125,-0.0646316796875,1.16539185546875
-0.44511544921875,0.01747358154296875,1.056763017578125
-0.43368765625,-0.01144707763671875,0.8918536279296875
-0.34785763671875003,0.00178780029296875,0.8267254785156251
-0.26859251953125,-0.04036773681640625,0.84491220703125
-0.25935302734375,0.042227705078125,0.9528037451171875
-0.12562353515625,-0.0406128271484375,1.1464678271484374
-0.265431640625,-0.0386521044921875,1.3180129150390625
-0.46894361328125,-0.00581,1.3194875146484375
-0.21364185546875,-0.11144393310546875,1.07494974609375
-0.3612305859375,-0.22565602783203126,0.8982435595703124
-0.33715927734375,-0.1327667919921875,0.7807671240234375
-0.14993798828125,-0.175412509765625,0.6657483544921875
-0.23941517578125,-0.2062938916015625,0.7060540771484375
-0.38676076171875,-0.03914228515625,0.882760263671875
-0.4332013671875,0.01698340087890625,0.926015185546875
-0.30871136718750003,-0.0406128271484375,0.870963466796875
-0.16987583984375,0.10276501708984374,0.9095488232421876
-0.09061072265625,0.1157548046875,1.10837400390625
-0.37168580078125,-0.16340308349609375,1.23224037109375
-0.37338781249999997,-0.01438816162109375,1.363479736328125
-0.387976484375,-0.139139140625,1.23027423828125
-0.32013916015625,-0.19820591064453125,1.009084296875
-0.26154132812499997,-0.165608896484375,0.8682600341796876
-0.3339983984375,-0.177373232421875,0.7672499609375
-0.26956509765625,-0.18742193603515625,0.6937657470703125
-0.39016478515624997,-0.12075736572265625,0.636993662109375
-0.27929087890625,0.00472888427734375,0.749063232421875
-0.282938046875,-0.03105430419921875,0.84884447265625
-0.35101851562499997,-0.042328459472656246,0.8773533984374999
-0.32986494140625,0.0221302978515625,0.9577190771484375
-0.36536404296875,0.008405239257812499,1.07298361328125
-0.2620276171875,-0.09918941650390625,1.0565172509765626
-0.28415376953125,-0.03914228515625,1.07494974609375
-0.4156949609375,-0.09771887451171875,1.00416896484375
-0.31697828125,-0.00703545166015625,0.9754142724609375
-0.28391062499999997,0.06747200927734374,0.883251796875
-0.35806970703125,0.03855135009765625,0.8235305126953125
-0.26640421875,0.05497240234375,0.814928681640625
-0.2989855859375,-0.02370159423828125,0.733334169921875
-0.29144810546875,-0.0778665576171875,0.7974792529296875
-0.33083751953125,-0.042328459472656246,0.8785822314453124
-0.35417939453125,0.01575794921875,0.91372685546875
-0.33375525390625,-0.04919098876953125,0.845403740234375
-0.22190876953125,-0.05017135009765625,0.7945300537109374
-0.37119951171875,-0.02419177490234375,0.8220559130859375
-0.33083751953125,-0.071494208984375,0.9872110693359375
-0.45046462890625,0.0378160791015625,0.95501564453125
-0.31770771484375,-0.0190448779296875,0.937811982421875
-0.251815546875,-0.01095689697265625,0.81935248046875
-0.16720125,-0.09575815185546875,0.8004284521484375
-0.1997826171875,-0.1406096826171875,0.938303515625
-0.52705515625,-0.0876701708984375,1.0869923095703125
-0.39818855468750003,-0.14722712158203125,1.053813818359375
-0.280992890625,-0.1161006494140625,0.8677685009765626
-0.20026890625,-0.04085791748046875,0.865065068359375
-0.2571647265625,-0.06144550537109375,0.96484630859375
-0.41399294921875,-0.10507158447265624,0.9316678173828125
-0.35806970703125,0.024091020507812498,0.938303515625
-0.222638203125,0.050070595703125,0.966320908203125
-0.26227076171875,0.06551128662109375,1.1100943701171875
-0.314060546875,-0.0411030078125,1.2629611962890626
-0.3281629296875,0.00472888427734375,1.3573355712890625
-0.30166017578125,0.07825598388671876,1.246494833984375
-0.448276328125,0.03364954345703125,1.0457035205078125
-0.33108066406250003,0.19050735595703125,1.0152284619140626
-0.3427516015625,0.1564397998046875,0.938795048828125
-0.397702265625,0.04884514404296875,1.0137538623046876
-0.21315556640625,-0.0494360791015625,0.9921264013671875
-0.10203851562499999,-0.09428760986328125,0.9778719384765625
-0.28804408203125,-0.11536537841796875,1.0835515771484374
-0.421044140625,-0.21340151123046874,1.1408151953125
-0.34056330078125,-0.13056097900390626,1.1184504345703126
-0.3811684375,-0.091101435546875,1.0545511181640626
-0.40864376953125,-0.04428918212890625,1.0176861279296876
-0.34931650390625,-0.010221625976562499,0.97860923828125
-0.26372962890625,-0.0680629443359375,0.8616243359375
-0.1939471484375,-0.06046514404296875,0.7783094580078125
-0.16695810546875,-0.01585870361328125,0.9336339501953125
-0.40256515625,-0.13987441162109376,1.0614325830078124
-0.36098744140625,-0.0009081933593750001,1.1073909375
-0.380195859375,-0.01830960693359375,0.81148794921875
-0.29874244140625,-0.0857094482421875,0.6623076220703125
-0.2211793359375,-0.04698517578125,0.7419360009765625
-0.34299474609375,0.0012976196289062499,0.8456495068359375
-0.35855599609375,0.0123266845703125,0.8267254785156251
-0.20804953125,0.028502646484374998,0.9442019140625
-0.2255559375,0.0917359521484375,1.080356611328125
-0.327676640625,0.02237538818359375,1.0417712548828124
-0.242089765625,-0.057278969726562504,1.0427543212890624
-0.27394169921875,0.01110123291015625,1.0368559228515626
-0.32743349609375,-0.134237333984375,1.060695283203125
-0.2503566796875,-0.0533575244140625,1.1518746923828125
-0.36730919921875,0.0191892138671875,1.1287726318359375
-0.39891798828125,-0.0999246875,0.9365831494140625
-0.2785614453125,0.04394333740234375,0.8962774267578125
-0.27053767578125,-0.05556333740234375,0.8812856640625
-0.33618669921875,0.0515411376953125,0.98942296875
-0.3578265625,-0.05556333740234375,0.8812856640625
-0.321841171875,0.014777587890624999,0.889641728515625
-0.2941226953125,0.05619785400390625,0.99827056640625
-0.32451576171875,-0.059729873046875,1.0368559228515626
-0.30068759765624997,0.033404453125,1.0346440234375
-0.3320532421875,0.05619785400390625,1.035135556640625
-0.28561263671875,-0.03742665283203125,1.0280083251953125
-0.38432931640625,0.02531647216796875,1.0309575244140625
-0.49374435546875,0.0133070458984375,1.0014655322265624
-0.33083751953125,-0.11438501708984375,0.975168505859375
-0.28853037109375,0.05521749267578125,0.83901380859375
-0.25838044921875,-0.15286419921875,0.65419732421875
0.0151571484375,-0.18840229736328126,0.8242678125
-0.2279873828125,-0.18399067138671876,1.156052724609375
-0.48304599609375,-0.175412509765625,1.430328251953125
-0.4789125390625,-0.17124597412109374,1.4084550244140626
-0.361716875,0.01551285888671875,1.3248943798828126
-0.39989056640625,0.06796218994140625,1.0732293798828125
-0.34007701171875,-0.0803174609375,0.858183603515625
-0.304334765625,-0.048455717773437504,0.7271900048828125
-0.335457265625,-0.0347306591796875,0.6682060205078125
-0.1628246484375,7.216796875000007e-05,0.6922911474609375
-0.1890842578125,-0.16462853515625,0.8569547705078124
-0.438550546875,-0.04968116943359375,1.0506188525390625
-0.317950859375,-0.10016977783203125,0.92355751953125
-0.191515703125,-0.053847705078125,0.9154472216796875
-0.38530189453125,0.00668960693359375,0.981066904296875
-0.4438997265625,0.061834931640625,0.9990078662109375
-0.3660934765625,0.081442158203125,0.9031588916015625
-0.36682291015625,0.14148928955078124,0.8913620947265625
-0.24038775390625,0.12286242431640625,0.859166669921875
-0.1890842578125,-0.0121823486328125,0.839996875
-0.27734572265625,0.15080272216796875,0.9719735400390626
-0.29193439453125003,-0.04723026611328125,0.851793671875
-0.29509527343749997,-0.0915916162109375,0.926998251953125
-0.22531279296875,-0.0670825830078125,1.0201437939453124
-0.35199109375,-0.09967959716796874,1.081339677734375
-0.45824525390625,-0.0455146337890625,0.969761640625
-0.31527626953125,-0.0043394580078125,0.7684787939453125
-0.2124261328125,-0.057769150390625,0.66796025390625
-0.2182616015625,0.0010525292968750002,0.861132802734375
-0.30166017578125,0.13021513427734374,1.021372626953125
-0.2955815625,-0.0190448779296875,1.0501273193359375
-0.346155625,-0.03693647216796875,1.040542421875
-0.30846822265625,0.02678701416015625,0.9631259423828125
-0.269321953125,-0.106787216796875,0.9011927587890625
-0.302389609375,-0.083258544921875,0.9385492822265625
-0.28269490234375,0.0373258984375,0.9700074072265625
-0.29922873046875,-0.16070708984375,0.84097994140625
-0.28804408203125,0.08903995849609375,0.9331424169921875
-0.300444453125,0.02335574951171875,0.944693447265625
-0.25473328125,0.00399361328125,0.934862783203125
-0.20877896484375,-0.034240478515625,1.025304892578125
-0.32597462890625,-0.146001669921875,0.9972875
-0.366579765625,-0.03399538818359375,1.029237158203125
-0.220693046875,-0.045024453125,1.103950205078125
-0.42128728515625,0.0015427099609375003,1.060695283203125
-0.33083751953125,0.0005623486328125002,1.164900322265625
-0.40669861328125,0.03462990478515625,1.13098453125
-0.38432931640625,0.0270321044921875,0.9641090087890625
-0.31576255859375,-0.11830646240234374,0.7173593408203125
-0.1725504296875,-0.0778665576171875,0.6532142578125
-0.13534931640625,-0.0955130615234375,0.656654990234375
-0.2649453515625,-0.06291604736328126,0.8795652978515625
-0.421044140625,-0.0464949951171875,1.038084755859375
-0.39940427734375,0.018699033203125,1.10444173828125
-0.4020788671875,0.055462583007812497,1.0575003173828126
-0.32402947265625,0.08805959716796875,1.00416896484375
-0.20002576171875,0.11992134033203125,0.997779033203125
-0.32305689453124997,-0.00360418701171875,0.9795923046875
-0.28318119140625,0.0358553564453125,1.0058893310546875
-0.2561921484375,-0.06928839599609375,0.935845849609375
-0.31673513671875,-0.05213207275390625,0.96681244140625
-0.33764556640625,0.03561026611328125,1.0663479150390625
-0.36244630859375,-0.0161037939453125,1.0621698828125
-0.26761994140625,-0.0347306591796875,1.008592763671875
-0.35661083984374997,0.018699033203125,0.9609140429687499
-0.29874244140625,-0.0001729223632812504,0.8992266259765624
-0.384086171875,-0.00262382568359375,0.7409529345703125
-0.23990146484375,0.0731090869140625,0.7807671240234375
-0.27613,0.0133070458984375,0.798216552734375
-0.29971501953125,0.02360083984375,0.9572275439453125
-0.40062,0.0495804150390625,0.9852449365234375
-0.31381740234375,0.05889384765625,0.8766160986328125
-0.2542469921875,-0.06634731201171876,0.769707626953125
-0.17303671874999998,-0.018554697265625,0.938795048828125
-0.3111428125,-0.10507158447265624,1.048898486328125
-0.296554140625,-0.173451787109375,1.02776255859375
-0.23309341796875,-0.07222947998046875,0.848352939453125
-0.24379177734375002,-0.06536695068359374,0.8210728466796875
-0.31187224609374997,-0.083258544921875,0.8323781103515625
-0.33983386718749997,0.08413815185546875,0.9188879541015624
-0.29776986328125,0.057913486328125,0.987948369140625
-0.18738224609375,0.0137972265625,0.93437125
-0.20464550781250002,0.010611052246093749,1.1238572998046874
-0.4322287890625,0.03413972412109375,1.3460303076171876
-0.52194912109375,0.04051207275390625,1.337920009765625
-0.41642439453125,0.09051050048828126,1.188493916015625
-0.29363640625,0.08217742919921875,0.9795923046875
-0.2386857421875,-0.04870080810546875,0.80952181640625
-0.232363984375,0.10202974609375,0.8078014501953125
-0.3072525,0.0672269189453125,0.72104583984375
-0.17230728515625,-0.0631611376953125,0.7856824560546875
-0.19662173828125,-0.030319033203124998,1.0265337255859375
-0.38238416015625,0.02776737548828125,1.2850801904296876
-0.4283384765625,-0.01953505859375,1.3295639453125
-0.3738741015625,0.0858537841796875,1.2467406005859374
-0.331566953125,0.13340130859375,0.9631259423828125
-0.27515742187500003,0.026296833496093748,0.8815314306640625
-0.325731484375,-0.01732924560546875,0.9124980224609375
-0.31770771484375,0.00399361328125,0.938795048828125
-0.19467658203125,0.05276658935546875,0.9402696484374999
-0.2610550390625,-0.09722869384765626,0.8648193017578125
-0.3680386328125,-0.08546435791015625,0.94125271484375
-0.2698082421875,-0.06585713134765625,0.90586232421875
-0.09401474609375,-0.05605351806640625,0.94321884765625
-0.3690112109375,-0.136198056640625,0.931913583984375
-0.39600025390625,-0.12222790771484375,1.0633987158203124
-0.216802734375,0.017718671875,0.8972604931640625
-0.35904228515625003,-0.02370159423828125,0.7384952685546875
-0.3505322265625,0.055952763671875,0.7615973291015625
-0.2717533984375,0.18021356201171876,0.8977520263671875
-0.380195859375,0.1348718505859375,1.036118623046875
-0.252788125,-0.05605351806640625,1.0149826953125
-0.18349193359375,-0.01389798095703125,0.8778449316406249
-0.1929745703125,-0.01928996826171875,0.837539208984375
-0.16258150390625,0.0005623486328125002,1.0174403613281249
-0.49982296875,0.00963069091796875,1.0319405908203125
-0.46067669921875,0.09982393310546875,1.02186416015625
-0.42371873046874997,0.04124734375,0.95894791015625
-0.35272052734375,0.02752228515625,0.9931094677734374
-0.27345541015625,0.1427147412109375,1.0388220556640624
-0.3388612890625,0.00987578125,1.0496357861328125
-0.23017568359375,0.0373258984375,1.056271484375
-0.21315556640625,0.019434304199218752,0.899472392578125
-0.115654609375,0.06011929931640625,0.926015185546875
-0.30311904296875003,-0.02076051025390625,1.0594664501953126
-0.2912049609375,0.0613447509765625,1.25583396484375
-0.37119951171875,0.04492369873046875,1.2909785888671874
-0.36293259765625,0.075559990234375,1.278936025390625
-0.37314466796875,0.09100068115234375,1.0997721728515626
-0.42517759765625,-0.0006631030273437505,0.9196252539062499
-0.3651208984375,-0.0013983740234375002,0.878827998046875
-0.3388612890625,-0.106787216796875,0.837539208984375
-0.20391607421875,-0.0097314453125,0.8694888671875
-0.31138595703125,-0.081297822265625,0.729401904296875
-0.35661083984374997,-0.0063001806640625,0.733334169921875
-0.1725504296875,-0.047965537109375,0.7448852001953125
-0.27515742187500003,-0.0175743359375,0.749063232421875
-0.35223423828125,0.04541387939453125,0.7593854296875
-0.2255559375,-0.06095532470703125,0.768724560546875
-0.2678630859375,-0.09796396484375,0.7672499609375
-0.339347578125,-0.03129939453125,0.8254966455078125
-0.24306234375,-0.06389640869140625,0.8574463037109374
-0.4589746875,-0.076396015625,0.7306307373046875
-0.14361623046875,-0.03840701416015625,0.6598499560546875
0.0628134765625,-0.023456503906250002,0.9134810888671875
-0.27588685546875,0.05472731201171875,1.3531575390625
-0.45873154296875,0.06011929931640625,1.6148989697265625
-0.4750222265625,0.21256548583984375,1.5972037744140626
-0.56133853515625,0.13756784423828125,1.18505318359375
-0.317950859375,-0.0180645166015625,0.9621428759765625
-0.249870390625,0.02335574951171875,0.84491220703125
-0.30652306640625,0.08168724853515624,0.6652568212890625
-0.2192341796875,0.01747358154296875,0.517059560546875
-0.14993798828125,-0.06487677001953125,0.48904216796875
-0.152612578125,-0.0337502978515625,0.631095263671875
-0.2882872265625,-0.00262382568359375,0.95894791015625
-0.45824525390625,-0.10605194580078126,1.2113502099609375
-0.39308251953125,0.00865032958984375,1.3199790478515625
-0.36293259765625,0.07972652587890625,1.206189111328125
-0.38092529296875,0.06796218994140625,1.118696201171875
-0.3651208984375,0.038306259765625,1.0034316650390624
-0.33253953125,0.103010107421875,0.902913125
-0.19905318359375002,0.11796061767578125,0.923065986328125
-0.1783858984375,0.04320806640625,1.011541962890625
-0.27734572265625,-0.03252484619140625,0.991880634765625
-0.25011353515625,-0.06928839599609375,1.035135556640625
-0.2873146484375,0.0069346972656249995,1.038084755859375
-0.3641483203125,-0.03522083984375,1.064627548828125
-0.35709712890625,0.06306038330078124,1.1386032958984376
-0.407428046875,0.024091020507812498,1.050864619140625
-0.4040240234375,0.04320806640625,1.014491162109375
-0.32937865234375,-0.01978014892578125,0.951574912109375
-0.30214646484375,-0.06267095703125,0.9665666748046875
-0.27296912109375,-0.06634731201171876,0.9572275439453125
-0.31187224609374997,-0.0729647509765625,0.9061080908203125
-0.30263275390625,-0.0513968017578125,0.846386806640625
-0.25351755859375,-0.06046514404296875,0.81148794921875
-0.26251390625,0.04786478271484375,0.7947758203124999
-0.2464663671875,0.09100068115234375,0.8264797119140626
-0.29752671875000003,0.04639424072265625,0.818860947265625
-0.23139140625,0.07065818359375,0.962388642578125
-0.2873146484375,0.04688442138671875,1.0071181640625
-0.35515197265625,0.03217900146484375,0.9410069482421874
-0.2931501171875,0.101049384765625,0.897506259765625
-0.2523018359375,0.11452935302734375,0.9370746826171875
-0.23357970703125,0.0731090869140625,1.0496357861328125
-0.34348103515625,0.12188206298828125,1.113780869140625
-0.31965287109375,0.11894097900390625,1.2025026123046876
-0.39210994140625,-0.00605509033203125,1.1966042138671875
-0.3223274609375,0.03659062744140625,1.0948568408203125
-0.3038484765625,0.042227705078125,0.931913583984375
-0.240144609375,-0.0043394580078125,0.817877880859375
-0.27929087890625,0.00399361328125,0.749063232421875
-0.304334765625,0.019434304199218752,0.7296476708984375
-0.23163455078125,-0.04575972412109375,0.7539785644531249
-0.34202216796875,-0.05605351806640625,0.811979482421875
-0.2416034765625,0.00963069091796875,0.793301220703125
-0.19516287109375,-0.05458297607421875,0.834590009765625
-0.32864921874999997,-0.004829638671875,1.0398051220703124
-0.33375525390625,0.04884514404296875,1.2197062744140625
-0.4507077734375,0.03928662109375,1.251410166015625
-0.4088869140625,0.06845237060546874,1.152120458984375
-0.31308796875,0.08658905517578125,0.9972875
-0.249870390625,-0.0016434643554687498,0.8820229638671875
-0.277102578125,0.02286556884765625,0.8476156396484374
-0.26178447265625,0.0025230712890624996,0.8028861181640625
-0.253760703125,-0.0886505322265625,0.83114927734375
-0.28415376953125,-0.05850442138671875,1.0083469970703125
-0.2873146484375,-0.0268877685546875,1.0825685107421874
-0.3242726171875,-0.07173929931640625,0.9614055761718749
-0.25935302734375,0.0025230712890624996,0.8726838330078125
-0.21266927734375,-0.00360418701171875,0.8471241064453126
-0.33229638671875,-0.0063001806640625,0.9424815478515625
-0.3145468359375,0.06992291259765625,1.0857634765625
-0.35855599609375,0.0093856005859375,1.1010010058593749
-0.33472783203125,0.0407571630859375,1.1346710302734375
-0.2941226953125,0.01992448486328125,1.165883388671875
-0.38311359375,0.03413972412109375,1.11427240234375
-0.38335673828125,0.06158984130859375,0.973202373046875
-0.40815748046875,0.0407571630859375,0.7994453857421875
-0.26616107421875,0.059874208984374996,0.7436563671875001
-0.26081189453125,0.0137972265625,0.6554261572265625
-0.25400384765625,-0.02027032958984375,0.5561364501953125
-0.25449013671875,-0.00703545166015625,0.5168137939453125
-0.22968939453125,0.03119864013671875,0.5944760400390625
-0.2639727734375,-0.01169216796875,0.68368931640625
-0.23528171875,-0.032279755859375,0.8195982470703125
-0.28366748046875,0.061834931640625,1.008592763671875
-0.31697828125,0.04320806640625,1.1356540966796875
-0.33764556640625,0.049090234375,1.2231470068359376
-0.317950859375,0.10962754638671875,1.3047415185546876
-0.3500459375,0.171635400390625,1.295648154296875
-0.32791978515625,0.02433611083984375,1.150645859375
-0.1832487890625,0.08560869384765625,1.118696201171875
-0.36876806640625,0.04345315673828125,1.1567900244140625
-0.35855599609375,0.015022678222656249,1.070525947265625
-0.3466419140625,0.014777587890624999,0.921099853515625
-0.368524921875,-0.0033590966796874996,0.9144641552734375
-0.34445361328125,0.06453092529296875,0.9228202197265625
-0.3096839453125,-0.01487834228515625,0.8687515673828125
-0.2931501171875,-0.010221625976562499,0.751029365234375
-0.28853037109375,0.03928662109375,0.6274087646484375
-0.12246265625,0.010856142578125,0.652722724609375
-0.1219763671875,-0.04821062744140625,0.8419630078125
-0.3660934765625,0.1000690234375,1.1366371630859375
-0.4176401171875,-0.07051384765625,1.2978600537109375
-0.3578265625,-0.061690595703125004,1.3868275634765626
-0.37922328125,0.06502110595703126,1.2489525
-0.3500459375,-0.02762303955078125,1.058729150390625
-0.28755779296875,-0.0641414990234375,0.91176072265625
-0.2450075,-0.013162709960937501,0.8412257080078125
-0.2999581640625,-0.1278649853515625,0.8707177001953125
-0.30895451171875,-0.0376717431640625,1.067576748046875
-0.2980130078125,0.0221302978515625,1.1002637060546876
-0.296554140625,-0.079337099609375,0.9734481396484375
-0.28634207031250003,-0.00311400634765625,1.011541962890625
-0.37265837890625,-0.0425735498046875,1.031203291015625
-0.3524773828125,-0.0229663232421875,1.0053977978515625
-0.2532744140625,0.1025199267578125,0.9906518017578125
-0.30919765625,0.01600303955078125,0.9252778857421875
-0.286828359375,0.07923634521484375,1.0447204541015624
-0.33083751953125,0.09247122314453125,1.013508095703125
-0.35174794921875,0.00791505859375,0.84097994140625
-0.33521412109375,-0.0175743359375,0.7733941259765625
-0.23698373046875,0.02727719482421875,0.766758427734375
-0.23649744140625,0.01894412353515625,0.6967149462890625
-0.21850474609375,-0.03105430419921875,0.7384952685546875
-0.29436583984375,0.0417375244140625,0.771673759765625
-0.35272052734375,-0.0001729223632812504,0.8240220458984375
-0.221665625,0.061834931640625,0.996795966796875
-0.32791978515625,0.16011615478515626,1.0860092431640624
-0.407428046875,0.14884199951171875,0.9842618701171875
-0.1783858984375,0.17261576171875,0.9582106103515625
-0.1093328515625,0.1809488330078125,0.995812900390625
-0.302389609375,0.0976181201171875,1.1388490625
-0.2639727734375,-0.0038492773437499997,1.2745122265625
-0.39089421875,-0.0661022216796875,1.3332504443359374
-0.45338236328125,-0.032279755859375,1.2823767578125
-0.370470078125,0.02090484619140625,1.139340595703125
-0.37508982421875,-0.07517056396484376,0.892590927734375
-0.360744296875,0.04884514404296875,0.7711822265625
-0.247925234375,0.03561026611328125,0.64043439453125
-0.1278118359375,-0.091101435546875,0.61684080078125
-0.221665625,-0.026397587890625,0.8250051123046875
-0.339347578125,0.03144373046875,1.0122792626953125
-0.36876806640625,0.0020328906249999995,1.160968056640625
-0.3729015234375,0.017718671875,1.17718865234375
-0.37168580078125,0.0103659619140625,1.0412797216796874
-0.3563676953125,-0.0180645166015625,1.0039231982421875
-0.37752126953125,-0.06267095703125,0.870963466796875
-0.20804953125,-0.05360261474609375,0.76036849609375
-0.1083602734375,-0.0592396923828125,0.834590009765625
-0.40086314453125,-0.07124911865234375,0.9763973388671875
-0.28026345703125,-0.00850599365234375,1.007609697265625
-0.20294349609375,0.0780108935546875,1.1656376220703124
-0.372415234375,0.114774443359375,1.284834423828125
-0.39405509765625,0.18217428466796876,1.296631220703125
-0.3262177734375,0.03953171142578125,1.13983212890625
-0.3942982421875,0.10423555908203125,1.04742388671875
-0.2795340234375,0.0917359521484375,0.947642646484375
-0.259596171875,0.075559990234375,0.8313950439453125
-0.31576255859375,0.05962911865234375,0.8970147265625
-0.35952857421875,0.04541387939453125,0.952557978515625
-0.3028758984375,-0.11781628173828125,0.839996875
-0.24476435546875,-0.10409122314453124,0.859166669921875
-0.26859251953125,0.026296833496093748,0.9449392138671875
-0.31989601562500003,-0.03889719482421875,0.9960586669921875
-0.34542619140624997,0.01208159423828125,1.066593681640625
-0.2678630859375,0.032424091796875,1.0471781201171875
-0.214857578125,0.10913736572265625,1.035135556640625
-0.27831830078124997,0.13511694091796875,0.9754142724609375
-0.32208431640625,0.03708080810546875,1.04742388671875
-0.27783201171875,-0.01438816162109375,1.12213693359375
-0.31138595703125,0.03806116943359375,1.094119541015625
-0.294608984375,0.1015395654296875,0.954524111328125
-0.14215736328125,-0.068553125,0.871455
-0.30020130859375,0.1054610107421875,0.97074470703125
-0.46456701171875,0.038306259765625,1.1671122216796874
-0.4779399609375,-0.015368522949218751,1.0661021484375
-0.2411171875,0.08242251953125,0.9906518017578125
-0.33618669921875,0.10423555908203125,0.8997181591796874
-0.3184371484375,0.11943115966796874,0.8549886376953125
-0.2814791796875,0.1593808837890625,0.7790467578125
-0.32257060546875,0.1162449853515625,0.81640328125
-0.20829267578125,0.1064413720703125,0.90389619140625
-0.07553576171875,-0.07958218994140626,1.1327048974609375
-0.2571647265625,-0.02272123291015625,1.3303012451171874
-0.43295822265625,-0.175412509765625,1.1705529541015625
-0.2561921484375,-0.04085791748046875,0.810996416015625
-0.30360533203125,-0.05605351806640625,0.574077412109375
-0.20537494140625,0.044188427734375,0.564246748046875
-0.24768208984375,0.12531332763671876,0.7483259326171875
-0.31089966796875,0.19344843994140626,0.9552614111328125
-0.17279357421875,0.1603612451171875,1.10837400390625
-0.2523018359375,0.0064445166015625,1.217002841796875
-0.39016478515624997,0.116735166015625,1.19881611328125
-0.38870591796875,0.069677822265625,1.0058893310546875
-0.42809533203125,0.081442158203125,0.9582106103515625
-0.37606240234375,-0.0023787353515625003,0.8540055712890625
-0.24038775390625,0.01183650390625,0.727435771484375
-0.18008791015625,0.0858537841796875,0.6937657470703125
-0.27540056640625,0.0887948681640625,0.7045794775390625
-0.2980130078125,-0.03154448486328125,0.7758517919921875
-0.199296328125,0.07384435791015626,1.0201437939453124
-0.35223423828125,0.04737460205078125,1.160968056640625
-0.27248283203125,0.16869431640625,1.2482152001953124
-0.34980279296875,0.197124794921875,1.2555881982421875
-0.31089966796875,0.06698182861328125,1.0997721728515626
-0.251815546875,-0.0028689160156250004,0.930438984375
-0.21558701171875,0.1799684716796875,1.062661416015625
-0.35344996093750003,0.20521277587890624,1.1887396826171874
-0.38821962890625,0.06502110595703126,1.2015195458984376
-0.2411171875,0.10325519775390625,1.15752732421875
-0.35028908203125,-0.03301502685546875,0.9677955078125
-0.47137505859375,-0.0494360791015625,0.7581565966796875
-0.26178447265625,0.04002189208984375,0.60307787109375
-0.1034973828125,-0.02125069091796875,0.571128212890625
-0.1239215234375,-0.04772044677734375,0.630112197265625
-0.197351171875,0.11011772705078125,0.8839890966796875
-0.41593810546875,0.11011772705078125,0.97074470703125
-0.46699845703125,0.05889384765625,1.0582376171875
-0.237226875,0.12874459228515625,1.108865537109375
-0.40913005859375,0.026541923828125,1.0810939111328124
-0.13024328125,-0.028358310546875,1.0348897900390626
-0.019369375,-0.11536537841796875,1.00613509765625
-0.39989056640625,-0.0406128271484375,0.9940925341796875
-0.51659994140625,0.02360083984375,0.9021758251953125
-0.45921783203125,0.05374695068359375,0.7593854296875
-0.191515703125,0.165753232421875,0.862115869140625
-0.21972046875,0.0446786083984375,0.9999909326171875
-0.28755779296875,0.19589934326171876,1.0928907080078125
-0.323786328125,0.2054578662109375,1.0265337255859375
-0.2581373046875,0.152028173828125,0.8633447021484375
-0.22093619140625,0.1897720849609375,0.9434646142578125
-0.29679728515625,0.24295668701171874,1.1494170263671875
-0.20294349609375,0.07531489990234375,1.2875378564453124
-0.32208431640625,0.048109873046875,1.344801474609375
-0.41788326171875,0.1471263671875,1.244528701171875
-0.4200715625,-0.0533575244140625,0.8363103759765624
-0.32840607421875,-0.1219828173828125,0.6603414892578126
-0.1667149609375,-0.2053135302734375,0.462990908203125
-0.04733099609375,-0.0494360791015625,0.337158408203125
-0.011831894531250001,-0.1582561865234375,0.2641657275390625
-0.03079716796875,-0.17565760009765624,0.3256073779296875
-0.047087851562500005,-0.1837455810546875,0.31553094726562503
-0.23917203125,-0.118551552734375,0.44775337890625
-0.25449013671875,0.008405239257812499,0.6190527001953126
0.05065625,-0.0121823486328125,1.02776255859375
-0.02058509765625,0.330453935546875,1.7161548095703125
-0.3865176171875,0.6071609204101562,2.129718558349609
-0.6413330859375,0.6679433227539062,2.129718558349609
-0.636956484375,0.483390302734375,1.8975305615234375
-0.631121015625,0.3429535424804688,1.21061291015625
-0.48645001953125,0.1976149755859375,0.983033037109375
-0.29193439453125003,-0.0621807763671875,0.747097099609375
-0.01961251953125,-0.03497574951171875,0.492482900390625
-0.16695810546875,0.09026541015625,0.4330073828125
-0.2464663671875,-0.10727739746093751,0.631586796875
-0.26275705078125,-0.2540865063476562,1.034152490234375
-0.62698755859375,-0.0004180126953125,1.6822390185546876
-0.6612709375,0.43265660400390626,1.822571748046875
-0.6111831640625,0.377511279296875,1.744909501953125
-0.69604060546875,0.2936903857421875,1.62645
-0.4575158203125,0.3064350830078125,1.0540595849609375
-0.23747001953125,-0.15359947021484374,0.6588668896484375
-0.12367837890625,-0.22565602783203126,0.491499833984375
-0.0957167578125,-0.17467723876953126,0.42415978515624997
-0.05413904296875,-0.17957904541015626,0.377464130859375
-0.12076064453125,-0.244037802734375,0.7085117431640625
-0.2980130078125,-0.336191767578125,1.074458212890625
-0.51149390625,-0.03301502685546875,1.371344267578125
-0.47404964843749997,0.07482471923828125,1.6797813525390626
-0.39989056640625,0.21844765380859374,1.5052870654296875
-0.46870046875,0.226535634765625,1.3769968994140624
-0.177899609375,0.1280093212890625,1.023338759765625
-0.25643529296875,0.0142874072265625,0.864082001953125
-0.36876806640625,-0.05360261474609375,0.8653108349609375
-0.18786853515625002,-0.07173929931640625,0.8697346337890625
-0.28172232421875,-0.03595611083984375,0.721537373046875
-0.2425760546875,0.0829127001953125,0.5969337060546875
-0.33375525390625,-0.032279755859375,0.473804638671875
-0.21193984375,-0.1278649853515625,0.43890578125
-0.10325423828125,-0.01561361328125,0.30619181640625
-0.07942607421875,-0.02370159423828125,0.2307414697265625
-0.19029998046875,-0.02027032958984375,0.2376229345703125
-0.050491875000000006,0.04982550537109375,0.4637282080078125
0.0793473046875,0.00668960693359375,0.9129895556640625
0.07667271484375,0.2731027978515625,1.9120307910156251
-0.31624884765625,0.518683310546875,2.129718558349609
-0.79816130859375,0.2829064111328125,2.129718558349609
-0.3884627734375,0.1760470263671875,1.609246337890625
-0.563040546875,0.1897720849609375,1.1887396826171874
-0.0966893359375,0.34687498779296877,1.39346326171875
-0.2211793359375,0.16256705810546876,1.38264953125
-0.32062544921875,0.3196699609375,1.08674654296875
-0.34056330078125,0.19835024658203124,0.7389868017578125
-0.282938046875,-0.0033590966796874996,0.39245589355468746
-0.23844259765625,-0.04526954345703125,0.21230897460937498
-0.1997826171875,-0.03693647216796875,0.20788517578125
-0.08769298828125,-0.014633251953124999,0.31405634765625
0.027557519531249998,0.1235976953125,0.7498005322265625
-0.3019033203125,0.26207373291015623,1.2683680615234374
-0.6286895703125,0.1495772705078125,1.465227109375
-0.69652689453125,0.01183650390625,1.2428083349609376
-0.3164919921875,-0.1062970361328125,0.984999169921875
-0.1287844140625,-0.1994313623046875,0.816894814453125
0.031934121093750004,-0.04870080810546875,0.9397781152343749
-0.33424154296874997,-0.13791368896484374,1.079373544921875
-0.57349576171875,0.044188427734375,1.1366371630859375
-0.40062,-0.0631611376953125,0.9992536328125
-0.23455228515625,-0.0327699365234375,0.67385865234375
-0.22920310546875,0.04712951171875,0.497889765625
-0.22701480468750002,0.04786478271484375,0.44185498046875
-0.2163164453125,0.04492369873046875,0.51460189453125
-0.22750109375,0.10766682373046875,0.7286646044921875
-0.33253953125,0.12041152099609376,1.101984072265625
-0.49325806640625003,-0.00752563232421875,1.2875378564453124
-0.37144265625,0.065756376953125,1.33644541015625
-0.25303126953125,-0.02027032958984375,1.1852989501953124
-0.37922328125,0.0672269189453125,1.004660498046875
-0.3242726171875,0.1142842626953125,0.91765912109375
-0.22239505859375,0.116735166015625,0.82525087890625
-0.4098594921875,0.1250682373046875,0.7306307373046875
-0.24622322265625,0.14001874755859375,0.7237492724609375
-0.19953947265625,0.09492212646484376,0.6485446923828125
-0.24719580078125,0.1103628173828125,0.619298466796875
-0.3466419140625,0.07065818359375,0.760860029296875
-0.24476435546875,0.13217585693359374,0.9872110693359375
-0.36925435546875,0.0740894482421875,1.1400778955078126
-0.3656071875,0.16746886474609374,1.213070576171875
-0.41399294921875,0.179478291015625,1.01399962890625
-0.240144609375,0.21109494384765626,0.9292101513671875
-0.358799140625,0.16085142578125,0.915201455078125
-0.376305546875,0.23928033203125,1.0088385302734375
-0.23260712890625002,0.1534987158203125,1.0437373876953124
-0.30992708984375,0.00276816162109375,0.88030259765625
-0.2133987109375,-0.0288484912109375,0.7522581982421875
-0.273212265625,-0.0376717431640625,0.7586481298828125
-0.35977171875,-0.01585870361328125,0.850319072265625
-0.19248828125,-0.00850599365234375,1.035135556640625
-0.32305689453124997,0.10717664306640624,1.2369099365234375
-0.4079143359375,-0.01291761962890625,1.1056705712890624
-0.21193984375,0.046149150390625,0.8852179296875
-0.28561263671875,0.0054641552734375,0.7075286767578125
