ax,ay,az
-0.39308251953125,-0.07051384765625,1.1469593603515624
-0.2814791796875,-0.171491064453125,0.64240052734375
-0.25643529296875,-0.1906081103515625,0.45561791015625
-0.07991236328125,-0.18840229736328126,0.2543350634765625
-0.09450103515625,-0.24477307373046875,0.41236298828125
-0.16647181640625,-0.2866835205078125,0.7979707861328125
-0.299471875,-0.10654212646484375,1.21454517578125
-0.48645001953125,-0.11561046875,1.6026106396484374
-0.4866931640625,-0.03399538818359375,1.369378134765625
-0.27540056640625,0.110852998046875,1.3411149755859375
-0.24476435546875,0.0368357177734375,1.1110774365234375
-0.3748466796875,0.07972652587890625,0.9936010009765625
-0.41034578125,-0.0494360791015625,0.9614055761718749
-0.30506419921875,0.01649322021484375,1.026287958984375
-0.2756437109375,-0.01438816162109375,0.7252238720703125
-0.23795630859375,-0.19673536865234376,0.625196865234375
-0.3057936328125,-0.2082546142578125,0.5718655126953125
-0.27613,-0.17418705810546875,0.47577077148437497
-0.206104375,-0.1670794384765625,0.450211044921875
-0.2367405859375,-0.061690595703125004,0.432515849609375
-0.31187224609374997,-0.02517213623046875,0.3526417041015625
-0.29485212890625,-0.05213207275390625,0.495432099609375
-0.28172232421875,-0.13203152099609375,0.6539515576171875
-0.08331638671875,-0.24281235107421875,0.85474287109375
0.1299213671875,-0.20776443359375,1.383141064453125
0.1970292578125,0.13315621826171875,2.129718558349609
-0.671969296875,0.2074185888671875,2.129718558349609
-0.6724555859375,0.1544790771484375,1.879589599609375
-0.5635268359375,0.14050892822265626,1.4698966748046876
-0.55064017578125,-0.01879978759765625,1.41410765625
-0.13972591796875,0.3542276977539062,1.4084550244140626
-0.37995271484375,0.05668803466796875,0.9316678173828125
-0.152612578125,-0.081297822265625,0.6804943505859375
-0.366579765625,-0.17859868408203125,0.5423735205078125
-0.36974064453125,-0.16095218017578125,0.3673877001953125
-0.34348103515625,-0.21879349853515626,0.1776558837890625
-0.366579765625,-0.2033528076171875,0.9886856689453125
-0.26518849609375,-0.0945327001953125,1.03366095703125
-0.36925435546875,-0.138158779296875,1.0570087841796876
-0.335457265625,-0.153844560546875,1.00515203125
-0.26640421875,-0.17957904541015626,0.8554801708984375
-0.2878009375,-0.17222633544921875,0.78592822265625
-0.14799283203125,-0.234234189453125,0.90586232421875
-0.27588685546875,-0.12958061767578125,1.16145958984375
-0.38724705078125,-0.03889719482421875,1.315309482421875
-0.459947265625,-0.0018885546875000003,1.109848603515625
-0.2824517578125,0.05276658935546875,0.941744248046875
-0.16720125,-0.0964934228515625,0.9473968798828125
-0.27929087890625,-0.00409436767578125,1.0162115283203126
-0.3339983984375,-0.04526954345703125,1.0034316650390624
-0.2698082421875,-0.146001669921875,0.868997333984375
-0.15431458984375,-0.048945898437499996,0.816894814453125
-0.323786328125,-0.06242586669921875,0.792318154296875
-0.25011353515625,-0.11144393310546875,0.8348357763671875
-0.21704587890625,0.0515411376953125,0.9827872705078124
-0.26518849609375,0.05325677001953125,1.1368829296875
-0.31965287109375,-0.03301502685546875,1.1523662255859375
-0.3291355078125,0.08953013916015624,1.1169758349609376
-0.34226531250000003,0.0201695751953125,0.9552614111328125
-0.2309051171875,-0.01291761962890625,0.848352939453125
-0.1842213671875,-0.02370159423828125,0.89603166015625
-0.29509527343749997,-0.0332601171875,0.977134638671875
-0.23455228515625,0.015022678222656249,0.9763973388671875
-0.251815546875,0.062080021972656246,0.9626344091796875
-0.25838044921875,0.05227640869140625,0.95501564453125
-0.2488978125,0.0686974609375,0.9405154150390624
-0.25084296875,-0.0033590966796874996,0.9097945898437501
-0.17230728515625,0.0319339111328125,0.8967689599609375
-0.20634751953125,0.03953171142578125,0.9410069482421874
-0.3816547265625,0.03462990478515625,0.9960586669921875
-0.31041337890625,0.09198104248046875,1.086255009765625
-0.3057936328125,0.0584036669921875,1.0267794921875
-0.34299474609375,0.0976181201171875,1.0216183935546874
-0.1968648828125,0.04835496337890625,1.07298361328125
-0.33035123046875,-0.00507472900390625,1.010558896484375
-0.331566953125,-0.016593974609375,0.9945840673828125
-0.2873146484375,0.0495804150390625,0.983033037109375
-0.19467658203125,0.02752228515625,0.9488714794921875
-0.2591098828125,-0.0239466845703125,0.856217470703125
-0.20342978515625,-0.045024453125,0.769707626953125
-0.17814275390625,-0.04477936279296875,0.7090032763671875
-0.346155625,-0.01561361328125,0.8422087744140625
-0.36196001953125,-0.0641414990234375,0.9754142724609375
-0.26664736328125,0.05521749267578125,1.0778989453125
-0.33083751953125,-0.0494360791015625,1.0584833837890626
-0.3233000390625,-0.011201987304687501,0.995812900390625
-0.063135390625,0.06404074462890624,0.9552614111328125
-0.20245720703125,-0.01291761962890625,0.965337841796875
-0.30068759765624997,0.18609572998046875,1.0904330419921875
-0.36098744140625,0.11747043701171875,0.8852179296875
-0.06240595703125,0.1260485986328125,0.9257694189453125
-0.27248283203125,0.065756376953125,1.0594664501953126
-0.37533296875,-0.14967802490234375,1.0319405908203125
0.0287732421875,-0.0082609033203125,0.885709462890625
0.01588658203125,0.00227798095703125,0.8242678125
-0.2338228515625,-0.3494266455078125,0.8879213623046875
-0.49568951171875,-0.322466708984375,0.7987080859375
-0.33108066406250003,-0.09477779052734375,0.72497810546875
-0.4166675390625,-0.10115013916015625,0.52050029296875
-0.1326747265625,0.06698182861328125,0.5802215771484375
-0.060947089843749996,0.1235976953125,0.66402798828125
-0.045628984375,0.2221240087890625,0.8613785693359375
-0.16841697265625,0.3125623413085937,1.064627548828125
-0.41496552734375003,0.3005529150390625,1.247477900390625
-0.17668388671875,0.27138716552734377,1.1297556982421875
-0.3826273046875,0.1054610107421875,1.1400778955078126
-0.493014921875,-0.02860340087890625,0.9820499707031249
-0.31041337890625,0.0133070458984375,0.9587021435546875
-0.32086859375,-0.046004814453125,0.9953213671875
-0.44219771484375,-0.05360261474609375,0.9985163330078125
-0.32986494140625,0.13315621826171875,1.09854333984375
-0.23528171875,0.1397736572265625,0.965829375
-0.1239215234375,0.16746886474609374,0.9803296044921875
-0.338375,0.1074217333984375,0.9414984814453125
-0.144831953125,0.08217742919921875,1.077407412109375
-0.1355924609375,-0.0641414990234375,0.9950756005859375
-0.06678255859375,0.13609730224609376,1.0314490576171875
-0.33570041015625,0.030708459472656248,1.07691587890625
-0.3262177734375,-0.0798272802734375,1.229291171875
-0.4088869140625,0.08560869384765625,1.2801648583984375
-0.5207333984375,-0.0435539111328125,1.13000146484375
-0.3281629296875,-0.06438658935546875,1.0692971142578125
-0.26032560546875,-0.03889719482421875,0.9356000830078125
-0.191515703125,0.026541923828125,0.86064126953125
-0.1321884375,-0.1062970361328125,0.7035964111328125
-0.0811280859375,-0.08007237060546875,0.661570322265625
-0.38238416015625,0.03119864013671875,0.7488174658203125
-0.389921640625,0.091245771484375,0.788385888671875
-0.23552486328125,-0.00409436767578125,0.7522581982421875
-0.2435486328125,0.1201664306640625,0.83213234375
-0.17911533203125,0.0152677685546875,0.7318595703125
-0.1317021484375,-0.12418863037109375,0.7620888623046875
0.0623271875,-0.16438344482421874,0.9714820068359376
0.1192230078125,0.0858537841796875,1.3806833984375
-0.060947089843749996,0.05472731201171875,1.832402412109375
-0.8154245703125,0.20521277587890624,1.8965474951171875
-0.561095390625,0.27775951416015626,1.6650353564453124
-0.56984859375,-0.0533575244140625,1.153103525390625
-0.1949197265625,-0.23202837646484376,0.965829375
0.0389853125,0.010611052246093749,0.9852449365234375
-0.26056875,0.155949619140625,0.848352939453125
-0.3301080859375,0.19050735595703125,0.663044921875
-0.3456693359375,0.1211467919921875,0.433498916015625
-0.2668905078125,0.15668489013671874,0.32388701171875
-0.02398912109375,0.0789912548828125,0.36198083496093747
0.073998125,-0.01830960693359375,0.838522275390625
0.1201955859375,0.14001874755859375,1.3649543359375
-0.46286499999999997,0.2804555078125,1.746875634765625
-0.76023076171875,0.3189346899414062,1.7879186572265624
-0.7658230859375,0.27187734619140624,1.374293466796875
-0.268349375,0.0211499365234375,1.3126060498046874
-0.1783858984375,0.22040837646484374,1.1548238916015625
-0.0855046875,0.23903524169921875,0.6925369140625
-0.19224513671875,0.1780077490234375,0.576043544921875
-0.26227076171875,0.13315621826171875,0.377464130859375
-0.13948277343749999,0.1603612451171875,0.369599599609375
0.03339298828125,0.038306259765625,0.7741314257812499
-0.16404037109375,0.07188363525390624,1.219952041015625
-0.206104375,0.18658591064453126,1.5497708203125
-0.45970412109375003,0.17482157470703125,1.5888477099609375
-0.54383212890625,0.246142861328125,1.109848603515625
-0.41836955078125,0.15227326416015624,0.89996392578125
-0.42906791015625,0.23903524169921875,0.9955671337890625
-0.33229638671875,0.33560083251953127,0.9601767431640625
-0.26616107421875,0.3015332763671875,0.8554801708984375
-0.2367405859375,0.1603612451171875,0.917167587890625
-0.28415376953125,0.14148928955078124,0.96484630859375
-0.13340416015625,0.01453249755859375,1.033169423828125
-0.14945169921875,0.09149086181640625,1.0759328125
-0.33667298828125003,0.14148928955078124,1.054796884765625
-0.1637972265625,0.095167216796875,1.062661416015625
-0.1783858984375,0.1084020947265625,0.8682600341796876
-0.30311904296875003,0.04345315673828125,0.761843095703125
-0.27005138671875,0.0750698095703125,0.902421591796875
-0.28366748046875,0.14835181884765625,1.1336879638671875
-0.4278521875,-0.0562986083984375,1.07298361328125
-0.2644590625,0.14933218017578126,1.169815654296875
-0.28998923828125,-0.028358310546875,1.0014655322265624
-0.29193439453125003,0.012816865234374999,1.02776255859375
-0.33253953125,0.0093856005859375,1.0216183935546874
-0.1628246484375,-0.02419177490234375,0.93338818359375
-0.23698373046875,0.197124794921875,0.9242948193359375
-0.17522501953125,-0.00507472900390625,0.8948028271484375
-0.2133987109375,0.0505607763671875,0.8923451611328125
-0.10665826171875001,0.00791505859375,0.958456376953125
-0.341292734375,0.00766996826171875,0.9695158740234375
-0.207076953125,0.1172253466796875,0.886692529296875
-0.28512634765625,0.13854820556640626,0.767741494140625
-0.27515742187500003,0.20766367919921874,0.99827056640625
-0.347128203125,0.21305566650390625,1.14769666015625
-0.27685943359375,0.124578056640625,1.217002841796875
-0.3344846875,0.09002031982421875,1.1553154248046875
-0.40767119140625,0.02727719482421875,1.081339677734375
-0.22701480468750002,0.01159141357421875,1.1022298388671874
-0.40864376953125,-0.048455717773437504,0.94125271484375
-0.20537494140625,0.0378160791015625,0.7404614013671875
-0.10325423828125,-0.01291761962890625,0.6446124267578125
-0.100093359375,-0.0415931884765625,0.70335064453125
-0.131215859375,0.11967625,0.910286123046875
-0.195406015625,0.11379408203125,1.1130435693359375
-0.40329458984375,0.05619785400390625,1.174239453125
-0.4905834765625,0.089285048828125,1.1066536376953124
-0.22482650390625,0.0721287255859375,0.9749227392578125
-0.331566953125,0.00865032958984375,0.9090572900390625
-0.34396732421875,-0.05090662109375,0.907336923828125
-0.26154132812499997,-0.16487362548828124,0.8984893261718749
-0.28318119140625,-0.0827683642578125,0.8997181591796874
-0.26640421875,0.03561026611328125,0.8572005371093749
-0.170118984375,-0.071494208984375,0.7109694091796875
-0.13802390625,-0.00752563232421875,0.63846826171875
-0.07383375,0.0008074389648437498,0.714164375
-0.21947732421875,0.0280124658203125,0.8761245654296875
-0.30871136718750003,0.11550971435546875,0.9036504248046875
-0.312115390625,0.04712951171875,0.8340984765625
-0.27588685546875,0.1005592041015625,0.868014267578125
-0.2406308984375,0.10595119140625,0.97074470703125
-0.34056330078125,0.04394333740234375,1.0806023779296874
-0.4273658984375,0.101049384765625,0.9626344091796875
-0.1793584765625,0.095167216796875,0.8166490478515624
-0.25546271484375,0.08266760986328126,0.80067421875
-0.232363984375,0.0878145068359375,0.9179048876953125
-0.23260712890625002,0.11771552734375,1.1248403662109374
-0.312115390625,0.1113431787109375,1.2369099365234375
-0.3797095703125,0.10399046875,1.0309575244140625
-0.29728357421875,0.118695888671875,0.8154202148437499
-0.14215736328125,0.0809519775390625,0.8082929833984375
-0.1851939453125,0.1760470263671875,0.971236240234375
-0.39575710937499997,0.09639266845703125,1.1209081005859376
-0.37119951171875,0.026051743164062502,1.198324580078125
-0.27345541015625,0.11011772705078125,1.012525029296875
-0.370470078125,-0.05311243408203125,0.793301220703125
-0.317950859375,-0.07713128662109375,0.85474287109375
-0.22044990234375,-0.13546278564453124,0.8839890966796875
-0.2980130078125,-0.02076051025390625,1.07691587890625
-0.3500459375,0.0373258984375,1.154578125
-0.28123603515625,0.01257177490234375,1.0157199951171876
-0.34445361328125,0.0731090869140625,0.9599309765625
-0.37168580078125,0.12286242431640625,0.775606025390625
-0.1579617578125,0.0035034326171875,0.6382224951171875
-0.143859375,0.00570924560546875,0.707774443359375
-0.32597462890625,0.06109966064453125,0.8495817724609375
-0.33083751953125,0.024581201171875,0.8859552294921875
-0.312115390625,0.04124734375,0.8891501953125
-0.3787369921875,0.05080586669921875,0.8441749072265625
-0.26032560546875,-0.01830960693359375,0.7640549951171876
-0.27053767578125,0.01183650390625,0.867522734375
-0.240144609375,0.02433611083984375,1.0889584423828125
-0.28974609375,0.08315779052734375,1.2364184033203125
-0.3874901953125,0.21256548583984375,1.31285181640625
-0.34226531250000003,0.23364325439453126,1.2870463232421876
-0.30068759765624997,0.12874459228515625,1.097068740234375
-0.3189234375,0.1152646240234375,1.1169758349609376
-0.36341888671875,0.17506666503906249,1.16539185546875
-0.3096839453125,0.026541923828125,1.08084814453125
-0.34348103515625,0.0731090869140625,0.96288017578125
-0.23698373046875,-0.0945327001953125,0.7987080859375
-0.22920310546875,-0.0964934228515625,0.7908435546875
-0.35126166015625,-0.036201201171875,0.80067421875
-0.26154132812499997,-0.05850442138671875,0.849336005859375
-0.2445212109375,0.0544822216796875,1.0378389892578126
-0.25886673828125,0.00816014892578125,1.1022298388671874
-0.282938046875,0.124578056640625,1.209138310546875
-0.3962433984375,-0.00777072265625,1.0896957421875
-0.156502890625,-0.06193568603515625,1.0560257177734376
-0.30627992187499997,0.07972652587890625,1.1526119921875
-0.3456693359375,0.0182088525390625,1.1199250341796876
-0.19832375,-0.01732924560546875,1.0130165625
-0.25546271484375,0.01159141357421875,0.9095488232421876
-0.25886673828125,0.02041466552734375,0.872929599609375
-0.18495080078125,-0.09722869384765626,0.7861739892578125
-0.2027003515625,0.0691876416015625,0.8771076318359375
-0.32013916015625,0.0142874072265625,0.8579378369140624
-0.30117388671875,-0.0072805419921875,0.8746499658203125
-0.255705859375,0.19344843994140626,0.977626171875
-0.31308796875,0.08953013916015624,0.8687515673828125
-0.23698373046875,0.14246965087890626,0.947642646484375
-0.1025248046875,0.1740863037109375,1.1656376220703124
-0.40232201171875,0.07972652587890625,1.245511767578125
-0.29096181640625,0.06257020263671875,1.2723003271484374
-0.1988100390625,0.0608545703125,1.186527783203125
-0.3028758984375,0.124578056640625,1.1155012353515625
-0.17668388671875,0.080461796875,1.1159927685546875
-0.29533841796875,-0.060710234375,1.0742124462890625
-0.268349375,0.0740894482421875,1.09657720703125
-0.31041337890625,-0.06144550537109375,1.0597122167968749
-0.37800755859375,-0.06781785400390625,1.08871267578125
-0.44268400390625,0.04149243408203125,0.9793465380859375
-0.19710802734375,-0.01095689697265625,0.906353857421875
-0.3126016796875,0.0294830078125,0.9402696484374999
-0.31965287109375,-0.027868129882812502,0.998762099609375
-0.23212083984375,-0.04183827880859375,1.0167030615234376
-0.3466419140625,0.0005623486328125002,0.9970417333984375
-0.22361078125,-0.0881603515625,0.906353857421875
-0.3126016796875,-0.052867343750000004,0.8830060302734375
-0.170118984375,0.00619942626953125,0.9616513427734374
-0.25594900390624997,-0.0935523388671875,0.872929599609375
-0.25254498046875,7.216796875000007e-05,0.85277673828125
-0.20586123046875,0.0770305322265625,0.8662939013671875
-0.27005138671875,0.05962911865234375,0.9287186181640625
-0.3242726171875,0.016738310546875,1.0280083251953125
-0.352963671875,0.028502646484374998,1.0255506591796875
-0.24695265625,0.0476196923828125,0.9734481396484375
-0.3267040625,0.083402880859375,0.908319990234375
-0.27394169921875,0.05668803466796875,0.83508154296875
-0.2396583203125,0.10717664306640624,0.87931953125
-0.45338236328125,0.053992041015625,0.8628531689453125
-0.29387955078125,0.07678544189453125,0.7920723876953125
-0.14945169921875,0.079481435546875,0.741198701171875
-0.299471875,-0.03644629150390625,0.7554531640625
-0.28464005859375,0.0642858349609375,0.868014267578125
-0.22142248046875002,0.028257556152343752,0.9134810888671875
-0.40767119140625,0.03708080810546875,0.94223578125
-0.2561921484375,0.0936966748046875,1.029237158203125
-0.2834243359375,0.08364797119140625,1.087729609375
-0.28585578125,0.15080272216796875,1.14376439453125
-0.34785763671875003,0.10031411376953125,1.2194605078125
-0.32889236328125,0.010611052246093749,1.0801108447265624
-0.23747001953125,-0.013652890625,1.06806828125
-0.38676076171875,0.02580665283203125,1.0643817822265624
-0.325731484375,-0.04526954345703125,0.9196252539062499
-0.2333365625,-0.11291447509765624,0.82721701171875
-0.21607330078125,0.0221302978515625,0.8407341748046875
-0.37411724609375,-0.0533575244140625,0.8608870361328125
-0.19273142578125,-0.0915916162109375,0.8938197607421875
-0.255705859375,0.0064445166015625,0.975168505859375
-0.42371873046874997,-0.013652890625,0.989914501953125
-0.34056330078125,-0.08350363525390625,0.9960586669921875
-0.2824517578125,-0.0033590966796874996,0.9252778857421875
-0.30555048828125,-0.04036773681640625,0.7050710107421875
-0.1764407421875,-0.08840544189453126,0.686638515625
-0.16744439453124998,-0.069533486328125,0.668451787109375
-0.25862359375,0.02482629150390625,0.7399698681640625
-0.25011353515625,-0.01169216796875,0.8023945849609375
-0.3427516015625,0.08756941650390625,0.86359046875
-0.26713365234374997,0.10595119140625,0.9454307470703125
-0.27151025390625,0.073599267578125,0.9896687353515625
-0.26275705078125,0.18045865234375,1.0700344140625
-0.24670951171875,0.08021670654296875,1.097068740234375
-0.3767918359375,0.04712951171875,1.112797802734375
-0.35199109375,0.14786163818359374,1.0884669091796875
-0.31478998046875,0.01208159423828125,0.8972604931640625
-0.2610550390625,0.07261890625,0.7908435546875
-0.20391607421875,0.04296297607421875,0.810013349609375
-0.1365650390625,-0.02737794921875,0.9208540869140625
-0.21072412109375,0.06600146728515625,1.1572815576171875
-0.41496552734375003,0.11550971435546875,1.2649273291015626
-0.29193439453125003,-0.0259074072265625,1.0584833837890626
-0.27151025390625,-0.0567887890625,0.9247863525390625
-0.17960162109375,-0.110708662109375,0.79182662109375
0.0171023046875,-0.02027032958984375,0.7534870312499999
-0.2600824609375,-0.013407800292968751,0.80362341796875
-0.15480087890625,-0.08203309326171875,0.8736668994140625
-0.26129818359375,0.06845237060546874,1.0432458544921874
-0.39259623046875003,0.0682072802734375,1.2351895703125
-0.3656071875,0.15300853515625001,1.3116229833984374
-0.28196546875,0.2255552734375,1.0953483740234375
-0.21193984375,0.22678072509765626,0.875878798828125
-0.19175884765625,0.042227705078125,0.841471474609375
-0.1686601171875,-0.0651218603515625,0.9046334912109375
-0.07115916015625,-0.01634888427734375,0.86457353515625
-0.148722265625,-0.0229663232421875,0.8397511083984375
-0.1569891796875,-0.0415931884765625,0.9267524853515625
-0.341292734375,0.0922261328125,0.9877026025390625
-0.38676076171875,-0.08423890625,1.0889584423828125
-0.4370916796875,0.1211467919921875,1.2354353369140625
-0.32500205078125,0.24050578369140624,1.16342572265625
-0.1944334375,-0.03203466552734375,0.9940925341796875
-0.255705859375,0.12727405029296876,1.1607222900390626
-0.41156150390625,-0.0023787353515625003,1.1538408251953125
-0.296554140625,0.0211499365234375,1.1150097021484375
-0.19905318359375002,0.17482157470703125,1.1528577587890625
-0.35174794921875,-0.05556333740234375,0.9567360107421875
-0.12221951171875,0.10129447509765625,0.964354775390625
-0.3077387890625,0.128499501953125,1.0555341845703126
-0.4526529296875,-0.00507472900390625,1.2683680615234374
-0.31381740234375,0.11501953369140624,1.1828412841796876
-0.23528171875,-0.046740085449218746,1.0516019189453125
-0.31989601562500003,-0.014633251953124999,1.04545775390625
-0.361716875,0.00766996826171875,1.0314490576171875
-0.39162365234375,0.08462833251953125,0.9655836083984375
-0.49617580078125,0.10619628173828125,0.84786140625
-0.34883021484375,0.0838930615234375,0.76823302734375
-0.1706052734375,0.0574233056640625,0.68762158203125
-0.166228671875,0.010611052246093749,0.6650110546875
-0.25303126953125,-0.03301502685546875,0.613400068359375
-0.22190876953125,0.022620478515625,0.636993662109375
-0.25838044921875,0.10276501708984374,0.6669771875
-0.28415376953125,0.19786006591796876,0.729401904296875
-0.2513292578125,0.112813720703125,0.9179048876953125
-0.3485870703125,0.1623219677734375,1.2241300732421876
-0.28366748046875,0.10962754638671875,1.2742664599609375
-0.35272052734375,0.08413815185546875,1.2430541015625
-0.259596171875,0.14295983154296876,1.0638902490234374
-0.21412814453125,-0.00213364501953125,0.952557978515625
-0.29533841796875,0.0505607763671875,1.013508095703125
-0.27491427734375,0.13413657958984376,0.9749227392578125
-0.2255559375,7.216796875000007e-05,0.7928096875
-0.3267040625,-0.04526954345703125,0.7266984716796875
-0.0976619140625,0.116735166015625,0.9665666748046875
-0.391866796875,-0.09820905517578125,1.045949287109375
-0.12635296875,0.03144373046875,1.1422897949218749
-0.195406015625,0.21746729248046875,1.290732822265625
-0.40232201171875,-0.10016977783203125,1.0722463134765625
-0.24622322265625,0.15962597412109375,0.8889044287109376
-0.2333365625,0.0069346972656249995,0.9115149560546875
-0.28561263671875,-0.08448399658203125,1.159001923828125
-0.41642439453125,-0.03889719482421875,1.212087509765625
-0.1637972265625,-0.02419177490234375,1.1636714892578124
-0.33253953125,-0.12958061767578125,1.012525029296875
-0.164283515625,0.065756376953125,0.987948369140625
-0.3656071875,-0.00654527099609375,0.83311541015625
-0.2309051171875,0.16354741943359374,0.8756330322265625
0.00956482421875,0.16085142578125,0.998762099609375
-0.29339326171875,0.336336103515625,1.3111314501953124
-0.28609892578125,0.2397705126953125,1.5239653271484375
-0.41204779296875,0.01306195556640625,1.525685693359375
-0.405482890625,0.1878113623046875,1.3275978125
-0.29825615234375,0.0201695751953125,0.9626344091796875
-0.119544921875,0.0368357177734375,0.9208540869140625
-0.4244481640625,0.23143744140625,1.025304892578125
-0.5448047070312501,0.15521434814453125,1.202256845703125
-0.42809533203125,-0.13889405029296875,1.2128248095703125
-0.36925435546875,-0.07320984130859375,1.1705529541015625
-0.21947732421875,-0.0337502978515625,0.733334169921875
-0.08039865234375,-0.126394443359375,0.6126627685546875
-0.022530253906250002,-0.15114856689453124,0.58046734375
-0.07018658203125,-0.10164031982421876,0.7837163232421875
-0.41010263671875,-0.03938737548828125,1.136391396484375
-0.4964189453125,0.01575794921875,1.5416605224609374
-0.63768591796875,0.16624341308593749,1.6166193359375
-0.43733482421875003,0.22629054443359375,1.2791817919921875
-0.2775888671875,-0.0406128271484375,0.7994453857421875
-0.23212083984375,-0.071494208984375,0.4293208837890625
-0.14458880859375,-0.10654212646484375,0.3865574951171875
-0.15480087890625,-0.004829638671875,0.4062188232421875
-0.07383375,0.02090484619140625,0.49641516601562496
-0.02885201171875,-0.076396015625,0.902913125
-0.22044990234375,0.13462676025390624,1.4069804248046875
-0.40937320312500003,0.1956542529296875,1.577788212890625
-0.352963671875,0.14099910888671874,1.2388760693359375
-0.3184371484375,0.01404231689453125,0.94911724609375
-0.213885,0.10129447509765625,0.891607861328125
-0.29096181640625,0.05889384765625,0.9756600390625
-0.38821962890625,0.03904153076171875,0.981066904296875
-0.31308796875,-0.057278969726562504,0.9124980224609375
-0.23163455078125,-0.1415900439453125,0.7203085400390625
-0.18227621093750002,-0.107767578125,0.527873291015625
-0.16063634765625,0.00423870361328125,0.451194111328125
-0.010616171875,0.010856142578125,0.442346513671875
-0.0461152734375,0.1250682373046875,0.686146982421875
-0.27345541015625,0.1584005224609375,1.0265337255859375
-0.30895451171875,-0.020515419921875,1.2270792724609374
-0.37411724609375,-0.03252484619140625,1.44556578125
-0.3223274609375,0.0721287255859375,1.4143534228515624
-0.33570041015625,0.024581201171875,1.250427099609375
-0.43587595703125,0.083402880859375,1.1258234326171874
-0.26227076171875,0.03855135009765625,0.968287041015625
-0.23455228515625,-0.015368522949218751,0.8065726171875
-0.30214646484375,-0.0631611376953125,0.778555224609375
-0.26275705078125,-0.1543347412109375,0.806081083984375
-0.111764296875,-0.130315888671875,0.9488714794921875
-0.2377131640625,0.07384435791015626,0.99237216796875
-0.29047552734375,0.11305881103515625,1.01203349609375
-0.06191966796875,-0.00581,1.0189149609375
-0.230418828125,0.15080272216796875,1.1174673681640626
-0.4341739453125,0.16697868408203126,1.1368829296875
-0.17376615234375,0.07678544189453125,1.0700344140625
-0.4390368359375,0.19835024658203124,1.1250861328125
-0.45678638671875,0.126538779296875,1.2258504394531249
-0.5469930078125,0.10031411376953125,1.0452119873046875
-0.39065107421875,-0.0543378857421875,0.708757509765625
-0.21947732421875,-0.01732924560546875,0.4529144775390625
-0.125380390625,-0.025662316894531252,0.323395478515625
0.0008116210937499993,-0.04919098876953125,0.29734421875
0.005674511718750001,0.0250713818359375,0.54212775390625
-0.2172890234375,0.038306259765625,0.749063232421875
-0.42323244140625,-0.0033590966796874996,1.172764853515625
-0.5674171484375,-0.06340622802734375,1.414599189453125
-0.333512109375,0.00865032958984375,1.2978600537109375
-0.25011353515625,0.0848734228515625,0.8984893261718749
-0.2717533984375,0.052031318359375,0.6780366845703125
-0.199296328125,0.1231075146484375,0.7397241015625
-0.31770771484375,0.11403917236328125,1.046932353515625
-0.3816547265625,0.09688284912109375,1.27352916015625
-0.38919220703125,0.12629368896484375,1.203239912109375
-0.255705859375,-0.00581,0.8628531689453125
-0.065080546875,0.05374695068359375,0.7763433251953125
-0.16136578125,0.15227326416015624,1.0044147314453125
-0.39065107421875,-0.068553125,1.08084814453125
-0.21218298828125,0.00619942626953125,1.280902158203125
-0.36633662109375,0.09982393310546875,1.214053642578125
-0.37581925781250003,0.1157548046875,1.0732293798828125
-0.23917203125,0.0280124658203125,0.891607861328125
-0.44146828125,-0.030073942871093752,0.8023945849609375
-0.20148462890625,0.0819323388671875,0.8078014501953125
-0.14604767578125,-0.19992154296875,0.8009199853515625
-0.29825615234375,0.022620478515625,1.022355693359375
-0.2075632421875,0.04002189208984375,0.911269189453125
-0.2338228515625,-0.18399067138671876,0.8309035107421875
-0.2279873828125,0.0848734228515625,0.984016103515625
-0.16914640625,-0.046249904785156254,1.070525947265625
-0.19467658203125,0.06453092529296875,1.2290454052734374
-0.32694720703125,-0.0464949951171875,1.355615205078125
-0.4322287890625,0.008895419921875,1.3381657763671875
-0.39356880859375,0.106931552734375,1.0324321240234375
-0.32500205078125,-0.04183827880859375,0.7869112890625
-0.2552195703125,0.08168724853515624,0.72497810546875
-0.22361078125,0.05374695068359375,0.7124440087890624
-0.13145900390625,-0.0768861962890625,0.8343442431640625
-0.168173828125,-0.06291604736328126,1.0938737744140625
-0.46286499999999997,-0.10727739746093751,1.2201978076171875
-0.42906791015625,-0.026397587890625,1.132459130859375
-0.117599765625,-0.03644629150390625,0.9115149560546875
-0.1200312109375,-0.20653898193359374,0.797233486328125
-0.3077387890625,-0.0028689160156250004,0.9405154150390624
-0.143859375,-0.10262068115234375,1.0427543212890624
-0.387976484375,-0.0827683642578125,1.0550426513671876
-0.439523125,0.044188427734375,1.0029401318359374
-0.12173322265625,-0.013407800292968751,0.9105318896484375
-0.22750109375,0.14050892822265626,0.9169218212890625
-0.3709563671875,0.04443351806640625,0.859166669921875
-0.068970859375,0.0221302978515625,0.9282270849609375
-0.20148462890625,0.1191860693359375,1.144255927734375
-0.2022140625,-0.095022880859375,1.30105501953125
-0.27734572265625,0.1142842626953125,1.3632339697265625
-0.40961634765625,0.1289896826171875,1.2487067333984374
-0.23066197265625,-0.0006631030273437505,1.0511103857421875
-0.374360390625,0.10031411376953125,1.0592206835937499
-0.33375525390625,0.00276816162109375,1.08871267578125
-0.187625390625,-0.0729647509765625,1.0771616455078126
-0.35466568359375,-0.0857094482421875,1.1002637060546876
-0.3913805078125,-0.1406096826171875,0.9473968798828125
-0.2610550390625,-0.20359789794921876,0.7670041943359375
-0.210967265625,-0.128355166015625,0.547534619140625
-0.19637859375,-0.15065838623046876,0.4224394189453125
-0.013777050781250001,-0.130315888671875,0.429566650390625
0.035338144531250004,-0.01928996826171875,0.7050710107421875
-0.16112263671875,0.089285048828125,1.1211538671875
-0.4166675390625,0.01649322021484375,1.399853193359375
-0.3476144921875,0.03904153076171875,1.523719560546875
-0.138996484375,0.0995788427734375,1.268122294921875
-0.2488978125,0.073599267578125,1.09657720703125
-0.3349709765625,0.08364797119140625,1.2216724072265626
-0.41593810546875,0.1079119140625,1.20078224609375
-0.32986494140625,-0.09624833251953124,0.9670582080078125
-0.18689595703125,-0.12663953369140624,0.7738856591796874
-0.1579617578125,-0.03522083984375,0.72301197265625
-0.1219763671875,-0.07566074462890625,0.7724110595703125
-0.24233291015625,-0.0494360791015625,0.985982236328125
-0.17692703125,-0.010711806640625,1.0299744580078125
-0.1871391015625,0.008895419921875,0.9926179345703126
-0.41107521484375,0.04688442138671875,0.8431918408203125
-0.16793068359375,0.1936935302734375,0.74267330078125
-0.03906408203125,0.118695888671875,0.9292101513671875
-0.3164919921875,0.1917328076171875,1.28335982421875
-0.4419545703125,0.193203349609375,1.36200513671875
-0.26859251953125,0.0740894482421875,1.125577666015625
-0.27029453125,0.226535634765625,0.837539208984375
-0.008671015625,0.08266760986328126,0.8082929833984375
-0.1949197265625,0.101049384765625,1.068559814453125
-0.3889490625,-0.0141430712890625,1.2233927734375
-0.29533841796875,0.0294830078125,1.2781987255859375
-0.27613,-0.0249270458984375,1.0643817822265624
-0.19029998046875,-0.020515419921875,0.928964384765625
-0.26956509765625,-0.00605509033203125,0.7534870312499999
-0.21412814453125,-0.09281706787109376,0.743164833984375
-0.27005138671875,-0.10850284912109374,0.7082659765625
-0.30214646484375,-0.02737794921875,0.702859111328125
-0.12562353515625,-0.08497417724609375,0.66796025390625
-0.022287109375,-0.07664110595703125,0.588331875
-0.18786853515625002,-0.06781785400390625,0.5767808447265625
-0.0218008203125,0.1172253466796875,0.803131884765625
-0.10908970703125,0.21452620849609375,0.94321884765625
-0.3349709765625,0.289278759765625,1.2548508984375
-0.38043900390625,0.3289833935546875,1.3765053662109374
-0.15917748046875,0.252025029296875,1.30498728515625
-0.27685943359375,0.1515379931640625,1.0739666796875
-0.1404553515625,0.18560554931640624,1.032186357421875
-0.24962724609375,0.0003172583007812497,1.027271025390625
-0.1929745703125,0.0054641552734375,1.047915419921875
-0.26567478515625,0.03659062744140625,0.985490703125
-0.331566953125,0.09345158447265625,0.924049052734375
-0.22823052734375,0.00521906494140625,0.773148359375
-0.197351171875,-0.0082609033203125,0.65911265625
-0.11541146484375,0.0652661962890625,0.85867513671875
-0.28853037109375,0.099088662109375,1.0171945947265626
-0.22239505859375,0.11649007568359375,0.9970417333984375
-0.17425244140625,0.026051743164062502,0.8525309716796875
-0.1093328515625,0.136342392578125,0.8082929833984375
-0.26421591796875,0.12776423095703124,0.9164302880859375
-0.18859796875,0.12384278564453124,1.0653648486328124
-0.12708240234375,0.204967685546875,0.959439443359375
-0.2785614453125,0.1074217333984375,1.07494974609375
-0.14993798828125,0.26697553955078124,1.1705529541015625
-0.11079171875,0.10325519775390625,1.1159927685546875
-0.40694175781249997,0.14345001220703124,1.1317218310546875
-0.111764296875,0.1456558251953125,1.1054248046875
-0.25886673828125,-0.030319033203124998,1.00613509765625
-0.25692158203125,0.12433296630859375,1.151137392578125
-0.21558701171875,0.004973974609375,1.1056705712890624
-0.3787369921875,0.08315779052734375,1.055779951171875
-0.24476435546875,0.07188363525390624,0.8761245654296875
-0.25643529296875,-0.0200252392578125,0.641908994140625
-0.18154677734375,-0.0141430712890625,0.6701721533203124
-0.1774133203125,0.0476196923828125,0.846386806640625
-0.09498732421875,0.11452935302734375,0.97467697265625
-0.31284482421875,0.22482000244140626,1.1368829296875
-0.3330258203125,0.22359455078125,1.24010490234375
-0.36779548828124997,0.2333981640625,1.0889584423828125
-0.0889087109375,0.17825283935546876,1.0584833837890626
-0.12562353515625,0.1691844970703125,1.1287726318359375
-0.2250696484375,0.09982393310546875,1.1848074169921876
-0.20975154296875,0.11207844970703125,1.0899415087890625
-0.3826273046875,-0.012427438964843749,0.9532952783203125
-0.2800203125,0.0221302978515625,0.9488714794921875
-0.24184662109375,-0.01193725830078125,0.9326508837890625
-0.32305689453124997,-0.053847705078125,0.9375662158203125
-0.2600824609375,-0.04036773681640625,1.01203349609375
-0.14799283203125,-0.02370159423828125,1.0009739990234374
-0.317950859375,-0.11193411376953125,0.943710380859375
-0.35199109375,0.033404453125,1.0953483740234375
-0.35126166015625,0.15276344482421875,0.84884447265625
-0.32937865234375,0.111833359375,0.71121517578125
-0.12635296875,-0.05874951171875,0.6224934326171875
-0.066053125,0.0486000537109375,0.6824604833984375
-0.17911533203125,0.11207844970703125,0.8235305126953125
-0.2659179296875,0.1113431787109375,1.0936280078125
-0.2843969140625,0.1079119140625,1.3194875146484375
-0.2488978125,0.25962282958984373,1.3563525048828124
-0.255705859375,0.255946474609375,1.3642170361328125
-0.28269490234375,0.1142842626953125,1.3017923193359375
-0.31235853515625,0.20080114990234374,1.27942755859375
-0.2873146484375,0.040266982421875,1.1612138232421876
-0.36147373046875,-0.0308092138671875,1.0466865869140625
-0.3816547265625,0.0025230712890624996,0.737266435546875
-0.16404037109375,-0.12418863037109375,0.502313564453125
0.0008116210937499993,-0.0710040283203125,0.5020677978515625
-0.07577890625,0.0584036669921875,0.8127167822265625
-0.2503566796875,0.061834931640625,1.217494375
-0.45581380859375,0.089285048828125,1.46227791015625
-0.48766574218750003,0.08413815185546875,1.3583186376953125
-0.2172890234375,0.05227640869140625,0.9980247998046875
-0.026420566406250002,0.15325362548828125,0.9326508837890625
-0.158448046875,0.0182088525390625,1.0398051220703124
-0.41593810546875,0.04835496337890625,1.2236385400390626
-0.3573402734375,0.03610044677734375,1.157035791015625
-0.31965287109375,-0.08154291259765625,0.86064126953125
-0.12902755859375,-0.0866898095703125,0.72202890625
-0.06021765625,-0.1131595654296875,0.6669771875
-0.20415921875,0.0652661962890625,0.80755568359375
-0.205131796875,-0.0175743359375,1.13393373046875
-0.2766162890625,-0.046249904785156254,1.323665546875
-0.339347578125,0.07629526123046874,1.1970957470703125
-0.17911533203125,0.0387964404296875,1.0776531787109376
-0.21023783203125002,-0.0009081933593750001,0.87440419921875
-0.12805498046875,0.0397768017578125,0.92355751953125
-0.240144609375,0.14492055419921876,1.0737209130859375
-0.43490337890624997,0.073599267578125,1.0609410498046874
-0.2406308984375,0.0731090869140625,0.894557060546875
-0.226528515625,0.108892275390625,0.7881401220703125
-0.10130908203125,0.0005623486328125002,0.8554801708984375
-0.10568568359375,0.0927163134765625,0.97467697265625
-0.3933256640625,0.03144373046875,1.0235845263671874
-0.210967265625,0.132420947265625,1.03759322265625
-0.17765646484375,0.15227326416015624,0.9955671337890625
-0.09523046875,0.0809519775390625,1.16145958984375
-0.27613,-0.0317895751953125,1.229782705078125
-0.302389609375,0.06649164794921875,1.2265877392578124
-0.2795340234375,-0.004829638671875,1.0108046630859375
-0.27783201171875,0.01208159423828125,0.865065068359375
-0.236254296875,0.06355056396484375,0.854251337890625
-0.25084296875,-0.05262225341796875,0.8702261669921875
-0.10301109375,-0.0425735498046875,1.196358447265625
-0.36001486328125,0.0608545703125,1.2344522705078125
-0.16987583984375,-0.03448556884765625,1.0334151904296875
-0.2722396875,0.018699033203125,0.8653108349609375
-0.18397822265625,0.089285048828125,0.812962548828125
-0.12270580078125,7.216796875000007e-05,0.8481071728515625
-0.2853694921875,0.044188427734375,0.9547698779296875
-0.31770771484375,0.03168882080078125,1.0447204541015624
-0.30895451171875,0.019434304199218752,0.908319990234375
-0.1754681640625,-0.0011532836914062497,0.780521357421875
-0.19662173828125,-0.040122646484374996,0.8633447021484375
-0.27783201171875,0.142224560546875,1.0334151904296875
-0.209022109375,0.103010107421875,1.1336879638671875
-0.16914640625,0.0765403515625,1.0857634765625
-0.30846822265625,0.15325362548828125,1.0280083251953125
-0.14167107421875,0.1005592041015625,1.0068723974609375
-0.3320532421875,0.046149150390625,0.9695158740234375
-0.23309341796875,0.10031411376953125,1.0029401318359374
-0.21510072265625,0.05227640869140625,0.9582106103515625
-0.31624884765625,-0.0700236669921875,0.9127437890625
-0.18106048828125,0.0446786083984375,0.849336005859375
-0.19953947265625,-0.0621807763671875,0.7011387451171875
-0.2007551953125,-0.02468195556640625,0.8360646093749999
-0.29047552734375,0.053992041015625,1.0053977978515625
-0.2202067578125,-0.01634888427734375,1.150645859375
-0.29169125,-0.052867343750000004,1.1626884228515626
-0.31041337890625,0.01453249755859375,1.0388220556640624
-0.240144609375,0.042227705078125,0.94321884765625
-0.20975154296875,0.10227483642578125,0.820335546875
-0.16987583984375,0.11747043701171875,0.8697346337890625
-0.191515703125,0.05080586669921875,1.0663479150390625
-0.26032560546875,-0.028358310546875,1.2305200048828124
-0.29047552734375,0.05178622802734375,1.2108586767578124
-0.25157240234375,-0.00948635498046875,1.080356611328125
-0.25205869140625,0.01159141357421875,1.0009739990234374
-0.3767918359375,-0.0016434643554687498,0.972219306640625
-0.2800203125,0.01110123291015625,0.953541044921875
-0.234309140625,-0.07222947998046875,0.827708544921875
-0.23844259765625,-0.00262382568359375,0.7340714697265625
-0.105928828125,-0.04723026611328125,0.7011387451171875
-0.232363984375,0.0142874072265625,0.745130966796875
-0.18932740234375,0.034384814453125,0.83901380859375
-0.18495080078125,-0.0006631030273437505,0.996795966796875
-0.341292734375,0.05913893798828125,1.1636714892578124
-0.3028758984375,0.07850107421875,1.1882481494140624
-0.172064140625,0.11379408203125,1.0653648486328124
-0.2892598046875,0.0397768017578125,0.92945591796875
-0.1813036328125,0.0044837939453125,1.0525849853515625
-0.26664736328125,0.06502110595703126,1.167849521484375
-0.23114826171875,0.06600146728515625,1.1907058154296875
-0.24379177734375002,0.05129604736328125,1.0683140478515625
-0.21461443359375,-0.02149578125,0.973202373046875
-0.24476435546875,-0.0808076416015625,0.89603166015625
-0.1628246484375,-0.04968116943359375,0.811979482421875
-0.22579908203125,-0.03350520751953125,0.8741584326171875
-0.1793584765625,-0.07419020263671874,0.9056165576171875
-0.174981875,-0.0200252392578125,0.9346170166015625
-0.3213548828125,0.010611052246093749,1.038084755859375
-0.31381740234375,0.02874773681640625,1.036118623046875
-0.23139140625,0.09786321044921875,0.9931094677734374
-0.179844765625,0.16085142578125,0.9090572900390625
-0.21510072265625,0.0765403515625,0.9754142724609375
-0.2450075,0.1280093212890625,1.06118681640625
-0.29363640625,0.14982236083984374,1.103950205078125
-0.21315556640625,0.10962754638671875,1.1307387646484375
-0.253760703125,0.05521749267578125,1.1061621044921874
-0.2309051171875,-0.013407800292968751,1.1189419677734376
-0.23528171875,0.011346323242187501,1.128526865234375
-0.28172232421875,0.05668803466796875,1.181612451171875
-0.2250696484375,-0.07468038330078125,1.1916888818359375
-0.32500205078125,-0.02762303955078125,1.047915419921875
-0.2503566796875,0.02531647216796875,0.8682600341796876
-0.16793068359375,-0.0210056005859375,0.8038691845703125
-0.25692158203125,0.02776737548828125,0.8834975634765625
-0.2980130078125,-0.00654527099609375,1.01006736328125
-0.27880458984375,0.0603643896484375,1.064627548828125
-0.25838044921875,0.05497240234375,0.986965302734375
-0.3033621875,-0.03742665283203125,0.9267524853515625
-0.212912421875,-0.00777072265625,0.891607861328125
-0.16258150390625,-0.05115171142578125,0.8530225048828125
-0.214857578125,-0.025662316894531252,0.92748978515625
-0.245980078125,0.05815857666015625,1.000728232421875
-0.25935302734375,0.02531647216796875,1.0039231982421875
-0.30117388671875,0.0025230712890624996,0.98843990234375
-0.222638203125,-0.0151234326171875,0.9316678173828125
-0.27248283203125,0.02580665283203125,0.8923451611328125
-0.25351755859375,-0.0072805419921875,0.903404658203125
-0.2970404296875,0.01747358154296875,0.9424815478515625
-0.284883203125,0.07286399658203124,0.9827872705078124
-0.22968939453125,0.0809519775390625,0.93535431640625
-0.22142248046875002,-0.004829638671875,0.8903790283203125
-0.191515703125,0.1152646240234375,0.93928658203125
-0.2027003515625,0.09002031982421875,0.9464138134765625
-0.2007551953125,0.08903995849609375,0.978117705078125
-0.26518849609375,0.116735166015625,1.0110504296875
-0.220693046875,0.124578056640625,1.09657720703125
-0.249870390625,0.05668803466796875,1.1351625634765625
-0.259596171875,0.075559990234375,1.18308705078125
-0.2474389453125,0.05325677001953125,1.1017383056640626
-0.263486484375,-0.04085791748046875,1.05332228515625
-0.26032560546875,-0.046249904785156254,1.0358728564453126
-0.2192341796875,-0.08791526123046875,0.9621428759765625
-0.24281919921875,-0.11977700439453125,0.927981318359375
-0.21461443359375,-0.12418863037109375,0.8368019091796874
-0.2099946875,-0.03595611083984375,0.82328474609375
-0.1997826171875,-0.10948321044921874,0.8191067138671875
-0.1477496875,-0.0513968017578125,0.90782845703125
-0.2017277734375,-0.02909358154296875,0.9685328076171875
-0.20026890625,-0.03448556884765625,0.9616513427734374
-0.21510072265625,-0.0425735498046875,0.9100403564453124
-0.2333365625,-0.02737794921875,0.9149556884765625
-0.224583359375,-0.05213207275390625,0.95698177734375
-0.26178447265625,-0.014633251953124999,1.0049062646484375
-0.31819400390625,0.05080586669921875,1.016457294921875
-0.271267109375,0.06355056396484375,1.0181776611328126
-0.259596171875,0.14541073486328124,0.9562444775390625
-0.2027003515625,0.1456558251953125,0.87637033203125
-0.13340416015625,0.10619628173828125,0.9245405859375
-0.26081189453125,0.0544822216796875,1.0599579833984376
-0.20026890625,-0.0033590966796874996,1.168832587890625
-0.197351171875,0.02482629150390625,1.1626884228515626
-0.33959072265625,0.0025230712890624996,1.12803533203125
-0.2795340234375,0.00423870361328125,1.048406953125
-0.29728357421875,0.0368357177734375,0.9704989404296875
-0.28196546875,0.0427178857421875,0.9400238818359374
-0.27734572265625,0.07261890625,0.9390408154296875
-0.3028758984375,0.0417375244140625,0.9604225097656249
-0.26713365234374997,-0.01683906494140625,0.94518498046875
-0.20804953125,-0.05752406005859375,0.9016842919921875
-0.16185207031249998,-0.08105273193359375,0.905370791015625
-0.1710915625,-0.112669384765625,0.911269189453125
-0.31138595703125,-0.0881603515625,0.9857364697265625
-0.25059982421875,-0.1161006494140625,1.0348897900390626
-0.32354318359375,-0.12418863037109375,1.06806828125
-0.3777644140625,-0.17124597412109374,0.9759058056640625
-0.27248283203125,-0.170510703125,0.8161575146484374
-0.16793068359375,-0.10580685546875,0.7601227294921875
-0.2133987109375,-0.06144550537109375,0.6908165478515624
-0.1404553515625,-0.091101435546875,0.7239950390625
-0.325731484375,-0.02321141357421875,0.8549886376953125
-0.2532744140625,0.033404453125,0.94125271484375
-0.2153438671875,0.03757098876953125,0.9459222802734375
-0.1968648828125,0.05619785400390625,0.949608779296875
-0.2095083984375,-0.0411030078125,0.8525309716796875
-0.1827625,-0.03301502685546875,0.89406552734375
-0.27613,0.019434304199218752,0.97074470703125
-0.36463460937500003,0.0010525292968750002,0.9953213671875
-0.2722396875,0.1133039013671875,1.0162115283203126
-0.30627992187499997,0.10202974609375,0.9881941357421875
-0.25303126953125,0.0417375244140625,0.923065986328125
-0.257651015625,0.030708459472656248,0.7984623193359375
-0.11978806640625,0.01159141357421875,0.797233486328125
-0.220693046875,-0.025662316894531252,0.8628531689453125
-0.23114826171875,-0.03987755615234375,1.0597122167968749
-0.2591098828125,-0.10850284912109374,1.2639442626953126
-0.36147373046875,-0.03301502685546875,1.386090263671875
-0.259596171875,-0.07370002197265625,1.335953876953125
-0.36439146484375,-0.05654369873046875,1.226833505859375
-0.329621796875,-0.0827683642578125,1.1174673681640626
-0.32086859375,-0.068553125,0.9808211376953125
-0.33570041015625,-0.14085477294921875,0.84884447265625
-0.164283515625,0.093206494140625,0.8559717041015625
-0.15139685546875,-0.02149578125,0.843929140625
-0.18859796875,-0.04281864013671875,0.9277355517578125
-0.23455228515625,-0.07860182861328124,1.0661021484375
-0.3408064453125,-0.1043363134765625,1.1447474609375
-0.2435486328125,-0.12663953369140624,1.14179826171875
-0.29387955078125,-0.140119501953125,1.0727378466796875
-0.304334765625,-0.06193568603515625,0.96288017578125
-0.2659179296875,-0.189137568359375,0.9051250244140625
-0.28172232421875,-0.029338671875,0.9815584374999999
-0.3816547265625,-0.04575972412109375,0.8267254785156251
-0.15820490234375,0.0182088525390625,0.83311541015625
-0.31624884765625,0.00791505859375,0.9604225097656249
-0.127325546875,-0.0254172265625,1.1140266357421875
-0.07504947265625,0.07776580322265625,1.150154326171875
-0.33253953125,-0.09796396484375,1.0191607275390624
-0.06021765625,-0.0013983740234375002,1.0385762890625
-0.18495080078125,0.08021670654296875,1.12312
-0.3369161328125,0.09835339111328124,1.229291171875
-0.168173828125,0.09002031982421875,1.264190029296875
-0.3233000390625,0.13119549560546875,1.30105501953125
-0.36730919921875,0.03806116943359375,1.093136474609375
-0.18884111328125,0.1495772705078125,0.846386806640625
-0.06775513671875,-0.023456503906250002,0.58538267578125
0.035338144531250004,-0.13693332763671875,0.66599412109375
-0.0305540234375,-0.31928053466796874,0.9700074072265625
-0.2639727734375,-0.4553056689453125,1.079865078125
-0.27053767578125,-0.37246513671875,0.7365291357421875
-0.33764556640625,-0.3690338720703125,0.7581565966796875
-0.31819400390625,-0.38790582763671877,0.697943779296875
-0.17425244140625,-0.3511422778320312,0.6421547607421875
-0.07796720703125,-0.04306373046875,0.9739396728515625
-0.201241484375,-0.01144707763671875,1.1405694287109376
-0.0305540234375,-0.04330882080078125,1.173747919921875
-0.129270703125,0.081442158203125,1.2442829345703126
-0.49471693359375,0.14197947021484375,1.316292548828125
-0.323786328125,0.1123235400390625,1.1759598193359375
-0.51514107421875,0.1182057080078125,1.0742124462890625
-0.52486685546875,0.171635400390625,1.122628466796875
-0.31041337890625,0.25888755859375,1.21651130859375
-0.46213556640625,0.17237067138671874,1.2310115380859374
-0.22725794921875,0.0093856005859375,1.08084814453125
-0.2328502734375,-0.08252327392578125,0.9419900146484375
-0.201241484375,-0.05311243408203125,0.8299204443359375
-0.13729447265625,-0.051886982421875,0.7699533935546875
-0.09255587890625,-0.13546278564453124,0.7203085400390625
-0.2416034765625,-0.020515419921875,0.8368019091796874
-0.259596171875,-0.0016434643554687498,0.8859552294921875
-0.17960162109375,0.09149086181640625,1.16244265625
-0.36366203125,-0.03399538818359375,1.342835341796875
-0.35320681640625,0.028257556152343752,1.3806833984375
-0.40523974609375,-0.07713128662109375,1.26566462890625
-0.2931501171875,0.09443194580078125,1.07298361328125
-0.2999581640625,-0.0621807763671875,0.7871570556640625
-0.24670951171875,-0.0175743359375,0.7851909228515626
-0.37849384765625,-0.092081796875,0.7200627734375
-0.2561921484375,0.0030132519531249997,0.6374851953125
-0.20148462890625,0.00325834228515625,0.51066962890625
0.07667271484375,-0.1170810107421875,0.6500192919921874
0.1386745703125,-0.10605194580078126,0.853268271484375
0.172228515625,-0.30163403076171874,1.4841511376953125
-0.284883203125,-0.2317832861328125,1.5347790576171876
-0.39600025390625,-0.21830331787109375,1.43671818359375
-0.18227621093750002,0.04443351806640625,1.5647625830078125
-0.28658521484375,-0.2999183984375,1.6045767724609374
-0.2955815625,-0.02027032958984375,1.7682573291015624
-0.56595828125,0.1427147412109375,1.250427099609375
-0.413263515625,0.0838930615234375,0.7004014453125
-0.28172232421875,0.03462990478515625,0.23885176757812498
-0.1064151171875,0.053992041015625,0.06189981445312499
0.061354609375,-0.095022880859375,0.3582943359375
0.08348076171875,-0.10409122314453124,0.659604189453125
0.1338116796875,0.0368357177734375,0.9242948193359375
-0.4040240234375,0.14001874755859375,1.45244724609375
-0.57009173828125,0.27383806884765627,1.647585927734375
-0.230418828125,-0.106787216796875,1.4551506787109374
0.067190078125,0.1564397998046875,1.41902298828125
-0.2445212109375,0.31378779296875,1.1919346484375
-0.284883203125,0.02433611083984375,0.9095488232421876
-0.37168580078125,0.0358553564453125,0.9677955078125
-0.3505322265625,0.16869431640625,1.2039772119140626
-0.34153587890625,0.09394176513671874,1.16145958984375
-0.21947732421875,-0.147962392578125,1.1204165673828126
-0.032499179687500004,0.0682072802734375,0.9559987109375
-0.057543066406249996,-0.00213364501953125,0.8574463037109374
-0.189570546875,0.00399361328125,0.7436563671875001
-0.24768208984375,0.02090484619140625,0.6396970947265626
-0.24038775390625,-0.0710040283203125,0.5802215771484375
-0.1647698046875,-0.04281864013671875,0.7753602587890625
-0.2211793359375,0.07433453857421875,0.9065996240234375
-0.2873146484375,-0.0327699365234375,0.941744248046875
-0.28585578125,0.06698182861328125,1.024813359375
-0.34542619140624997,0.02752228515625,1.0174403613281249
-0.3281629296875,0.11379408203125,1.128526865234375
-0.31478998046875,0.08634396484375,1.0250591259765625
-0.11322316406249999,0.13315621826171875,1.00416896484375
-0.22434021484375,0.15692998046875,0.9609140429687499
-0.140941640625,-0.0229663232421875,0.9429730810546875
-0.05413904296875,-0.023456503906250002,0.862115869140625
-0.1365650390625,-0.03522083984375,0.801165751953125
-0.1803310546875,0.04247279541015625,0.8903790283203125
-0.127325546875,0.016738310546875,0.9186421875
-0.24865466796875,0.03536517578125,0.8154202148437499
-0.31333111328125,-0.00801581298828125,0.7515208984375
-0.29290697265625,0.103010107421875,0.7790467578125
-0.3096839453125,0.004973974609375,0.7026133447265624
-0.18251935546875,0.0417375244140625,0.7891231884765625
-0.19175884765625,-0.01953505859375,0.83311541015625
-0.15382830078125,-0.00997653564453125,0.9016842919921875
-0.146777109375,-0.09575815185546875,0.9434646142578125
-0.22482650390625,0.03315936279296875,1.0560257177734376
-0.16306779296875,0.00791505859375,1.0329236572265625
-0.20197091796875,0.09810830078125,0.9459222802734375
-0.20780638671875,0.03757098876953125,0.80067421875
-0.15139685546875,0.03144373046875,0.7571735302734375
-0.22482650390625,0.09345158447265625,0.769707626953125
-0.2955815625,0.09002031982421875,0.80558955078125
-0.265431640625,0.17286085205078125,0.91569298828125
-0.23260712890625002,0.09810830078125,0.9002096923828125
-0.2775888671875,0.09394176513671874,1.056763017578125
-0.23357970703125,0.02286556884765625,1.211104443359375
-0.27199654296875,0.0299731884765625,1.2718087939453124
-0.207076953125,0.04296297607421875,1.1926719482421875
-0.339347578125,0.00816014892578125,1.0624156494140624
-0.376305546875,0.0280124658203125,0.9685328076171875
-0.29144810546875,-0.010711806640625,0.805098017578125
-0.13145900390625,-0.00507472900390625,0.6416632275390625
-0.12440781249999999,-0.1043363134765625,0.5733401123046875
-0.1939471484375,-0.01095689697265625,0.7699533935546875
-0.23309341796875,0.0182088525390625,0.9729566064453125
-0.43247193359375,0.08707923583984375,1.1366371630859375
-0.30020130859375,0.083402880859375,1.158510390625
-0.26056875,0.1348718505859375,1.1936550146484375
-0.48839517578125,0.0201695751953125,1.120662333984375
-0.3544225390625,0.07139345458984375,1.0855177099609374
-0.29096181640625,-0.01389798095703125,1.022355693359375
-0.23844259765625,-0.11585555908203125,0.9262609521484375
-0.11832919921875,-0.126394443359375,0.7384952685546875
-0.13413359375,-0.120512275390625,0.7473428662109375
-0.146777109375,-0.0876701708984375,0.8245135791015625
-0.333512109375,-0.0396324658203125,0.8918536279296875
-0.23017568359375,0.0765403515625,0.9501003125
-0.21218298828125,0.0451687890625,0.9965502001953125
-0.29971501953125,0.11109808837890625,1.1445016943359374
-0.30871136718750003,0.08756941650390625,1.261240830078125
-0.30360533203125,0.0069346972656249995,1.271071494140625
-0.38505875,0.0799716162109375,1.065610615234375
-0.236254296875,0.0201695751953125,0.892590927734375
-0.181789921875,0.04296297607421875,0.8530225048828125
-0.131215859375,0.07629526123046874,0.9402696484374999
-0.1958923046875,-0.0009081933593750001,1.010558896484375
-0.14167107421875,0.122617333984375,1.1597392236328126
-0.20732009765625,0.0633054736328125,1.16342572265625
-0.2406308984375,0.09835339111328124,1.1833328173828126
-0.3242726171875,0.06158984130859375,1.0560257177734376
-0.1735230078125,0.05227640869140625,0.920116787109375
-0.113709453125,0.12163697265625,0.95108337890625
-0.35661083984374997,0.0608545703125,1.173747919921875
-0.35563826171875,-0.0210056005859375,1.26566462890625
-0.2853694921875,7.216796875000007e-05,1.221426640625
-0.237226875,0.08707923583984375,1.1408151953125
-0.16841697265625,-0.023456503906250002,1.0289913916015625
-0.14069849609375001,0.0799716162109375,0.997779033203125
-0.21996361328125,0.02335574951171875,1.0589749169921876
-0.18008791015625,-0.02860340087890625,1.1838243505859376
-0.179844765625,-0.010711806640625,1.09461107421875
-0.2172890234375,-0.09379742919921875,1.0275167919921875
-0.09985021484375001,-0.0837487255859375,0.9813126708984374
-0.2357680078125,-0.02468195556640625,1.056271484375
-0.3855450390625,-0.03448556884765625,1.26173236328125
-0.38505875,-0.0955130615234375,1.1626884228515626
-0.40037685546875,-0.04821062744140625,1.0395593554687501
-0.2931501171875,-0.006790361328125,0.9090572900390625
-0.14750654296875,-0.0288484912109375,0.859166669921875
-0.1083602734375,0.020659755859375,0.847369873046875
-0.1346198828125,0.05913893798828125,0.930930517578125
-0.2065906640625,0.073599267578125,1.0130165625
-0.2795340234375,0.0985984814453125,1.0943653076171875
-0.1978374609375,0.06257020263671875,1.0717547802734375
-0.32548833984375003,0.052031318359375,0.9874568359375
-0.19662173828125,0.04712951171875,1.0582376171875
-0.2289599609375,-0.00458454833984375,0.976151572265625
-0.422989296875,0.03512008544921875,1.019406494140625
-0.28415376953125,-0.0317895751953125,1.0201437939453124
-0.338375,0.06649164794921875,0.930438984375
-0.2912049609375,0.06355056396484375,0.965829375
-0.18592337890625,0.03512008544921875,0.9582106103515625
-0.17133470703125,0.0584036669921875,1.009575830078125
-0.29242068359375,0.00987578125,1.0395593554687501
-0.203186640625,-0.08350363525390625,0.81148794921875
-0.0305540234375,-0.01095689697265625,0.7733941259765625
-0.2289599609375,0.022620478515625,0.839996875
-0.2255559375,0.0103659619140625,1.00515203125
-0.3096839453125,0.10374537841796876,1.05332228515625
-0.36536404296875,0.00227798095703125,1.0973145068359376
-0.377278125,0.073599267578125,1.0889584423828125
-0.3111428125,0.0003172583007812497,0.8564632373046875
-0.13729447265625,-0.08619962890625,0.7910893212890625
-0.273212265625,0.05105095703125,0.725469638671875
-0.2367405859375,-0.0523771630859375,0.7031048779296875
-0.16501294921875,-0.1278649853515625,0.8422087744140625
-0.2211793359375,-0.03105430419921875,1.014491162109375
-0.2600824609375,-0.0288484912109375,1.06806828125
-0.1842213671875,-0.022476142578125,1.0936280078125
-0.25546271484375,0.0809519775390625,1.0786362451171876
-0.24768208984375,0.093206494140625,1.0294829248046875
-0.1793584765625,-0.0876701708984375,1.00810123046875
-0.33570041015625,0.07065818359375,1.0663479150390625
-0.29582470703125,0.11011772705078125,1.0130165625
-0.15334201171875,-0.042328459472656246,0.883251796875
-0.25740787109375,0.0012976196289062499,1.064627548828125
-0.38189787109375,-0.0847290869140625,1.1823497509765626
-0.29290697265625,-0.08423890625,1.066593681640625
-0.30992708984375,-0.12933552734375,0.9783634716796875
-0.26421591796875,-0.1268846240234375,0.8830060302734375
-0.06629626953125001,-0.12663953369140624,0.695977646484375
-0.185680234375,-0.1788437744140625,0.666485654296875
-0.0538958984375,0.04002189208984375,0.8132083154296875
-0.17327986328125,0.13217585693359374,1.0476696533203125
-0.20391607421875,0.0544822216796875,1.361513603515625
-0.22725794921875,0.13217585693359374,1.4934902685546876
-0.4575158203125,0.18854663330078125,1.374785
-0.41739697265625,0.0123266845703125,1.131476064453125
-0.32500205078125,0.17090012939453125,1.124594599609375
-0.38457246093749997,-0.1513936572265625,0.9090572900390625
-0.24087404296875,-0.0778665576171875,0.8638362353515625
-0.197351171875,-0.01830960693359375,0.7640549951171876
-0.088422421875,-0.0876701708984375,0.7591396630859375
-0.0791829296875,-0.012427438964843749,0.8785822314453124
-0.3952708203125,0.0025230712890624996,0.9088115234375
-0.11298001953125,0.0289928271484375,1.0029401318359374
-0.158448046875,0.00227798095703125,0.92945591796875
-0.4225030078125,-0.012672529296875,1.021372626953125
-0.22968939453125,-0.0254172265625,1.30498728515625
-0.25546271484375,-0.010221625976562499,1.2671392285156249
-0.45143720703125,0.02776737548828125,1.037101689453125
-0.30506419921875,0.0005623486328125002,0.9473968798828125
-0.13826705078125,0.04124734375,0.8363103759765624
-0.13486302734375,0.03855135009765625,0.9587021435546875
-0.22434021484375,-0.02468195556640625,1.0184234277343749
-0.19953947265625,0.0564429443359375,1.0700344140625
-0.20197091796875,-0.01169216796875,0.9090572900390625
-0.23066197265625,-0.06781785400390625,0.776589091796875
-0.2143712890625,-0.091101435546875,0.6571465234375
0.094422265625,-0.071494208984375,0.784453623046875
-0.18932740234375,-0.07909200927734375,1.065610615234375
-0.52511,-0.130315888671875,1.217494375
-0.28123603515625,-0.16340308349609375,1.10837400390625
-0.35320681640625,0.03462990478515625,0.9704989404296875
-0.203186640625,-0.03889719482421875,0.871455
-0.27807515625,0.1152646240234375,1.0174403613281249
-0.3320532421875,0.195164072265625,1.111814736328125
-0.25643529296875,0.1564397998046875,1.2752495263671875
-0.30530734375,0.15962597412109375,1.1656376220703124
-0.0490330078125,0.22580036376953125,0.963371708984375
-0.0538958984375,0.01845394287109375,0.755944697265625
0.043118769531250004,-0.03742665283203125,0.813945615234375
-0.164283515625,0.10987263671875,1.0648733154296874
-0.2800203125,-0.06046514404296875,1.312360283203125
-0.4273658984375,-0.0915916162109375,1.417548388671875
-0.51222333984375,-0.032279755859375,1.188493916015625
-0.33326896484375,-0.018554697265625,0.918150654296875
-0.401592578125,-0.07909200927734375,0.7475886328125
-0.31722142578125,0.023845930175781252,0.6335529296875
-0.1842213671875,0.04884514404296875,0.6554261572265625
-0.119544921875,-0.08595453857421875,0.786419755859375
-0.1414279296875,-0.1352176953125,0.8655566015625
-0.113709453125,-0.0425735498046875,0.9970417333984375
-0.14945169921875,-0.238155634765625,0.9955671337890625
-0.20683380859375,-0.10997339111328125,0.8490902392578125
-0.1861665234375,0.01159141357421875,0.8707177001953125
-0.04733099609375,-0.05874951171875,1.011541962890625
-0.28512634765625,0.022620478515625,1.0756870458984376
-0.3690112109375,0.03659062744140625,1.2548508984375
-0.4691867578125,0.0907555908203125,1.2693511279296874
-0.38627447265625,0.075559990234375,1.071509013671875
-0.37508982421875,0.153988896484375,0.95796484375
-0.280992890625,0.10325519775390625,0.7979707861328125
-0.0932853125,-0.051886982421875,0.7672499609375
-0.26470220703125,-0.0347306591796875,0.782487490234375
-0.2411171875,-0.09967959716796874,0.6915538476562499
0.0093216796875,-0.05752406005859375,0.7468513330078125
-0.24136033203125,0.0003172583007812497,0.8186151806640625
-0.06289224609374999,0.06404074462890624,1.0395593554687501
-0.271267109375,0.02972809814453125,1.2767241259765625
-0.52194912109375,0.0843832421875,1.2671392285156249
-0.30871136718750003,-0.06585713134765625,0.948625712890625
-0.16355408203125,-0.1200220947265625,0.8082929833984375
-0.33472783203125,-0.08889562255859375,0.76430076171875
-0.20464550781250002,-0.0876701708984375,0.9508376123046876
-0.20245720703125,-0.21095060791015624,1.0343982568359376
-0.302389609375,-0.1445311279296875,0.8033776513671875
-0.19637859375,-0.07713128662109375,0.7512751318359375
-0.14021220703125,0.08953013916015624,0.819844013671875
-0.18786853515625002,0.1157548046875,1.06118681640625
-0.20804953125,0.0760501708984375,1.218968974609375
-0.16112263671875,0.11796061767578125,1.158510390625
-0.10082279296875,0.069677822265625,0.8618701025390625
-0.09352845703125,0.02041466552734375,0.80165728515625
-0.19370400390625,-0.14575657958984375,0.6593584228515625
-0.080641796875,-0.10899302978515625,0.854251337890625
-0.4166675390625,-0.10458140380859375,1.0191607275390624
-0.35952857421875,-0.1151202880859375,0.9815584374999999
-0.28512634765625,-0.1592365478515625,0.928964384765625
-0.2581373046875,-0.006790361328125,1.069542880859375
-0.2600824609375,-0.060710234375,0.907336923828125
-0.07845349609375,0.19393862060546874,0.9739396728515625
-0.12951384765625001,0.11747043701171875,1.1523662255859375
-0.2386857421875,0.10129447509765625,1.1430270947265626
-0.1735230078125,0.03855135009765625,1.080356611328125
-0.23844259765625,-0.06536695068359374,0.899472392578125
-0.11054857421875,-0.01561361328125,0.655180390625
-0.09012443359375,0.0878145068359375,0.9124980224609375
-0.43830740234375,-0.10311086181640625,1.219952041015625
-0.419098984375,-0.2058037109375,1.1469593603515624
-0.2649453515625,0.126538779296875,1.149171259765625
-0.41447923828125,-0.04330882080078125,1.0098215966796875
-0.144831953125,-0.10409122314453124,1.0879753759765625
-0.360744296875,0.034384814453125,1.2000449462890626
-0.50347013671875,-0.09820905517578125,1.04349162109375
-0.1210037890625,-0.0876701708984375,0.76823302734375
-0.18640966796875,-0.14036459228515624,0.5841538427734375
-0.18057419921875,-0.1901179296875,0.5949675732421875
-0.15042427734375,-0.030073942871093752,0.6578838232421875
-0.257651015625,0.0152677685546875,0.776589091796875
-0.14799283203125,-0.06389640869140625,0.79575888671875
-0.33570041015625,-0.25506686767578124,0.8697346337890625
-0.3189234375,0.1182057080078125,1.1597392236328126
-0.15869119140625,0.00766996826171875,0.6431378271484375
-0.23552486328125,0.071638544921875,0.6308494970703125
-0.02593427734375,0.08560869384765625,0.716622041015625
0.04409134765625,0.0652661962890625,0.95894791015625
-0.43198564453125,-0.10409122314453124,1.3696239013671876
-0.17862904296875,-0.28741879150390626,1.53109255859375
-0.26567478515625,-0.0837487255859375,1.4659644091796875
-0.50201126953125,-0.20972515625,0.9324051171875
-0.34032015625,-0.26977228759765626,0.67779091796875
-0.14604767578125,-0.25653740966796873,0.6696806201171875
-0.4040240234375,-0.11683592041015625,0.8144371484375
-0.269321953125,-0.07271966064453125,0.840488408203125
-0.07504947265625,-0.1023755908203125,0.947642646484375
-0.273212265625,-0.08105273193359375,0.959439443359375
-0.08428896484375001,-0.13252170166015625,1.044966220703125
-0.15066742187499998,0.06306038330078124,1.1985703466796875
-0.22288134765625,-0.02958376220703125,1.241579501953125
-0.4341739453125,0.069677822265625,1.2501813330078124
-0.45824525390625,0.091245771484375,1.171781787109375
-0.22190876953125,-0.01634888427734375,1.0481611865234375
-0.39089421875,0.07580508056640625,1.0132623291015626
-0.27005138671875,0.01551285888671875,0.9363373828125
-0.32597462890625,-0.0710040283203125,0.8967689599609375
-0.277102578125,-0.0719843896484375,0.8820229638671875
-0.1443456640625,-0.1425704052734375,0.885709462890625
-0.08039865234375,-0.06585713134765625,0.87243806640625
-0.209022109375,-0.011201987304687501,1.0771616455078126
-0.03079716796875,0.0848734228515625,1.406243125
-0.170118984375,0.1691844970703125,1.5215076611328124
-0.5148979296875,0.30324890869140625,1.5170838623046876
-0.2279873828125,0.057668395996093746,1.2609950634765625
-0.0850183984375,0.16550814208984374,1.1356540966796875
-0.39478453125,0.22751599609375,1.147205126953125
-0.28123603515625,0.30202345703125,1.1722733203125
-0.10860341796875,0.31305252197265626,1.457854111328125
-0.421044140625,0.177517568359375,1.5490335205078125
-0.09401474609375,-0.114630107421875,1.4605575439453125
-0.16647181640625,-0.06536695068359374,1.3406234423828125
-0.237226875,-0.2562923193359375,1.2305200048828124
-0.1355924609375,-0.3783473046875,0.9985163330078125
-0.14215736328125,-0.40604251220703125,0.831640810546875
-0.14264365234375,-0.38937636962890626,0.6736128857421875
-0.097175625,-0.312663095703125,0.421702119140625
-0.08744984375,-0.27418391357421873,0.3241327783203125
-0.11930177734375,-0.264625390625,0.293903486328125
-0.1482359765625,-0.3013889404296875,0.4602874755859375
-0.16355408203125,-0.36045571044921876,0.73480876953125
-0.30627992187499997,-0.5347149365234375,1.1032129052734374
-0.2814791796875,-0.5168233422851563,1.27942755859375
-0.27807515625,-0.3131532763671875,1.5583726513671876
-0.08380267578125,0.0338946337890625,1.369378134765625
-0.3437241796875,0.13707766357421874,1.238630302734375
-0.51149390625,0.11698025634765626,1.12606919921875
-0.4448723046875,0.0191892138671875,0.82131861328125
-0.34007701171875,-0.02860340087890625,0.6092220361328125
-0.2795340234375,0.0672269189453125,0.59914560546875
-0.2022140625,0.09933375244140626,0.690079248046875
-0.18227621093750002,0.132420947265625,0.74463943359375
-0.03687578125,0.16942958740234376,0.8348357763671875
-0.04295439453125,0.20031096923828126,1.1169758349609376
-0.23795630859375,0.306925263671875,1.4005904931640625
-0.19953947265625,0.19835024658203124,1.2961396875
-0.4302836328125,0.08609887451171874,1.243545634765625
-0.46529644531250003,0.0525214990234375,0.94321884765625
-0.3651208984375,0.05962911865234375,0.6972064794921875
-0.226528515625,0.16158669677734375,0.6441208935546875
-0.08817927734375,0.10962754638671875,0.6686975537109375
-0.26372962890625,0.03315936279296875,0.6755790185546875
-0.19467658203125,-0.0327699365234375,0.8520394384765625
-0.0947441796875,-0.15997181884765624,0.8682600341796876
-0.06337853515625,0.0133070458984375,0.8721922998046875
-0.1715778515625,-0.07419020263671874,1.0599579833984376
-0.12756869140625,-0.32540779296875,1.1422897949218749
-0.24622322265625,-0.363641884765625,1.3688866015625
-0.1939471484375,-0.4406002490234375,1.376259599609375
0.18025228515625,0.06796218994140625,1.3332504443359374
0.0978262890625,0.0897752294921875,1.2659103955078126
-0.56620142578125,-0.0053198193359375,1.4035396923828125
-0.61094001953125,-0.00850599365234375,1.1073909375
-0.5586639453125,-0.1366882373046875,0.8323781103515625
-0.0018629687499999992,-0.23496946044921874,0.8485987060546875
0.17490310546875,0.06943273193359376,1.415582255859375
-0.15334201171875,0.33854191650390625,1.54288935546875
-0.358799140625,0.2976118310546875,1.0840431103515624
-0.224583359375,0.18045865234375,0.723503505859375
-0.22531279296875,0.17972338134765625,0.6200357666015625
-0.25303126953125,0.1250682373046875,0.520991826171875
0.023910351562499998,-0.06732767333984375,0.48584720214843746
0.0132119921875,-0.15457983154296875,1.127543798828125
-0.09595990234375,-0.18301031005859375,1.3037584521484376
-0.47769681640625,-0.1337471533203125,1.37773419921875
-0.70576638671875,0.0152677685546875,1.6458655615234374
-0.2172890234375,-0.116590830078125,1.284342890625
-0.2221519140625,-0.26658611328125,1.0540595849609375
-0.049519296875,0.14246965087890626,0.8628531689453125
-0.1783858984375,0.0530116796875,0.5187799267578125
-0.14021220703125,-0.047965537109375,0.3983542919921875
-0.210967265625,-0.0033590966796874996,0.7200627734375
-0.07553576171875,0.07090327392578125,0.81935248046875
-0.26810623046875,0.0642858349609375,1.052830751953125
-0.308225078125,0.1250682373046875,1.1690783544921874
-0.20634751953125,0.02041466552734375,0.9021758251953125
-0.15066742187499998,-0.1013952294921875,0.637976728515625
-0.26154132812499997,-0.0857094482421875,0.507228896484375
-0.23990146484375,-0.053847705078125,0.562280615234375
-0.2785614453125,0.0162481298828125,0.8812856640625
-0.337402421875,0.0652661962890625,0.9881941357421875
-0.224583359375,-0.0023787353515625003,0.9641090087890625
-0.181789921875,0.07825598388671876,1.1290183984375
-0.18884111328125,0.1142842626953125,1.2772156591796875
-0.34153587890625,0.12555841796875,1.3514371728515624
-0.36876806640625,0.16746886474609374,1.3661831689453126
-0.3456693359375,0.0182088525390625,1.11427240234375
-0.21193984375,-0.050661530761718754,0.750046298828125
-0.15164,0.00325834228515625,0.5325428564453125
-0.12829812499999999,0.0922261328125,0.522957958984375
-0.2591098828125,0.0848734228515625,0.55785681640625
-0.29776986328125,0.1309504052734375,0.7040879443359375
-0.20780638671875,0.11305881103515625,0.8825144970703125
-0.1978374609375,-0.0906112548828125,1.1445016943359374
-0.27005138671875,-0.2170778662109375,1.270088427734375
-0.36244630859375,-0.08056255126953125,1.3735561669921874
-0.18592337890625,-0.19845100097656249,1.0661021484375
-0.156502890625,-0.1121792041015625,0.8643277685546875
-0.26372962890625,-0.0749254736328125,0.825742412109375
-0.28366748046875,-0.1210024560546875,0.8938197607421875
-0.1492085546875,-0.0543378857421875,0.9953213671875
-0.3009307421875,0.05570767333984375,1.0503730859375
-0.1871391015625,0.03315936279296875,1.1671122216796874
-0.33813185546875,0.0809519775390625,1.2015195458984376
-0.2707808203125,0.167713955078125,1.1970957470703125
-0.34785763671875003,0.08634396484375,1.0503730859375
-0.21266927734375,0.02972809814453125,1.0265337255859375
-0.26664736328125,-0.11193411376953125,0.9196252539062499
-0.20829267578125,-0.01291761962890625,0.8849721630859375
-0.237226875,-0.0063001806640625,0.712689775390625
-0.12465095703125,-0.00777072265625,0.6453497265625
-0.1258666796875,0.11796061767578125,0.777572158203125
-0.12027435546875,-0.035711020507812496,1.1292641650390625
-0.17473873046875,-0.108747939453125,1.3767511328125
-0.436605390625,0.0373258984375,1.5283891259765625
-0.38773333984375,-0.02174087158203125,1.301546552734375
-0.29193439453125003,-0.05090662109375,0.987948369140625
-0.1929745703125,0.02482629150390625,0.757419296875
-0.22774423828125,0.09688284912109375,0.71711357421875
-0.1210037890625,0.06502110595703126,0.748080166015625
-0.1890842578125,0.00472888427734375,0.9397781152343749
-0.28974609375,-0.037916833496093746,1.3037584521484376
-0.419098984375,-0.03840701416015625,1.2902412890625
-0.28707150390625,-0.077376376953125,1.0235845263671874
-0.0821006640625,0.089285048828125,1.0112961962890625
-0.30871136718750003,0.097127939453125,1.00515203125
-0.14702025390625,-0.1023755908203125,1.0098215966796875
-0.26567478515625,-0.0817880029296875,1.0117877294921875
-0.2989855859375,-0.091101435546875,1.0904330419921875
-0.30117388671875,-0.0641414990234375,1.009575830078125
-0.28804408203125,-0.1509034765625,0.9056165576171875
-0.25935302734375,-0.028358310546875,0.76036849609375
-0.2133987109375,-0.0033590966796874996,0.7645465283203124
-0.17036212890625,-0.0808076416015625,0.7611057958984375
-0.2318776953125,-0.03840701416015625,0.839505341796875
-0.2921775390625,0.04124734375,1.03169482421875
-0.33424154296874997,0.11698025634765626,1.09657720703125
-0.1881116796875,0.11747043701171875,1.0953483740234375
-0.19127255859375,0.17237067138671874,1.1248403662109374
-0.27783201171875,-0.07811164794921875,1.0503730859375
-0.2056180859375,-0.10948321044921874,1.0609410498046874
-0.35855599609375,0.08266760986328126,1.0471781201171875
-0.38384302734375,0.0338946337890625,0.9041419580078125
-0.27977716796875,0.024581201171875,0.907336923828125
-0.1569891796875,0.06894255126953125,0.92945591796875
-0.18397822265625,-0.02909358154296875,1.0609410498046874
-0.39891798828125,0.053992041015625,1.2280623388671874
-0.1171134765625,0.03168882080078125,1.119187734375
-0.170118984375,0.00472888427734375,0.9704989404296875
-0.23844259765625,0.03855135009765625,0.9065996240234375
-0.19564916015625,-0.0710040283203125,0.9582106103515625
-0.31430369140625003,-0.09183670654296874,1.0520934521484375
-0.38141158203125003,-0.03987755615234375,1.03562708984375
-0.11322316406249999,-0.08497417724609375,0.8397511083984375
-0.23844259765625,0.02972809814453125,0.7928096875
-0.27783201171875,0.053992041015625,0.812471015625
-0.1764407421875,0.010856142578125,0.7792925244140625
-0.2017277734375,-0.011201987304687501,0.9835245703125
-0.24768208984375,-0.02737794921875,1.1395863623046876
-0.1793584765625,-0.13105115966796876,1.0638902490234374
-0.11395259765625,-0.208744794921875,1.052830751953125
-0.29922873046875,0.02531647216796875,1.0457035205078125
-0.2620276171875,-0.06585713134765625,0.9277355517578125
-0.26616107421875,-0.07173929931640625,0.9365831494140625
-0.33570041015625,0.0829127001953125,1.0692971142578125
-0.18081734375,-0.02027032958984375,1.0914161083984375
-0.12319208984375,-0.08252327392578125,1.054796884765625
-0.2766162890625,-0.05262225341796875,1.0722463134765625
-0.22871681640625,-0.0151234326171875,1.0189149609375
-0.35344996093750003,0.02482629150390625,0.9360916162109375
-0.2571647265625,-0.07443529296875,0.902421591796875
-0.249870390625,-0.036201201171875,0.820335546875
-0.1637972265625,-0.02370159423828125,0.8264797119140626
-0.18227621093750002,-0.0288484912109375,0.9218371533203125
-0.28707150390625,-0.05360261474609375,1.043000087890625
-0.32111173828125,-0.01683906494140625,1.02972869140625
-0.312115390625,0.03217900146484375,0.9881941357421875
-0.22725794921875,-0.049926259765625,0.8972604931640625
-0.142886796875,-0.0092412646484375,0.8340984765625
-0.08039865234375,-0.0915916162109375,0.8043607177734375
-0.29752671875000003,-0.0641414990234375,0.8778449316406249
-0.191515703125,-0.01169216796875,0.971236240234375
-0.2834243359375,-0.0337502978515625,1.02972869140625
-0.28998923828125,-0.02909358154296875,1.1091113037109375
-0.19953947265625,0.0652661962890625,0.9901602685546875
-0.18835482421875,-0.06683749267578125,0.8427003076171875
-0.28074974609375003,-0.068553125,0.9061080908203125
-0.40329458984375,-0.00948635498046875,0.9046334912109375
-0.23114826171875,0.061834931640625,0.9346170166015625
-0.2211793359375,0.09296140380859375,1.0240760595703124
-0.24719580078125,-0.01291761962890625,0.924049052734375
-0.2333365625,-0.10115013916015625,0.810013349609375
-0.19808060546875,-0.1665892578125,0.8333611767578125
-0.25400384765625,0.00865032958984375,0.791335087890625
-0.09595990234375,-0.014633251953124999,0.8456495068359375
-0.27005138671875,0.0044837939453125,1.1489254931640625
-0.374360390625,0.06281529296875,1.3892852294921876
-0.30457791015625,0.10472573974609375,1.3263689794921876
-0.30117388671875,0.04198261474609375,1.1172216015625
-0.26081189453125,-0.0043394580078125,0.9498545458984375
-0.33108066406250003,0.06109966064453125,1.02776255859375
-0.20415921875,-0.01095689697265625,1.0987891064453126
-0.30895451171875,-0.13007079833984375,1.1621968896484376
-0.343237890625,-0.02517213623046875,1.1130435693359375
-0.185680234375,-0.0808076416015625,0.9326508837890625
-0.17425244140625,-0.09526797119140624,0.81345408203125
-0.15528716796875,-0.10507158447265624,0.7581565966796875
-0.1287844140625,-0.04477936279296875,0.8525309716796875
-0.2299325390625,-0.046740085449218746,0.905370791015625
-0.2484115234375,-0.044534272460937496,1.0191607275390624
-0.321841171875,0.0829127001953125,0.969761640625
-0.2289599609375,-0.0817880029296875,0.9542783447265625
-0.299471875,0.04149243408203125,1.0742124462890625
-0.3291355078125,0.00472888427734375,1.0395593554687501
-0.28220861328125,-0.0847290869140625,0.9614055761718749
-0.216802734375,-0.0332601171875,0.94911724609375
-0.24087404296875,-0.0778665576171875,0.8628531689453125
-0.14945169921875,0.06281529296875,0.9016842919921875
-0.187625390625,0.028257556152343752,0.9975332666015625
-0.13680818359375,-0.00654527099609375,1.117713134765625
-0.22336763671875,0.111833359375,1.1970957470703125
-0.32208431640625,0.1113431787109375,1.33546234375
-0.25862359375,-0.01978014892578125,1.2585373974609375
-0.29363640625,0.01698340087890625,1.17817171875
-0.27929087890625,-0.01193725830078125,1.1388490625
-0.28950294921874997,-0.0602200537109375,1.0078554638671875
-0.30457791015625,-0.11389483642578124,0.895540126953125
-0.25473328125,-0.16585398681640626,0.811979482421875
-0.24719580078125,-0.146001669921875,0.7905977880859375
-0.19029998046875,-0.14526639892578125,0.7350545361328125
-0.09887763671875,-0.0749254736328125,0.64633279296875
-0.15188314453125001,0.00963069091796875,0.5807131103515625
-0.103983671875,-0.10997339111328125,0.5379497216796875
0.028286953125,-0.01978014892578125,0.6178238671875
-0.01231818359375,-0.014633251953124999,0.822793212890625
-0.15091056640625,-0.06781785400390625,1.210121376953125
-0.2873146484375,-0.08301345458984374,1.55566921875
-0.4361191015625,0.05031568603515625,1.5613218505859374
-0.4322287890625,-0.06928839599609375,1.2138078759765625
-0.29485212890625,-0.0562986083984375,0.9616513427734374
-0.20342978515625,0.0211499365234375,0.8436833740234375
-0.330594375,-0.069533486328125,0.802148818359375
-0.18057419921875,-0.1038461328125,0.789368955078125
-0.140941640625,-0.07419020263671874,0.752012431640625
-0.1093328515625,-0.05556333740234375,0.832623876953125
-0.2095083984375,-0.00605509033203125,1.0280083251953125
-0.2357680078125,-0.05752406005859375,1.0840431103515624
-0.2610550390625,0.07188363525390624,1.10837400390625
-0.361716875,0.14884199951171875,1.0737209130859375
-0.3242726171875,0.0887948681640625,1.0879753759765625
-0.4555706640625,0.0887948681640625,1.1194335009765626
-0.4458448828125,0.0037485229492187503,1.0638902490234374
-0.3072525,0.004973974609375,1.084288876953125
-0.37217208984375,-0.0803174609375,1.0678225146484375
-0.21412814453125,-0.00703545166015625,1.0068723974609375
-0.2503566796875,0.0652661962890625,0.9582106103515625
-0.1248941015625,-0.04698517578125,1.18603625
-0.20342978515625,-0.03938737548828125,1.215036708984375
-0.34591248046875,-0.048455717773437504,1.17915478515625
-0.268349375,-0.0366913818359375,1.078390478515625
-0.27880458984375,-0.08350363525390625,0.78789435546875
-0.25789416015625,-0.05605351806640625,0.7439021337890624
-0.2211793359375,-0.057769150390625,0.69941837890625
-0.27807515625,-0.05090662109375,0.7409529345703125
-0.41399294921875,0.06158984130859375,0.893573994140625
-0.40086314453125,0.10202974609375,0.9616513427734374
-0.35393625,-0.013162709960937501,0.9272440185546875
-0.413263515625,0.0030132519531249997,0.7856824560546875
-0.23819945312500002,-0.11781628173828125,0.6308494970703125
-0.1161408984375,-0.2023724462890625,0.645841259765625
