ax,ay,az
-0.4978778125,0.07874616455078125,0.9410069482421874
-0.352963671875,-0.08840544189453126,0.804606484375
-0.2566784375,-0.09820905517578125,0.80362341796875
-0.38627447265625,-0.1901179296875,0.8751414990234375
-0.30360533203125,-0.24281235107421875,0.959439443359375
-0.2566784375,0.11158826904296874,0.9105318896484375
-0.049519296875,0.0250713818359375,1.0211268603515624
-0.27637314453125,0.03536517578125,1.2437914013671876
-0.36730919921875,0.1191860693359375,1.33841154296875
-0.35904228515625003,-0.1170810107421875,1.0899415087890625
-0.3933256640625,-0.1111988427734375,0.748080166015625
-0.1399690625,-0.0857094482421875,0.57948427734375
-0.08283009765625,-0.220509130859375,0.5787469775390625
-0.1404553515625,-0.14771730224609375,0.9213456201171875
-0.411318359375,-0.0710040283203125,1.1911973486328125
-0.5523421875,-0.00654527099609375,1.445074248046875
-0.439523125,-0.051886982421875,1.4723543408203126
-0.23819945312500002,-0.0857094482421875,1.1840701171874999
-0.31308796875,-0.08938580322265625,1.10444173828125
-0.48158712890625,0.011346323242187501,0.9655836083984375
-0.06435111328125,-0.15261910888671876,0.9188879541015624
-0.09085386718749999,-0.14771730224609375,0.97271083984375
-0.236254296875,-0.1219828173828125,1.0319405908203125
-0.25011353515625,-0.09918941650390625,0.9596852099609375
-0.13097271484375,-0.03399538818359375,1.0417712548828124
-0.41204779296875,-0.01732924560546875,1.29908888671875
-0.2644590625,-0.059729873046875,1.5478046875
-0.4118046484375,-0.048945898437499996,1.7191040087890626
-0.62990529296875,0.04712951171875,1.52421109375
-0.327676640625,-0.00409436767578125,1.1209081005859376
-0.42858162109375,-0.14575657958984375,0.9604225097656249
-0.18081734375,-0.26143921630859374,1.1071451708984374
-0.2411171875,-0.259723583984375,1.1794005517578126
-0.2600824609375,-0.3219765283203125,1.0383305224609374
-0.23844259765625,-0.36070080078125,0.9139726220703125
-0.2610550390625,-0.32932923828125,0.927981318359375
-0.3797095703125,-0.22075422119140625,0.89013326171875
-0.34056330078125,-0.10654212646484375,0.8525309716796875
-0.21947732421875,0.0010525292968750002,1.0348897900390626
-0.26761994140625,0.0922261328125,1.31285181640625
-0.257651015625,0.1035002880859375,1.3996074267578125
-0.44706060546875,0.00521906494140625,1.2467406005859374
-0.35028908203125,0.07727562255859374,1.043983154296875
-0.4011062890625,0.05374695068359375,0.8778449316406249
-0.44292714843750003,-0.01389798095703125,0.792318154296875
-0.26324333984375,-0.14820748291015626,0.68172318359375
-0.005996425781250002,-0.14036459228515624,0.6269172314453125
-0.10544253906250001,-0.046004814453125,0.804114951171875
-0.24816837890625,-0.15114856689453124,0.8775991650390624
-0.28609892578125,-0.12761989501953125,1.2034856787109376
-0.294608984375,-0.16144236083984376,1.347259140625
-0.30530734375,-0.0210056005859375,1.3937090283203124
-0.37508982421875,-0.04772044677734375,1.193409248046875
-0.34883021484375,-0.008996174316406251,0.9754142724609375
-0.26470220703125,-0.05556333740234375,0.9179048876953125
-0.28318119140625,-0.0371815625,0.817877880859375
-0.1871391015625,-0.106787216796875,0.78789435546875
-0.1321884375,-0.1822750390625,0.8431918408203125
-0.190543125,-0.075415654296875,0.943710380859375
-0.18008791015625,-0.03497574951171875,1.087238076171875
-0.19613544921875,0.033404453125,1.0992806396484376
-0.30603677734375,0.08242251953125,0.981066904296875
-0.249870390625,0.04051207275390625,0.805098017578125
-0.12416466796875,0.0765403515625,0.75447009765625
-0.22701480468750002,-0.1396293212890625,0.7040879443359375
-0.1166271875,-0.1435507666015625,0.7350545361328125
-0.32864921874999997,0.00521906494140625,0.8343442431640625
-0.41350666015625,0.02433611083984375,1.0130165625
-0.36463460937500003,0.015022678222656249,1.1093570703125
-0.2172890234375,0.04100225341796875,1.2020110791015626
-0.24938410156250002,0.11354899169921875,1.2646815625
-0.3602580078125,0.06502110595703126,1.254359365234375
-0.201241484375,0.10962754638671875,1.1172216015625
-0.16647181640625,-0.13252170166015625,0.95108337890625
-0.18154677734375,0.0172284912109375,0.8844806298828125
-0.109819140625,0.04345315673828125,0.7539785644531249
-0.2591098828125,0.05497240234375,0.859166669921875
-0.413263515625,-0.107767578125,0.9818042041015624
-0.37022693359375003,-0.1004148681640625,1.076424345703125
-0.3855450390625,-0.0876701708984375,1.0179318945312499
-0.3189234375,-0.2151171435546875,1.024321826171875
-0.26907880859375,-0.16977543212890625,0.9596852099609375
-0.2722396875,-0.10654212646484375,0.726452705078125
-0.21607330078125,-0.13154134033203124,0.61094240234375
-0.0543821875,-0.20065681396484375,0.6084847363281249
-0.05219388671875,-0.22663638916015624,0.7743771923828124
-0.26567478515625,-0.12909043701171874,0.8318865771484375
-0.352963671875,-0.130315888671875,0.7714279931640625
-0.1088465625,-0.04968116943359375,0.6215103662109375
-0.10690140625,-0.07958218994140626,0.4578298095703125
-0.0344443359375,-0.10409122314453124,0.4880591015625
-0.09206958984375,-0.114630107421875,0.5455684863281249
-0.22142248046875002,0.0451687890625,0.82918314453125
-0.39210994140625,0.12482314697265626,1.054796884765625
-0.47404964843749997,0.1564397998046875,1.1538408251953125
-0.31187224609374997,0.07825598388671876,0.979100771484375
-0.257651015625,0.02972809814453125,0.7741314257812499
-0.21364185546875,-0.011201987304687501,0.6178238671875
-0.1569891796875,0.01306195556640625,0.565229814453125
-0.1064151171875,-0.015368522949218751,0.5988998388671875
-0.115654609375,-0.11242429443359375,0.8677685009765626
-0.18008791015625,-0.048455717773437504,1.0368559228515626
-0.17473873046875,0.0407571630859375,1.1877566162109374
-0.18689595703125,0.05864875732421875,1.332021611328125
-0.4448723046875,0.095167216796875,1.3509456396484376
-0.434660234375,0.04541387939453125,1.2084010107421874
-0.48596373046875,0.0037485229492187503,1.0307117578125
-0.41156150390625,0.0044837939453125,0.8928366943359375
-0.27199654296875,-0.1543347412109375,0.6878673486328125
-0.0762651953125,-0.20359789794921876,0.731368037109375
-0.0782103515625,-0.1680597998046875,1.0619241162109374
-0.44219771484375,-0.14232531494140624,1.2801648583984375
-0.401592578125,-0.106787216796875,1.2875378564453124
-0.31697828125,-0.0425735498046875,0.9596852099609375
-0.26032560546875,-0.19673536865234376,0.7050710107421875
-0.14507509765624998,-0.1876670263671875,0.6711552197265624
-0.19759431640625,-0.1641383544921875,0.7719195263671875
-0.33035123046875,-0.114630107421875,0.926015185546875
-0.44851947265625003,-0.10727739746093751,1.0230929931640624
-0.29679728515625,-0.08203309326171875,1.006626630859375
-0.44657431640625,-0.15678564453125,0.93535431640625
-0.4118046484375,-0.03056412353515625,0.819844013671875
-0.21655958984375,0.0642858349609375,0.7529954980468749
-0.3456693359375,0.017718671875,0.67484171875
-0.304334765625,0.040266982421875,0.702859111328125
-0.14653396484375,-0.0504164404296875,0.8087845166015625
-0.17717017578125,-0.1719812451171875,0.914709921875
-0.251815546875,-0.1641383544921875,0.97369390625
-0.15723232421875,-0.09624833251953124,0.946168046875
-0.25789416015625,-0.06585713134765625,0.9351085498046875
-0.25935302734375,-0.09673851318359375,1.0914161083984375
-0.4098594921875,-0.12418863037109375,1.1916888818359375
-0.42323244140625,-0.12124754638671875,1.2509186328125
-0.41691068359375,-0.1670794384765625,1.0818312109375
-0.33083751953125,-0.0298288525390625,0.942727314453125
-0.26810623046875,-0.1935491943359375,0.7475886328125
-0.27151025390625,-0.14281549560546875,0.705808310546875
-0.1813036328125,-0.18006922607421874,0.7807671240234375
-0.2153438671875,-0.12761989501953125,0.7905977880859375
-0.1958923046875,-0.2327636474609375,0.79969115234375
-0.22044990234375,-0.201882265625,0.932896650390625
-0.0986344921875,-0.09281706787109376,0.97074470703125
-0.0966893359375,-0.013162709960937501,1.072000546875
-0.3515048046875,0.0642858349609375,1.3177671484375
-0.3408064453125,0.158890703125,1.4711255078125
-0.44122513671875,0.14124419921875,1.493244501953125
-0.4575158203125,-0.012427438964843749,1.231748837890625
-0.2464663671875,-0.1798241357421875,1.0230929931640624
-0.22482650390625,-0.1102184814453125,0.8284458447265625
-0.22920310546875,-0.14894275390625,0.7984623193359375
-0.15188314453125001,-0.2464887060546875,0.8977520263671875
-0.1910294140625,-0.0974737841796875,1.127543798828125
-0.26713365234374997,-0.20898988525390624,1.2659103955078126
-0.1219763671875,-0.17173615478515625,1.435243583984375
-0.33083751953125,0.19687970458984375,1.415582255859375
-0.3699837890625,0.167713955078125,1.3258774462890626
-0.4857205859375,0.02139502685546875,1.2152824755859375
-0.54723615234375,-0.0376717431640625,1.0516019189453125
-0.32986494140625,-0.23742036376953124,0.909303056640625
-0.23528171875,-0.2607039453125,0.6598499560546875
-0.144831953125,-0.26830174560546877,0.5925099072265625
-0.13826705078125,-0.29624204345703126,0.681231650390625
-0.25108611328125,-0.34722083251953123,0.8884128955078126
-0.4122909375,-0.2396261767578125,1.089204208984375
-0.5732526171875,-0.138158779296875,1.20864677734375
-0.41618125,0.020659755859375,1.0771616455078126
-0.29825615234375,-0.0798272802734375,0.900455458984375
-0.28026345703125,-0.03693647216796875,0.8773533984374999
-0.28269490234375,-0.10727739746093751,0.9788550048828125
-0.42979734375,-0.053847705078125,0.8557259375
-0.1414279296875,-0.10580685546875,0.615366201171875
0.007376523437500001,-0.1464918505859375,0.64240052734375
-0.31381740234375,-0.01732924560546875,0.902421591796875
-0.4594609765625,0.026296833496093748,1.16342572265625
-0.42906791015625,0.106931552734375,1.395920927734375
-0.45727267578124997,0.22629054443359375,1.5082362646484375
-0.35466568359375,0.22580036376953125,1.3460303076171876
-0.18106048828125,0.13903838623046874,1.259274697265625
-0.3544225390625,0.17531175537109375,1.1683410546875
-0.356853984375,0.0142874072265625,0.886692529296875
-0.19953947265625,0.0137972265625,0.715638974609375
-0.22361078125,-0.05482806640625,0.713672841796875
-0.3067662109375,-0.1592365478515625,0.8264797119140626
-0.341292734375,-0.2308029248046875,0.910286123046875
-0.337402421875,-0.25359632568359375,0.817877880859375
-0.214857578125,-0.2151171435546875,0.757419296875
-0.2707808203125,-0.16242272216796874,0.964354775390625
-0.22482650390625,-0.12026718505859375,1.219952041015625
-0.4351465234375,-0.01095689697265625,1.2703341943359374
-0.387976484375,-0.149923115234375,1.0378389892578126
-0.2182616015625,-0.20972515625,0.8756330322265625
-0.28464005859375,-0.236194912109375,0.8223016796875
-0.21218298828125,-0.2357047314453125,0.9164302880859375
-0.221665625,-0.20212735595703124,0.886692529296875
-0.35028908203125,-0.19869609130859375,0.8655566015625
-0.11225058593750001,-0.1239435400390625,0.94911724609375
-0.197351171875,-0.220509130859375,1.036118623046875
-0.40475345703125,0.00325834228515625,1.1427813281249999
-0.32500205078125,0.11305881103515625,1.1902142822265624
-0.2411171875,-0.061690595703125004,1.159001923828125
-0.3884627734375,0.15227326416015624,1.158510390625
-0.31284482421875,-0.027868129882812502,1.0756870458984376
-0.25400384765625,0.024091020507812498,1.0599579833984376
-0.13024328125,-0.02468195556640625,0.9690243408203125
-0.17571130859375,-0.10580685546875,1.128526865234375
-0.29485212890625,-0.126394443359375,1.2865547900390626
-0.43636224609375,-0.0376717431640625,1.3126060498046874
-0.323786328125,-0.08350363525390625,1.1002637060546876
-0.2834243359375,-0.07835673828125,0.9454307470703125
-0.21558701171875,-0.06389640869140625,0.8707177001953125
-0.15334201171875,-0.0582593310546875,0.965337841796875
-0.42663646484375,-0.11683592041015625,1.0948568408203125
-0.5090624609375,-0.03105430419921875,1.062661416015625
-0.4147223828125,-0.12124754638671875,0.8830060302734375
-0.27588685546875,-0.1415900439453125,0.7733941259765625
-0.20537494140625,-0.1611972705078125,0.7296476708984375
-0.19273142578125,-0.163648173828125,0.8313950439453125
-0.317950859375,-0.18350049072265626,0.9306847509765624
-0.143859375,-0.1562954638671875,0.96877857421875
-0.29533841796875,-0.08350363525390625,1.1091113037109375
-0.38967849609375,-0.1023755908203125,1.1666206884765624
-0.29096181640625,-0.055808427734375,1.04152548828125
-0.20537494140625,-0.03105430419921875,0.8962774267578125
-0.23552486328125,-0.03056412353515625,0.9262609521484375
-0.2912049609375,0.04002189208984375,1.05332228515625
-0.30944080078125,0.07776580322265625,1.1093570703125
-0.2561921484375,-0.0190448779296875,1.1076367041015625
-0.354908828125,0.0015427099609375003,1.0211268603515624
-0.206104375,-0.01634888427734375,0.8721922998046875
-0.218747890625,-0.15359947021484374,0.730384970703125
-0.28585578125,-0.07124911865234375,0.748080166015625
-0.14799283203125,-0.10409122314453124,0.75447009765625
-0.2056180859375,-0.14379585693359376,0.7792925244140625
-0.15747546875,-0.096983603515625,0.81345408203125
-0.12221951171875,-0.09012107421875,0.8267254785156251
-0.17425244140625,-0.1180613720703125,0.82131861328125
-0.13291787109375,-0.21046042724609376,0.8065726171875
-0.23357970703125,-0.12026718505859375,0.8628531689453125
-0.3656071875,-0.03448556884765625,0.9282270849609375
-0.40913005859375,-0.06659240234375,0.9105318896484375
-0.35661083984374997,0.01698340087890625,0.8038691845703125
-0.240144609375,0.028257556152343752,0.6981895458984375
-0.12635296875,-0.16242272216796874,0.6392055615234375
0.0112668359375,-0.03644629150390625,0.8058353173828126
-0.17717017578125,-0.030319033203124998,1.1703071875
-0.4866931640625,0.02874773681640625,1.403785458984375
-0.5547736328125,0.05374695068359375,1.2005364794921876
-0.20975154296875,0.00987578125,0.9606682763671874
-0.16987583984375,0.10987263671875,0.750046298828125
-0.09425789062500001,0.09002031982421875,0.7802755908203125
-0.24379177734375002,0.032424091796875,1.0068723974609375
-0.3874901953125,0.12163697265625,1.2629611962890626
-0.39867484375,0.1235976953125,1.1835785839843749
-0.38578818359375,0.0103659619140625,1.0778989453125
-0.30360533203125,-0.0396324658203125,1.026287958984375
-0.37022693359375003,-0.07443529296875,0.89996392578125
-0.33521412109375,-0.1053166748046875,0.722520439453125
-0.2450075,-0.11732610107421874,0.67779091796875
-0.24695265625,-0.1268846240234375,0.718096640625
-0.22823052734375,0.0294830078125,0.706791376953125
-0.1190586328125,-0.16781470947265625,0.68270625
-0.280992890625,-0.13840386962890625,0.8889044287109376
-0.32013916015625,-0.1406096826171875,1.0329236572265625
-0.36244630859375,-0.08301345458984374,1.0152284619140626
-0.41010263671875,0.021640117187500002,1.048406953125
-0.43587595703125,0.03659062744140625,1.0570087841796876
-0.257651015625,-0.1092381201171875,1.0884669091796875
-0.23844259765625,-0.09404251953125001,1.06511908203125
-0.24184662109375,-0.15605037353515624,0.97074470703125
-0.19224513671875,-0.08448399658203125,0.8498275390625
-0.2834243359375,-0.1161006494140625,0.8687515673828125
-0.2873146484375,-0.098944326171875,0.9891772021484375
-0.27053767578125,-0.0415931884765625,1.1848074169921876
-0.37995271484375,-0.04428918212890625,1.22437583984375
-0.28512634765625,-0.0425735498046875,1.0948568408203125
-0.2445212109375,-0.06267095703125,0.9503460791015625
-0.21510072265625,-0.00262382568359375,1.0117877294921875
-0.23795630859375,-0.07370002197265625,1.0346440234375
-0.343237890625,-0.13350206298828124,1.104933271484375
-0.436605390625,-0.10409122314453124,1.110831669921875
-0.35126166015625,-0.14918784423828124,1.055779951171875
-0.28634207031250003,-0.13717841796875,0.90586232421875
-0.23309341796875,-0.15065838623046876,0.83311541015625
-0.24281919921875,-0.063651318359375,0.934862783203125
-0.25983931640625,-0.04306373046875,1.0869923095703125
-0.1560166015625,0.00399361328125,1.1683410546875
-0.3203823046875,0.028257556152343752,1.1420440283203126
-0.27831830078124997,-0.1013952294921875,1.095594140625
-0.252788125,-0.06487677001953125,1.076424345703125
-0.31819400390625,-0.048455717773437504,1.1307387646484375
-0.3592854296875,-0.07909200927734375,1.1287726318359375
-0.3223274609375,-0.02027032958984375,1.034152490234375
-0.31697828125,-0.011201987304687501,0.9601767431640625
-0.25862359375,-0.05482806640625,0.92945591796875
-0.23990146484375,-0.03840701416015625,1.0437373876953124
-0.3194097265625,-0.09477779052734375,1.0919076416015625
-0.33983386718749997,-0.095022880859375,1.0889584423828125
-0.32597462890625,-0.04919098876953125,1.01006736328125
-0.29679728515625,-0.096983603515625,0.8967689599609375
-0.19127255859375,-0.15752091552734376,0.7792925244140625
-0.199296328125,-0.2053135302734375,0.875387265625
-0.3495596484375,-0.1906081103515625,1.0324321240234375
-0.3505322265625,-0.11364974609375,1.1464678271484374
-0.329621796875,-0.13693332763671875,1.166866455078125
-0.24938410156250002,-0.17075579345703126,1.0727378466796875
-0.2202067578125,-0.0239466845703125,1.108865537109375
-0.27807515625,-0.0543378857421875,1.0599579833984376
-0.33424154296874997,-0.02272123291015625,1.0648733154296874
-0.378250703125,0.057668395996093746,1.104933271484375
-0.29436583984375,-0.011201987304687501,1.0592206835937499
-0.27151025390625,-0.03546593017578125,1.0506188525390625
-0.2488978125,-0.024436865234375,1.0110504296875
-0.22579908203125,-0.0837487255859375,0.9324051171875
-0.27613,-0.13129625,0.8859552294921875
-0.29509527343749997,0.0035034326171875,0.9795923046875
-0.32281375,-0.04575972412109375,0.966320908203125
-0.3252451953125,-0.05262225341796875,0.9478884130859375
-0.28804408203125,0.02874773681640625,0.916184521484375
-0.2484115234375,0.0858537841796875,0.86260740234375
-0.2581373046875,-0.04036773681640625,0.8156659814453124
-0.29752671875000003,0.00399361328125,0.9599309765625
-0.34931650390625,-0.013162709960937501,1.094119541015625
-0.30214646484375,-0.015368522949218751,1.0525849853515625
-0.3155194140625,-0.07051384765625,0.954524111328125
-0.30944080078125,-0.05360261474609375,0.92945591796875
-0.354908828125,-0.055073156738281254,0.8933282275390625
-0.288773515625,-0.053847705078125,0.880794130859375
-0.32111173828125,-0.0411030078125,0.84786140625
-0.28269490234375,-0.07762146728515625,0.8481071728515625
-0.257651015625,-0.08693489990234375,0.810013349609375
-0.3223274609375,-0.10801266845703125,0.7837163232421875
-0.34226531250000003,-0.0455146337890625,0.880794130859375
-0.3262177734375,-0.08056255126953125,0.93535431640625
-0.2746711328125,-0.079337099609375,1.016948828125
-0.446331171875,-0.0504164404296875,1.105916337890625
-0.4030514453125,-0.02713285888671875,1.1096028369140625
-0.32646091796875,-0.0170841552734375,0.9188879541015624
-0.36220316406249997,-0.1038461328125,0.8141913818359375
-0.24136033203125,-0.0386521044921875,0.7928096875
-0.24476435546875,-0.04723026611328125,0.8009199853515625
-0.31989601562500003,-0.10972830078125,0.7837163232421875
-0.32086859375,-0.08399381591796876,0.8267254785156251
-0.2736985546875,-0.03522083984375,0.9284728515625
-0.356853984375,-0.0945327001953125,0.9380577490234375
-0.31624884765625,0.03561026611328125,0.97074470703125
-0.37752126953125,-0.05556333740234375,0.9449392138671875
-0.345183046875,-0.03889719482421875,0.971236240234375
-0.392839375,-0.03693647216796875,0.9559987109375
-0.36439146484375,-0.05360261474609375,0.9795923046875
-0.30409162109375,-0.03840701416015625,0.906353857421875
-0.30311904296875003,-0.09673851318359375,0.83704767578125
-0.24719580078125,-0.01928996826171875,0.80067421875
-0.1560166015625,-0.0396324658203125,0.7901062548828125
-0.29363640625,0.04051207275390625,0.931913583984375
-0.37217208984375,0.02776737548828125,1.050864619140625
-0.41618125,-0.0151234326171875,1.0206353271484374
-0.415208671875,-0.08546435791015625,0.924049052734375
-0.28804408203125,0.0069346972656249995,0.8756330322265625
-0.34493990234375,0.00472888427734375,0.8687515673828125
-0.33375525390625,-0.0298288525390625,0.995812900390625
-0.35855599609375,0.07923634521484375,1.07101748046875
-0.4808576953125,0.02972809814453125,1.0810939111328124
-0.32354318359375,0.0064445166015625,1.0162115283203126
-0.32864921874999997,-0.0170841552734375,0.977626171875
-0.34396732421875,-0.11977700439453125,0.938795048828125
-0.1890842578125,-0.1553151025390625,0.879811064453125
-0.2386857421875,-0.1288453466796875,0.854251337890625
-0.3135742578125,-0.08791526123046875,0.888658662109375
-0.3437241796875,-0.081297822265625,1.01203349609375
-0.432715078125,0.015022678222656249,1.1356540966796875
-0.39454138671875,-0.0327699365234375,1.0633987158203124
-0.37606240234375,-0.06977857666015624,0.9518206787109375
-0.37265837890625,0.02531647216796875,0.9110234228515625
-0.2503566796875,-0.05458297607421875,0.985490703125
-0.24962724609375,0.01796376220703125,1.111323203125
-0.3038484765625,-0.030319033203124998,1.1440101611328124
-0.35563826171875,-0.00507472900390625,1.1223827001953124
-0.25740787109375,-0.00311400634765625,1.03169482421875
-0.35563826171875,-0.12222790771484375,0.948625712890625
-0.31381740234375,-0.0788469189453125,0.9439561474609375
-0.1827625,-0.12663953369140624,0.84786140625
-0.24379177734375002,-0.0999246875,0.80362341796875
-0.36487775390625,-0.09404251953125001,0.7463597998046875
-0.1414279296875,-0.035711020507812496,0.7940385205078125
-0.27272597656249997,0.0358553564453125,0.7778179248046875
-0.3359435546875,-0.03105430419921875,0.9970417333984375
-0.253760703125,0.096147578125,1.1587561572265626
-0.42663646484375,0.03659062744140625,1.162934189453125
-0.24768208984375,-0.00581,1.1233657666015624
-0.27029453125,0.07923634521484375,0.9953213671875
-0.16914640625,-0.04575972412109375,1.1361456298828125
-0.25740787109375,0.02752228515625,1.212087509765625
-0.30919765625,0.13315621826171875,1.2993346533203125
-0.42615017578125003,0.03757098876953125,1.1302472314453125
-0.3135742578125,-0.18987283935546875,0.9690243408203125
-0.09887763671875,-0.092081796875,0.852285205078125
-0.20294349609375,-0.12418863037109375,0.9129895556640625
-0.26810623046875,-0.09796396484375,1.045949287109375
-0.38627447265625,-0.00213364501953125,1.136391396484375
-0.40645546875,-0.0631611376953125,0.990897568359375
-0.2722396875,0.008405239257812499,1.00810123046875
-0.30555048828125,-0.0006631030273437505,1.0363643896484376
-0.2678630859375,-0.0268877685546875,1.1041959716796874
-0.247925234375,0.0231106591796875,1.039067822265625
-0.2338228515625,0.06551128662109375,1.008592763671875
-0.28391062499999997,-0.04281864013671875,1.0442289208984374
-0.20026890625,-0.08840544189453126,1.093136474609375
-0.2566784375,0.021640117187500002,1.16932412109375
-0.4156949609375,-0.08595453857421875,1.1272980322265624
-0.3164919921875,-0.0886505322265625,1.0594664501953126
-0.27613,-0.0768861962890625,0.9026673583984375
-0.26178447265625,-0.1352176953125,0.9272440185546875
-0.25303126953125,-0.0092412646484375,1.06708521484375
-0.35466568359375,0.00668960693359375,1.0727378466796875
-0.3388612890625,0.02041466552734375,1.040050888671875
-0.3233000390625,0.02482629150390625,0.876861865234375
-0.26761994140625,0.01575794921875,0.7483259326171875
-0.10276794921875,-0.0219859619140625,0.7950215869140624
-0.140941640625,0.00423870361328125,0.9641090087890625
-0.2240970703125,-0.1195319140625,0.9609140429687499
-0.213885,-0.049926259765625,1.0742124462890625
-0.368524921875,-0.0376717431640625,1.015474228515625
-0.22944625,-0.01732924560546875,1.0201437939453124
-0.27345541015625,-0.052867343750000004,0.997779033203125
-0.3145468359375,-0.06977857666015624,1.1317218310546875
-0.28901666015625,-0.0803174609375,1.1427813281249999
-0.34688505859375,-0.03546593017578125,0.993846767578125
-0.28804408203125,-0.0808076416015625,0.8422087744140625
-0.25789416015625,-0.08007237060546875,0.8392595751953125
-0.206104375,-0.10164031982421876,0.9650920751953125
-0.2416034765625,-0.055073156738281254,1.069542880859375
-0.27394169921875,-0.014633251953124999,1.074458212890625
-0.263486484375,0.0608545703125,0.9609140429687499
-0.20804953125,0.0799716162109375,0.8717007666015625
-0.24962724609375,0.08119706787109375,0.8662939013671875
-0.24184662109375,0.03855135009765625,0.971236240234375
-0.279047734375,-0.0161037939453125,1.0149826953125
-0.356853984375,-0.03889719482421875,1.0818312109375
-0.33910443359375,-0.05409279541015625,1.0506188525390625
-0.34153587890625,-0.067572763671875,1.011541962890625
-0.27977716796875,-0.12418863037109375,1.002694365234375
-0.245980078125,-0.0729647509765625,1.02776255859375
-0.3096839453125,-0.09869923583984375,1.023338759765625
-0.2464663671875,-0.013652890625,0.947642646484375
-0.1832487890625,0.026541923828125,0.9129895556640625
-0.2474389453125,-0.032279755859375,1.0722463134765625
-0.27880458984375,-0.01781942626953125,1.216019775390625
-0.2425760546875,-0.01978014892578125,1.15752732421875
-0.21996361328125,-0.05458297607421875,1.0103131298828125
-0.376305546875,-0.008996174316406251,0.920116787109375
-0.2698082421875,-0.0621807763671875,0.893573994140625
-0.2814791796875,-0.0680629443359375,0.85867513671875
-0.20634751953125,-0.09575815185546875,0.8893959619140624
-0.1929745703125,-0.0935523388671875,0.9449392138671875
-0.1676875390625,-0.106787216796875,0.9768888720703125
-0.16793068359375,-0.03938737548828125,1.0034316650390624
-0.2022140625,-0.042328459472656246,1.04152548828125
-0.2177753125,0.04247279541015625,1.117713134765625
-0.144831953125,0.00766996826171875,1.101984072265625
-0.1686601171875,-0.02149578125,1.0778989453125
-0.2133987109375,0.0280124658203125,1.0511103857421875
-0.20245720703125,-0.03987755615234375,0.9891772021484375
-0.25157240234375,0.028502646484374998,0.9749227392578125
-0.247925234375,0.024581201171875,0.9695158740234375
-0.2688356640625,-0.07173929931640625,0.9972875
-0.290718671875,-0.04281864013671875,0.9795923046875
-0.25205869140625,-0.0710040283203125,0.9464138134765625
-0.18081734375,-0.1141399267578125,0.88816712890625
-0.16841697265625,-0.046740085449218746,0.901438525390625
-0.15139685546875,-0.0960032421875,0.9680412744140625
-0.1633109375,-0.11144393310546875,1.0255506591796875
-0.2065906640625,-0.09428760986328125,1.025304892578125
-0.22531279296875,-0.028358310546875,0.9768888720703125
-0.2805066015625,-0.08963089355468751,0.903404658203125
-0.21607330078125,-0.06536695068359374,0.86653966796875
-0.24525064453125,0.024091020507812498,0.859658203125
-0.23819945312500002,-0.0018885546875000003,0.8530225048828125
-0.12562353515625,-0.0464949951171875,0.8672769677734375
-0.1599069140625,-0.0004180126953125,0.8982435595703124
-0.18884111328125,-0.0724745703125,0.902913125
-0.15358515625,-0.02615249755859375,0.991880634765625
-0.2425760546875,-0.0121823486328125,0.999745166015625
-0.21899103515625,-0.12173772705078124,0.9577190771484375
-0.19808060546875,-0.02517213623046875,0.9007012255859375
-0.17084841796875,0.0074248779296875,0.8431918408203125
-0.18859796875,-0.0239466845703125,0.8498275390625
-0.247925234375,0.05668803466796875,0.8820229638671875
-0.181789921875,0.0446786083984375,0.8977520263671875
-0.28123603515625,-0.0082609033203125,0.9503460791015625
-0.2347954296875,0.04786478271484375,1.082322744140625
-0.277102578125,-0.05556333740234375,1.0343982568359376
-0.3111428125,0.0074248779296875,0.9520664453125
-0.2766162890625,0.0682072802734375,0.8761245654296875
-0.2921775390625,-0.02713285888671875,0.7955131201171874
-0.1988100390625,0.0280124658203125,0.8267254785156251
-0.253760703125,-0.046004814453125,0.860149736328125
-0.30506419921875,-0.0161037939453125,0.91077765625
-0.2581373046875,0.00178780029296875,0.8815314306640625
-0.28269490234375,-0.0621807763671875,0.831640810546875
-0.28123603515625,0.0025230712890624996,0.8417172412109375
-0.3388612890625,-0.0004180126953125,0.820335546875
-0.34639876953125,0.01894412353515625,0.8997181591796874
-0.35904228515625003,-0.01928996826171875,0.8520394384765625
-0.3437241796875,0.06796218994140625,0.8186151806640625
-0.3111428125,-0.0001729223632812504,0.778555224609375
-0.21023783203125002,-0.010221625976562499,0.860149736328125
-0.27029453125,-0.057278969726562504,0.9955671337890625
-0.3344846875,-0.1337471533203125,0.93928658203125
-0.30992708984375,-0.11291447509765624,0.7736398925781249
-0.26421591796875,-0.0229663232421875,0.5934929736328125
-0.1667149609375,0.008895419921875,0.5104238623046875
-0.14702025390625,0.06355056396484375,0.577026611328125
-0.23698373046875,0.111833359375,0.883743330078125
-0.3135742578125,0.0299731884765625,1.1612138232421876
-0.28707150390625,0.04345315673828125,1.3843698974609375
-0.423961875,0.06257020263671875,1.257308564453125
-0.4332013671875,-0.00948635498046875,1.0068723974609375
-0.2644590625,-0.0415931884765625,0.8171405810546875
-0.2561921484375,-0.04085791748046875,0.6854096826171875
-0.1569891796875,-0.044044091796875,0.6033236376953125
-0.08380267578125,-0.08840544189453126,0.7316138037109375
-0.189570546875,0.080461796875,0.8576920703124999
-0.228473671875,-0.00777072265625,0.92552365234375
-0.17133470703125,0.0270321044921875,1.05725455078125
-0.31722142578125,0.1466361865234375,1.1966042138671875
-0.32111173828125,0.03610044677734375,1.159001923828125
-0.23747001953125,-0.0371815625,1.0545511181640626
-0.2834243359375,-0.083258544921875,0.9926179345703126
-0.23357970703125,0.0309535498046875,1.1012467724609376
-0.34226531250000003,-0.04477936279296875,1.221426640625
-0.27199654296875,-0.04036773681640625,1.2823767578125
-0.2445212109375,-0.0582593310546875,1.2457575341796876
-0.26567478515625,0.07972652587890625,1.1919346484375
-0.16841697265625,-0.05262225341796875,1.074458212890625
-0.34396732421875,-0.114630107421875,1.0014655322265624
-0.23844259765625,-0.107767578125,0.974185439453125
-0.06775513671875,0.00227798095703125,1.0029401318359374
-0.10519939453125,-0.21095060791015624,1.0663479150390625
-0.14458880859375,-0.0866898095703125,1.2914701220703124
-0.48110083984375,0.04247279541015625,1.3298097119140624
-0.391866796875,0.02433611083984375,1.1189419677734376
-0.50954875,0.00816014892578125,0.859166669921875
-0.22579908203125,0.019679394531249998,0.7748687255859374
0.011753125,-0.09722869384765626,0.9183964208984375
-0.302389609375,-0.04379900146484375,1.1715360205078125
-0.29387955078125,0.07090327392578125,1.2541135986328125
-0.2153438671875,-0.1425704052734375,1.031203291015625
-0.20197091796875,0.0012976196289062499,0.897506259765625
-0.20051205078125,-0.09624833251953124,0.81640328125
-0.11687033203125,-0.240116357421875,0.9501003125
-0.24525064453125,0.02972809814453125,1.0958399072265625
-0.2065906640625,-0.0366913818359375,0.9501003125
-0.11200744140625,-0.18791211669921876,1.0481611865234375
-0.5119801953125,0.07457962890625,1.265173095703125
-0.4993366796875,0.1392834765625,1.0589749169921876
-0.26421591796875,0.040266982421875,0.850319072265625
-0.36390517578125,0.1191860693359375,0.8694888671875
-0.1920019921875,0.0037485229492187503,0.8908705615234375
-0.1988100390625,-0.11193411376953125,0.8898874951171875
-0.3291355078125,-0.05311243408203125,0.7947758203124999
-0.0932853125,-0.12860025634765626,0.7168678076171875
-0.03760521484375,-0.139139140625,0.8677685009765626
-0.29776986328125,-0.06585713134765625,1.1290183984375
-0.4011062890625,0.09835339111328124,1.15949345703125
-0.41691068359375,0.0535018603515625,1.0778989453125
-0.35272052734375,-0.0298288525390625,1.034152490234375
-0.42590703125,-0.0602200537109375,0.95108337890625
-0.3855450390625,-0.0670825830078125,0.7640549951171876
-0.19346085937500002,-0.10065995849609374,0.702367578125
-0.28512634765625,-0.0018885546875000003,0.712689775390625
-0.3835998828125,0.0172284912109375,0.8309035107421875
-0.317950859375,-0.09673851318359375,0.8849721630859375
-0.2425760546875,0.02727719482421875,0.8898874951171875
-0.236254296875,0.0711483642578125,0.8279543115234375
-0.21461443359375,-0.0308092138671875,0.78592822265625
-0.2800203125,0.05864875732421875,0.8019030517578125
-0.22190876953125,0.080461796875,0.86260740234375
-0.28464005859375,-0.00458454833984375,0.9616513427734374
-0.3135742578125,-0.0778665576171875,1.0751955126953125
-0.33618669921875,-0.0347306591796875,1.0230929931640624
-0.2873146484375,0.014777587890624999,0.912252255859375
-0.2620276171875,0.085363603515625,0.9120064892578125
-0.42274615234375,0.120656611328125,0.890624794921875
-0.2202067578125,0.101049384765625,0.909303056640625
-0.09134015625,0.057668395996093746,1.1120605029296875
-0.1628246484375,0.061834931640625,1.307936484375
-0.338375,-0.06487677001953125,1.3460303076171876
-0.2756437109375,-0.081297822265625,1.1518746923828125
-0.2406308984375,0.0378160791015625,1.0309575244140625
-0.2591098828125,-0.1352176953125,0.9414984814453125
-0.3057936328125,-0.0494360791015625,1.024321826171875
-0.27272597656249997,-0.07835673828125,1.0818312109375
-0.37946642578125,-0.1053166748046875,1.0334151904296875
-0.3096839453125,-0.09477779052734375,0.8884128955078126
-0.25205869140625,-0.13105115966796876,0.8594124365234375
-0.29363640625,-0.04036773681640625,0.9606682763671874
-0.2056180859375,-0.01879978759765625,1.0796193115234376
-0.17036212890625,-0.01634888427734375,1.111814736328125
-0.38457246093749997,-0.1523740185546875,1.141306728515625
-0.2931501171875,-0.06242586669921875,1.128526865234375
-0.329621796875,0.0221302978515625,0.96484630859375
-0.35393625,-0.00654527099609375,0.8928366943359375
-0.23698373046875,0.06257020263671875,0.9552614111328125
-0.34931650390625,0.0407571630859375,1.009084296875
-0.34396732421875,-0.01095689697265625,0.97467697265625
-0.27394169921875,0.0133070458984375,0.9321593505859375
-0.27929087890625,0.02335574951171875,0.9080742236328125
-0.34299474609375,0.11452935302734375,0.9272440185546875
-0.31333111328125,0.10080429443359375,0.9547698779296875
-0.3339983984375,-0.02517213623046875,0.9990078662109375
-0.32159802734375,-0.00654527099609375,1.0661021484375
-0.331566953125,-0.0016434643554687498,1.119679267578125
-0.3826273046875,-0.00948635498046875,1.08871267578125
-0.37703498046875,0.024091020507812498,1.0294829248046875
-0.2878009375,-0.14698203125,0.9196252539062499
-0.30652306640625,-0.09477779052734375,0.893573994140625
-0.37338781249999997,-0.091101435546875,0.852285205078125
-0.294608984375,-0.2058037109375,0.7920723876953125
-0.2367405859375,-0.08497417724609375,0.7512751318359375
-0.28950294921874997,-0.05115171142578125,0.796250419921875
-0.19175884765625,-0.13056097900390626,0.97271083984375
-0.315033125,-0.0567887890625,1.3126060498046874
-0.40062,-0.0803174609375,1.4546591455078124
-0.2814791796875,-0.02223105224609375,1.319241748046875
-0.3699837890625,0.00865032958984375,1.149171259765625
-0.34348103515625,0.0329142724609375,1.125577666015625
-0.29169125,-0.0259074072265625,1.12606919921875
-0.29242068359375,-0.09134652587890625,1.119187734375
-0.24038775390625,0.00816014892578125,1.0179318945312499
-0.1793584765625,-0.02370159423828125,0.968287041015625
-0.1404553515625,-0.0023787353515625003,1.149171259765625
-0.370470078125,0.08168724853515624,1.3420980419921875
-0.36293259765625,0.00987578125,1.323665546875
-0.38043900390625,0.004973974609375,1.1445016943359374
-0.3126016796875,0.0270321044921875,1.0339067236328126
-0.30311904296875003,-0.028358310546875,0.9714820068359376
-0.28123603515625,-0.01781942626953125,1.061678349609375
-0.27831830078124997,-0.08423890625,1.03366095703125
-0.3184371484375,-0.083258544921875,0.96288017578125
-0.28585578125,-0.09012107421875,0.927981318359375
-0.28634207031250003,-0.07222947998046875,0.8544971044921875
-0.26032560546875,-0.06340622802734375,0.84491220703125
-0.24476435546875,-0.0210056005859375,0.9115149560546875
-0.36050115234375,-0.07419020263671874,0.987948369140625
-0.35174794921875,-0.00409436767578125,1.0024485986328124
-0.20488865234375,-0.02664267822265625,0.9729566064453125
-0.29874244140625,-0.04379900146484375,1.058729150390625
-0.31333111328125,-0.0097314453125,1.10247560546875
-0.28998923828125,-0.046740085449218746,1.0108046630859375
-0.399647421875,-0.00703545166015625,0.9070911572265625
-0.19248828125,-0.104826494140625,0.8913620947265625
-0.335457265625,-0.19967645263671874,0.9980247998046875
-0.28755779296875,0.1172253466796875,1.1892312158203124
-0.28585578125,0.08609887451171874,1.1794005517578126
-0.4049966015625,0.021640117187500002,1.082322744140625
-0.33424154296874997,0.02752228515625,0.9675497412109375
-0.23917203125,-0.18350049072265626,0.854251337890625
-0.18203306640625,-0.153844560546875,0.76233462890625
-0.24233291015625,-0.00777072265625,0.7635634619140625
-0.1424005078125,-0.1513936572265625,0.722520439453125
-0.22701480468750002,0.030463369140625002,0.8078014501953125
-0.29242068359375,0.05668803466796875,0.900455458984375
-0.36050115234375,-0.03938737548828125,1.021372626953125
-0.35369310546875,0.0711483642578125,1.0457035205078125
-0.28658521484375,0.0368357177734375,0.871455
-0.17133470703125,-0.04821062744140625,0.7746229589843749
-0.15820490234375,-0.11634573974609375,0.8097675830078125
-0.113709453125,-0.0327699365234375,0.7709364599609375
-0.19273142578125,0.0221302978515625,0.7200627734375
-0.24306234375,-0.01830960693359375,0.71907970703125
-0.25594900390624997,0.10766682373046875,0.8648193017578125
-0.32159802734375,0.09394176513671874,0.94715111328125
-0.28998923828125,0.02335574951171875,0.8984893261718749
-0.21266927734375,-0.0523771630859375,0.7311222705078125
-0.14629082031250001,-0.037916833496093746,0.749554765625
-0.20245720703125,0.0701680029296875,0.8697346337890625
-0.31187224609374997,0.10178465576171875,0.963371708984375
-0.39600025390625,0.0809519775390625,1.0919076416015625
-0.446331171875,0.103010107421875,1.0294829248046875
-0.42760904296875,0.07090327392578125,0.8048522509765625
-0.1988100390625,-0.11585555908203125,0.6401886279296874
-0.096203046875,-0.03987755615234375,0.5568737500000001
-0.0072121484375,-0.13717841796875,0.5679332470703125
-0.002835546875000001,-0.11291447509765624,0.8721922998046875
-0.2104809765625,-0.1425704052734375,0.9992536328125
-0.3126016796875,-0.0690433056640625,1.228799638671875
-0.48061455078125,0.08511851318359374,1.3003177197265625
-0.47332021484375,0.10129447509765625,1.03759322265625
-0.40378087890625003,-0.014633251953124999,0.68270625
-0.2095083984375,0.080461796875,0.458567109375
-0.179844765625,0.10178465576171875,0.4248970849609375
-0.01231818359375,0.0505607763671875,0.4632366748046875
-0.10957599609375,0.10717664306640624,0.66402798828125
-0.2980130078125,0.11403917236328125,0.7837163232421875
-0.37071322265625,-0.0259074072265625,0.6886046484375
-0.25983931640625,0.14786163818359374,0.7082659765625
-0.15042427734375,0.04737460205078125,0.7679872607421875
-0.23941517578125,-0.0612004150390625,0.914709921875
-0.39940427734375,0.19050735595703125,0.9992536328125
-0.3072525,0.0946770361328125,0.86850580078125
-0.28026345703125,0.10399046875,0.84687833984375
-0.27418484375,0.13609730224609376,0.869980400390625
-0.33521412109375,0.0848734228515625,1.0186691943359376
-0.2678630859375,0.15472416748046874,1.0739666796875
-0.29533841796875,0.04639424072265625,0.94518498046875
-0.312115390625,-0.09183670654296874,0.8623616357421875
0.011023691406250001,-0.02223105224609375,0.9257694189453125
-0.14312994140625,0.12090170166015625,1.099034873046875
-0.37752126953125,0.15472416748046874,1.2241300732421876
-0.36876806640625,0.07678544189453125,1.339394609375
-0.37922328125,-0.04428918212890625,1.32268248046875
-0.4283384765625,-0.03840701416015625,1.1685868212890624
-0.32937865234375,0.023845930175781252,0.996795966796875
-0.30919765625,-0.0425735498046875,0.7453767333984375
-0.31138595703125,-0.059729873046875,0.683197783203125
-0.17668388671875,-0.042328459472656246,0.7532412646484374
-0.3028758984375,-0.00262382568359375,1.0211268603515624
-0.35417939453125,-0.05311243408203125,1.1223827001953124
-0.181789921875,-0.05164189208984375,1.0171945947265626
-0.1083602734375,0.08217742919921875,0.9188879541015624
-0.28391062499999997,0.026296833496093748,0.8849721630859375
-0.34883021484375,0.10717664306640624,1.1051790380859374
-0.44122513671875,0.08315779052734375,1.18112091796875
-0.42809533203125,0.014777587890624999,1.03366095703125
-0.269321953125,0.0780108935546875,0.8891501953125
-0.2746711328125,-0.0268877685546875,0.7168678076171875
-0.27418484375,0.01404231689453125,0.820335546875
-0.23844259765625,-0.1116890234375,1.0004824658203124
-0.20634751953125,-0.091101435546875,1.159984990234375
-0.33959072265625,-0.06438658935546875,1.2516559326171874
-0.32500205078125,0.06624655761718751,1.1803836181640626
-0.2221519140625,-0.07615092529296875,1.1292641650390625
-0.37606240234375,0.03928662109375,1.2624696630859376
-0.4351465234375,0.1191860693359375,1.3300554785156251
-0.25862359375,-0.05262225341796875,1.1784174853515625
-0.30919765625,0.10521592041015625,0.9835245703125
-0.13437673828125,-0.00507472900390625,0.817877880859375
-0.23114826171875,-0.128355166015625,0.83508154296875
-0.21996361328125,0.106931552734375,1.0250591259765625
-0.3242726171875,-0.012672529296875,1.048406953125
-0.38700390625000003,0.0858537841796875,1.0609410498046874
-0.21364185546875,-0.011201987304687501,1.031203291015625
-0.30798193359375,-0.1837455810546875,1.038084755859375
-0.15091056640625,-0.026397587890625,1.156052724609375
-0.296554140625,-0.0582593310546875,1.15359505859375
-0.2746711328125,0.1642826904296875,1.1553154248046875
-0.28853037109375,-0.11928682373046876,1.009084296875
-0.23260712890625002,-0.07909200927734375,1.079865078125
-0.1988100390625,-0.010221625976562499,0.95894791015625
-0.32597462890625,-0.23545964111328124,0.839996875
-0.222638203125,-0.09820905517578125,0.7434106005859376
-0.17303671874999998,-0.10188541015625,0.7227662060546876
-0.082586953125,-0.2347243701171875,0.749554765625
-0.26324333984375,-0.09796396484375,0.9245405859375
-0.213885,-0.04330882080078125,1.0309575244140625
-0.26761994140625,0.0005623486328125002,1.01203349609375
-0.39989056640625,0.104970830078125,0.9124980224609375
-0.2746711328125,0.1564397998046875,0.7586481298828125
-0.2279873828125,0.15374380615234376,0.67189251953125
-0.16185207031249998,0.07237381591796875,0.7065456103515625
-0.1637972265625,-0.02517213623046875,0.9218371533203125
-0.28950294921874997,0.016738310546875,1.07298361328125
-0.34250845703125,0.11894097900390625,1.1258234326171874
-0.378250703125,0.010856142578125,1.21061291015625
-0.42979734375,0.07850107421875,1.227816572265625
-0.27807515625,0.0142874072265625,0.9911433349609375
-0.24306234375,0.0191892138671875,0.8948028271484375
-0.25643529296875,0.0407571630859375,0.9223286865234375
-0.25886673828125,0.1280093212890625,0.933879716796875
-0.27515742187500003,0.032424091796875,0.8267254785156251
-0.20877896484375,0.02360083984375,0.8687515673828125
-0.3359435546875,-0.0190448779296875,0.9095488232421876
-0.30409162109375,-0.10115013916015625,0.896523193359375
-0.26154132812499997,-0.132276611328125,0.9459222802734375
-0.33326896484375,-0.1719812451171875,0.9026673583984375
-0.29776986328125,-0.16781470947265625,0.8778449316406249
-0.33715927734375,-0.196980458984375,0.7104778759765625
-0.269321953125,-0.24281235107421875,0.6760705517578125
-0.40378087890625003,-0.05703387939453125,0.7620888623046875
-0.356853984375,-0.00777072265625,0.7357918359375
-0.22361078125,-0.11757119140625,0.656654990234375
-0.1501811328125,0.1280093212890625,0.767741494140625
-0.067025703125,-0.023456503906250002,0.8780906982421874
-0.2843969140625,0.0819323388671875,1.0739666796875
-0.4594609765625,0.173596123046875,1.1877566162109374
-0.368524921875,0.01306195556640625,1.0582376171875
-0.37946642578125,0.16305723876953124,0.88030259765625
-0.32281375,0.146146005859375,0.7581565966796875
-0.13923962890625,0.0137972265625,0.76921609375
-0.190543125,0.1858506396484375,0.9292101513671875
-0.17692703125,0.11845079833984375,0.992863701171875
-0.34226531250000003,0.036345537109375,1.1926719482421875
-0.31673513671875,0.073599267578125,1.3278435791015626
-0.42906791015625,0.138303115234375,1.2703341943359374
-0.38821962890625,-0.0268877685546875,1.032677890625
-0.164283515625,-0.1817848583984375,1.0049062646484375
-0.386031328125,-0.0768861962890625,0.9400238818359374
-0.2736985546875,-0.17712814208984376,0.8195982470703125
-0.3578265625,-0.1004148681640625,0.93338818359375
-0.45532751953125,-0.046004814453125,0.8871840625
-0.2921775390625,-0.1494329345703125,0.77019916015625
-0.20026890625,-0.024436865234375,0.7593854296875
-0.20488865234375,-0.07124911865234375,0.6844266162109375
-0.09085386718749999,-0.0072805419921875,0.9284728515625
-0.335457265625,-0.008751083984375,1.275986826171875
-0.47137505859375,-0.02076051025390625,1.52126189453125
-0.50833302734375,0.0584036669921875,1.4856257373046875
-0.27005138671875,0.0162481298828125,1.211104443359375
-0.21510072265625,0.06796218994140625,1.061678349609375
-0.55258533203125,-0.0018885546875000003,1.129509931640625
-0.25497642578125,0.019679394531249998,1.108865537109375
-0.428824765625,-0.0729647509765625,1.0820769775390624
-0.1637972265625,0.1235976953125,1.1037044384765624
-0.12416466796875,-0.00262382568359375,0.9975332666015625
-0.15334201171875,0.08707923583984375,1.055779951171875
-0.39454138671875,-0.11242429443359375,0.9002096923828125
-0.35101851562499997,-0.19869609130859375,0.8485987060546875
-0.35661083984374997,-0.17418705810546875,0.8726838330078125
-0.3806821484375,-0.19183356201171875,0.9375662158203125
-0.1997826171875,-0.1915884716796875,1.028745625
-0.41204779296875,-0.08448399658203125,1.124594599609375
-0.30749564453125,-0.15310928955078124,0.9336339501953125
-0.24379177734375002,-0.03987755615234375,0.7257154052734375
-0.12951384765625001,0.09443194580078125,0.761843095703125
-0.25789416015625,0.13536203125,0.918150654296875
-0.168173828125,-0.025662316894531252,1.1037044384765624
-0.30360533203125,0.011346323242187501,1.176697119140625
-0.2882872265625,-0.09404251953125001,1.21454517578125
-0.3602580078125,-0.05482806640625,1.1290183984375
-0.48839517578125,0.0152677685546875,1.00220283203125
-0.4643238671875,0.0686974609375,0.8594124365234375
-0.35369310546875,-0.0661022216796875,0.859658203125
-0.2386857421875,0.03119864013671875,0.9832788037109375
-0.2338228515625,0.0044837939453125,0.938795048828125
-0.07748091796875001,-0.0268877685546875,0.909303056640625
-0.23260712890625002,0.1505576318359375,1.025304892578125
-0.3126016796875,0.1221271533203125,0.930930517578125
-0.24573693359375,-0.05311243408203125,0.8358188427734374
-0.16525609375,-0.0837487255859375,0.9267524853515625
-0.267376796875,-0.01291761962890625,1.2177401416015625
-0.49131291015625,-0.053847705078125,1.378717265625
-0.49471693359375,-0.03301502685546875,1.1735021533203125
-0.4536255078125,-0.06095532470703125,0.8498275390625
-0.38967849609375,-0.11732610107421874,0.6131543017578125
-0.27272597656249997,-0.118551552734375,0.552941484375
-0.214857578125,-0.01046671630859375,0.631586796875
-0.3339983984375,-0.1474722119140625,0.74267330078125
-0.36974064453125,-0.2131564208984375,0.7751144921875
-0.34421046875,-0.12516899169921875,0.67385865234375
-0.12416466796875,-0.1288453466796875,0.5748147119140625
-0.04344068359375,-0.09404251953125001,0.8891501953125
-0.501768125,0.11207844970703125,1.2442829345703126
-0.6612709375,0.06011929931640625,1.35414060546875
-0.417153828125,0.01208159423828125,1.0378389892578126
-0.25157240234375,0.04835496337890625,0.705808310546875
-0.131215859375,-0.0018885546875000003,0.669434853515625
-0.2104809765625,-0.03056412353515625,0.9262609521484375
-0.361716875,0.0294830078125,1.25681703125
-0.45168035156249997,0.021885207519531248,1.373310400390625
-0.444386015625,-0.03987755615234375,1.3524202392578124
-0.2532744140625,0.061834931640625,1.24600330078125
-0.279047734375,-0.10507158447265624,1.023338759765625
-0.39405509765625,-0.14624676025390626,0.8849721630859375
-0.268349375,0.0152677685546875,0.846386806640625
-0.38481560546875,-0.14624676025390626,0.718588173828125
-0.3096839453125,-0.01732924560546875,0.614383134765625
-0.29679728515625,-0.00654527099609375,0.4617620751953125
-0.10033650390625,-0.114630107421875,0.4484906787109375
-0.12610982421875,-0.22467566650390625,0.5942302734375
-0.3057936328125,-0.20800952392578126,0.8825144970703125
-0.41204779296875,-0.00507472900390625,1.1054248046875
-0.38384302734375,-0.1273748046875,1.2784444921875
-0.30117388671875,0.0172284912109375,1.3917428955078126
-0.29387955078125,0.1485969091796875,1.501109033203125
-0.337402421875,0.06011929931640625,1.5509996533203125
-0.51611365234375,0.016738310546875,1.3610220703125
-0.48547744140625,0.048109873046875,1.078390478515625
-0.34299474609375,-0.05213207275390625,0.7456225
-0.24427806640625,-0.0259074072265625,0.53328015625
-0.07310431640625001,-0.18521612304687501,0.5782554443359375
-0.0879361328125,-0.1415900439453125,0.802148818359375
-0.33278267578125,0.06011929931640625,1.0840431103515624
-0.50590158203125,0.2020266015625,1.4094380908203126
-0.61920693359375,0.15227326416015624,1.5608303173828124
-0.52875716796875,0.2652599072265625,1.278936025390625
-0.25789416015625,0.17727247802734375,1.19684998046875
-0.37995271484375,0.15276344482421875,1.2816394580078125
-0.282938046875,0.04345315673828125,1.35119140625
-0.28074974609375003,0.077520712890625,1.311377216796875
-0.30895451171875,-0.0082609033203125,1.1032129052734374
-0.27442798828125,-0.14722712158203125,1.0845346435546874
-0.25594900390624997,-0.051886982421875,1.1680952880859374
-0.18300564453125,-0.02860340087890625,1.36200513671875
-0.56620142578125,-0.11487519775390626,1.3027753857421875
-0.50881931640625,-0.163648173828125,1.182103984375
-0.46359443359375,-0.0646316796875,1.0088385302734375
-0.45192349609375,0.00399361328125,1.6792898193359376
-0.08088494140625,-0.13693332763671875,1.4821850048828125
0.01199626953125,-0.0097314453125,1.036118623046875
-0.39210994140625,-0.08938580322265625,0.8795652978515625
-0.49812095703125,-0.0582593310546875,0.7478343994140625
-0.4589746875,-0.00948635498046875,0.7173593408203125
-0.1788721875,-0.089140712890625,0.7768348583984375
-0.17327986328125,0.0530116796875,1.04349162109375
-0.36487775390625,0.01698340087890625,1.163917255859375
-0.2873146484375,0.0495804150390625,1.323665546875
-0.3797095703125,0.00865032958984375,1.08379734375
-0.18397822265625,0.201046240234375,0.9756600390625
-0.25692158203125,0.25325048095703123,0.869980400390625
0.008349101562499999,-0.0013983740234375002,0.840488408203125
-0.14410251953125,0.01453249755859375,0.9867195361328125
-0.36876806640625,0.030463369140625002,1.0520934521484375
-0.45581380859375,0.028502646484374998,1.1725190869140625
-0.52535314453125,-0.03938737548828125,0.9528037451171875
-0.34931650390625,0.019434304199218752,0.8087845166015625
-0.1871391015625,-0.06536695068359374,0.7539785644531249
-0.18081734375,-0.09012107421875,0.9559987109375
-0.3680386328125,-0.083258544921875,0.9616513427734374
-0.28366748046875,0.07629526123046874,0.89209939453125
-0.3962433984375,-0.087179990234375,0.80165728515625
-0.242089765625,0.0030132519531249997,0.88620099609375
-0.127325546875,-0.09379742919921875,0.7797840576171875
-0.25838044921875,-0.07026875732421875,0.8613785693359375
-0.3578265625,-0.07370002197265625,1.024813359375
-0.23163455078125,0.0035034326171875,1.1388490625
-0.43344451171875,0.15031254150390624,1.0461950537109375
-0.35806970703125,0.06600146728515625,0.917167587890625
-0.34542619140624997,0.03462990478515625,0.7517666650390625
-0.3184371484375,-0.0268877685546875,0.5944760400390625
-0.2542469921875,-0.1357078759765625,0.5155849609375
-0.1861665234375,-0.1587463671875,0.4814234033203125
-0.1774133203125,-0.08889562255859375,0.5463057861328124
-0.2347954296875,0.00717978759765625,0.647315859375
-0.2367405859375,0.0270321044921875,0.868997333984375
-0.2878009375,0.065756376953125,1.197341513671875
-0.568876015625,0.240260693359375,1.3352165771484374
-0.43052677734375,0.13217585693359374,1.0683140478515625
-0.1871391015625,0.02237538818359375,0.7114609423828124
-0.05316646484375,-0.0631611376953125,0.542619287109375
-0.08915185546875,-0.08791526123046875,0.5305767236328125
-0.310170234375,-0.0474753564453125,0.6151204345703125
-0.37168580078125,0.04149243408203125,0.817877880859375
-0.40256515625,0.012816865234374999,1.04152548828125
-0.32086859375,-0.004829638671875,1.0936280078125
-0.27613,0.0564429443359375,1.0565172509765626
-0.2036729296875,0.028502646484374998,0.967303974609375
-0.2591098828125,0.00178780029296875,0.9375662158203125
-0.33108066406250003,-0.01389798095703125,1.021372626953125
-0.368524921875,0.0848734228515625,1.1218911669921874
-0.26081189453125,0.034384814453125,1.02972869140625
-0.27637314453125,0.011346323242187501,0.90389619140625
-0.15528716796875,-0.087179990234375,0.8451579736328125
-0.271267109375,0.00766996826171875,0.8557259375
-0.28269490234375,-0.0063001806640625,0.95796484375
-0.321841171875,-0.025662316894531252,1.085271943359375
-0.403537734375,0.01575794921875,1.15359505859375
-0.39089421875,-0.01095689697265625,0.9992536328125
-0.203186640625,-0.01781942626953125,0.81345408203125
-0.23212083984375,-0.0768861962890625,0.7291561376953125
-0.23917203125,-0.020515419921875,0.8112421826171875
-0.203186640625,-0.06781785400390625,0.8903790283203125
-0.22823052734375,-0.06242586669921875,1.0014655322265624
-0.22677166015625,-0.0612004150390625,1.0702801806640625
-0.252788125,-0.0759058349609375,1.0540595849609375
-0.21193984375,-0.03448556884765625,1.0584833837890626
-0.31697828125,0.04712951171875,1.0228472265625
-0.23747001953125,0.04712951171875,0.9724650732421874
-0.23066197265625,-0.015368522949218751,0.9913891015625
-0.25983931640625,-0.0018885546875000003,1.021372626953125
-0.27613,-0.0817880029296875,1.04152548828125
-0.28658521484375,-0.02860340087890625,1.0235845263671874
-0.19637859375,-0.016593974609375,0.9245405859375
-0.2736985546875,-0.03105430419921875,0.9272440185546875
-0.22361078125,-0.04575972412109375,0.9877026025390625
-0.25497642578125,-0.04723026611328125,1.039067822265625
-0.302389609375,-0.03056412353515625,1.091661875
-0.1530988671875,0.0137972265625,1.0014655322265624
-0.20391607421875,0.01110123291015625,0.9724650732421874
-0.27248283203125,-0.00581,1.028745625
-0.23698373046875,-0.03129939453125,1.0579918505859376
-0.331566953125,-0.0043394580078125,1.02972869140625
-0.29047552734375,-0.0151234326171875,0.9690243408203125
-0.25303126953125,0.0059543359375,0.8874298291015625
-0.2532744140625,-0.0023787353515625003,0.83704767578125
-0.13413359375,0.0044837939453125,0.9501003125
-0.28464005859375,-0.079337099609375,0.978117705078125
-0.3301080859375,-0.15507001220703126,0.8943112939453125
-0.16647181640625,-0.0494360791015625,0.7908435546875
-0.1813036328125,-0.128355166015625,0.7340714697265625
-0.16185207031249998,-0.12124754638671875,0.7360376025390625
-0.17911533203125,0.02874773681640625,0.787402822265625
-0.25303126953125,-0.0229663232421875,0.873912666015625
-0.3077387890625,0.03413972412109375,1.0584833837890626
-0.13000013671875,0.030463369140625002,1.1204165673828126
-0.308225078125,0.07090327392578125,1.1612138232421876
-0.3344846875,0.22629054443359375,1.202256845703125
-0.30992708984375,0.08217742919921875,1.08674654296875
-0.42931105468749997,-0.05752406005859375,0.9985163330078125
-0.33521412109375,0.05913893798828125,0.9847534033203125
-0.3028758984375,-0.12222790771484375,0.835573076171875
-0.16987583984375,-0.16879507080078124,0.6996641455078125
-0.17473873046875,-0.130315888671875,0.6844266162109375
-0.12708240234375,-0.1195319140625,0.801165751953125
-0.19613544921875,-0.0798272802734375,0.9798380712890625
-0.30117388671875,0.0123266845703125,1.2221639404296876
-0.37606240234375,0.0054641552734375,1.3819122314453125
-0.32500205078125,0.0829127001953125,1.3420980419921875
-0.49131291015625,0.12384278564453124,1.270088427734375
-0.34810078125,0.05031568603515625,1.092153408203125
-0.3476144921875,0.09737302978515625,1.106899404296875
-0.41423609375,-0.03840701416015625,1.05725455078125
-0.2318776953125,-0.14428603759765624,0.9739396728515625
-0.13948277343749999,-0.13595296630859374,0.797233486328125
-0.15285572265625,-0.18742193603515625,0.6564092236328125
-0.09450103515625,-0.19722554931640626,0.637976728515625
-0.12854126953125,-0.2347243701171875,0.7448852001953125
-0.3344846875,-0.18791211669921876,0.8579378369140624
-0.3456693359375,-0.02860340087890625,0.902421591796875
-0.401592578125,-0.05360261474609375,0.9493630126953125
-0.42177357421875,-0.10727739746093751,0.8368019091796874
-0.19637859375,0.079481435546875,0.8717007666015625
-0.2800203125,0.01649322021484375,0.9680412744140625
-0.240144609375,0.1721255810546875,1.1602307568359376
-0.1171134765625,0.179478291015625,1.219952041015625
-0.1355924609375,0.1348718505859375,1.4128788232421874
-0.41812640624999997,0.0280124658203125,1.5377282568359374
-0.12562353515625,0.04835496337890625,1.4187772216796875
-0.19613544921875,0.0250713818359375,1.1759598193359375
-0.3865176171875,-0.030073942871093752,1.1587561572265626
-0.38967849609375,-0.07566074462890625,1.1646545556640624
-0.30871136718750003,-0.085219267578125,1.003677431640625
-0.3262177734375,-0.04870080810546875,0.868014267578125
-0.31187224609374997,-0.0719843896484375,0.8485987060546875
-0.2114535546875,-0.01291761962890625,1.01596576171875
-0.3476144921875,-0.046740085449218746,1.1685868212890624
-0.14191421875,-0.0817880029296875,1.32071634765625
-0.3038484765625,-0.013652890625,1.275003759765625
-0.11881548828124999,-0.155805283203125,1.1941465478515625
-0.24330548828125,-0.06732767333984375,1.210121376953125
-0.27005138671875,-0.048455717773437504,1.547313154296875
-0.46505330078125,-0.04379900146484375,1.6045767724609374
-0.5849235546875,-0.01953505859375,1.3858444970703125
-0.32257060546875,-0.08497417724609375,0.9257694189453125
-0.20051205078125,-0.21928367919921876,0.54409388671875
-0.10179537109375,-0.19526482666015624,0.4632366748046875
-0.045628984375,-0.19379428466796875,0.601603271484375
-0.02715,-0.18987283935546875,0.8304119775390625
-0.0782103515625,-0.0999246875,1.1390948291015626
-0.3184371484375,0.11649007568359375,1.3411149755859375
-0.56376998046875,0.11894097900390625,1.4040312255859375
-0.3777644140625,0.157910341796875,1.2762325927734375
-0.39478453125,0.22187891845703125,1.1798920849609376
-0.323786328125,-0.0254172265625,1.1366371630859375
-0.32475890625,0.03315936279296875,0.9601767431640625
-0.2338228515625,-0.00850599365234375,0.73480876953125
-0.23114826171875,-0.08546435791015625,0.6627991552734375
-0.08234380859375,-0.036201201171875,0.714655908203125
-0.1803310546875,0.09590248779296875,1.0865007763671874
-0.46748474609375,0.12163697265625,1.4330316845703126
-0.5751977734375,0.17433139404296874,1.4121415234375
-0.49277177734375,0.0740894482421875,1.0334151904296875
-0.370470078125,-0.047965537109375,0.8112421826171875
-0.30166017578125,-0.1268846240234375,0.6932742138671875
-0.335457265625,-0.0023787353515625003,0.6328156298828125
-0.30627992187499997,-0.024436865234375,0.6097135693359375
-0.228473671875,-0.1131595654296875,0.7040879443359375
-0.29631099609375,-0.15556019287109374,0.7200627734375
-0.13486302734375,-0.1906081103515625,0.6279002978515625
-0.06021765625,-0.2239403955078125,0.676316318359375
-0.14945169921875,-0.15163874755859374,0.997779033203125
-0.3262177734375,-0.06585713134765625,1.1474508935546874
-0.4390368359375,-0.010711806640625,1.0346440234375
-0.2591098828125,0.04002189208984375,0.8672769677734375
-0.24816837890625,-0.0121823486328125,0.694011513671875
-0.2338228515625,0.04982550537109375,0.6256883984375
-0.17230728515625,0.05227640869140625,0.6335529296875
-0.1180860546875,0.0525214990234375,0.69351998046875
-0.10544253906250001,-0.00654527099609375,0.7193254736328125
-0.060947089843749996,0.03561026611328125,0.891607861328125
-0.23917203125,0.02727719482421875,1.0122792626953125
-0.2552195703125,-0.030319033203124998,1.07298361328125
-0.23066197265625,0.04443351806640625,0.8392595751953125
-0.292663828125,-0.046004814453125,0.69548611328125
-0.28415376953125,-0.0268877685546875,0.7119524755859374
-0.29533841796875,-0.07443529296875,0.7812586572265625
-0.33983386718749997,0.067717099609375,0.8997181591796874
-0.31308796875,0.0103659619140625,0.9395323486328125
-0.24087404296875,-0.10016977783203125,0.9950756005859375
-0.21947732421875,0.07580508056640625,0.8458952734375
-0.1851939453125,0.053992041015625,0.7001556787109375
-0.0480604296875,0.06404074462890624,0.696960712890625
-0.24865466796875,0.03953171142578125,0.7905977880859375
-0.222638203125,0.04688442138671875,0.9749227392578125
-0.41618125,-0.0425735498046875,1.116730068359375
-0.40864376953125,0.0162481298828125,1.04349162109375
-0.4458448828125,-0.03693647216796875,0.8368019091796874
-0.407428046875,-0.05164189208984375,0.6559176904296875
-0.39745912109375,-0.08742508056640624,0.50870349609375
-0.15528716796875,-0.11291447509765624,0.462499375
-0.20342978515625,-0.02664267822265625,0.49616939941406246
-0.28609892578125,-0.0945327001953125,0.5443396533203125
-0.21023783203125002,-0.06438658935546875,0.6844266162109375
-0.2503566796875,-0.01879978759765625,0.869980400390625
-0.3267040625,0.14295983154296876,1.049881552734375
-0.3262177734375,0.17335103271484376,1.1486797265625
-0.39478453125,0.11967625,1.179646318359375
-0.28172232421875,0.146146005859375,1.01399962890625
-0.34250845703125,0.012816865234374999,0.778555224609375
-0.2318776953125,-0.04183827880859375,0.8731753662109375
-0.23406599609375,-0.1038461328125,0.9872110693359375
-0.3874901953125,-0.0018885546875000003,1.0103131298828125
-0.3252451953125,-0.04183827880859375,0.9999909326171875
-0.197351171875,-0.07124911865234375,1.078390478515625
-0.18008791015625,-0.053847705078125,1.1617053564453126
-0.21218298828125,-0.00850599365234375,1.2167570751953125
-0.44292714843750003,-0.07958218994140626,1.1390948291015626
-0.29533841796875,-0.028358310546875,1.042017021484375
-0.32159802734375,-0.040122646484374996,0.8245135791015625
-0.27394169921875,-0.06291604736328126,0.7291561376953125
-0.1628246484375,-0.091101435546875,0.765775361328125
-0.3009307421875,0.04247279541015625,0.9088115234375
-0.34348103515625,0.021640117187500002,0.812471015625
-0.23114826171875,0.09982393310546875,0.8549886376953125
-0.31284482421875,0.032424091796875,0.9405154150390624
-0.23455228515625,-0.093062158203125,0.99827056640625
-0.2153438671875,-0.00409436767578125,1.0896957421875
-0.31965287109375,-0.065612041015625,1.1204165673828126
-0.2921775390625,-0.0915916162109375,1.0756870458984376
-0.33813185546875,0.03144373046875,1.025304892578125
-0.29971501953125,0.026051743164062502,1.07101748046875
-0.33618669921875,-0.05899460205078125,1.167849521484375
-0.26518849609375,0.00227798095703125,1.2329776708984375
-0.34056330078125,0.057668395996093746,1.1970957470703125
-0.30360533203125,-0.00507472900390625,1.139340595703125
-0.2532744140625,0.01110123291015625,1.13983212890625
-0.29436583984375,-0.08203309326171875,1.0879753759765625
-0.29339326171875,-0.03742665283203125,1.1676037548828124
-0.28074974609375003,-0.0396324658203125,1.1499085595703125
-0.3427516015625,-0.122472998046875,1.003677431640625
-0.3106565234375,-0.0376717431640625,1.0014655322265624
-0.2600824609375,-0.08595453857421875,0.9090572900390625
-0.32889236328125,-0.024436865234375,0.983033037109375
-0.310170234375,-0.079337099609375,0.993846767578125
-0.30555048828125,-0.020515419921875,0.9837703369140625
-0.3057936328125,0.053992041015625,1.07298361328125
-0.3719289453125,0.0642858349609375,1.073475146484375
-0.269321953125,0.0044837939453125,1.1056705712890624
-0.32111173828125,0.03708080810546875,1.1172216015625
-0.380195859375,-0.02149578125,1.0766701123046876
-0.26154132812499997,-0.04330882080078125,0.988931435546875
-0.22774423828125,0.05668803466796875,0.9820499707031249
-0.3145468359375,-0.00262382568359375,1.0378389892578126
-0.29582470703125,0.04590406005859375,1.1263149658203124
-0.34250845703125,-0.0016434643554687498,1.0938737744140625
-0.23455228515625,0.038306259765625,1.0973145068359376
-0.28220861328125,0.0030132519531249997,0.970253173828125
-0.25862359375,-0.028113220214843748,0.9282270849609375
-0.21899103515625,0.0289928271484375,0.9380577490234375
-0.24330548828125,-0.0371815625,1.033169423828125
-0.26275705078125,-0.02517213623046875,1.07101748046875
-0.282938046875,0.0008074389648437498,1.0402966552734374
-0.23260712890625002,0.016738310546875,0.9665666748046875
-0.1783858984375,-0.07026875732421875,0.9513291455078126
-0.2027003515625,0.0221302978515625,1.0245675927734375
-0.2474389453125,0.00717978759765625,1.0299744580078125
-0.2221519140625,0.0407571630859375,1.0260421923828125
-0.280992890625,0.0133070458984375,0.9815584374999999
-0.1453182421875,-0.02272123291015625,0.9611598095703124
-0.31235853515625,0.021885207519531248,0.9088115234375
-0.23528171875,-0.05458297607421875,0.9228202197265625
-0.22920310546875,-0.0210056005859375,0.9638632421875
-0.30506419921875,-0.05017135009765625,0.9744312060546875
-0.10519939453125,-0.0406128271484375,0.9478884130859375
-0.17522501953125,7.216796875000007e-05,0.9351085498046875
-0.16598552734375,0.026051743164062502,1.0560257177734376
-0.2503566796875,0.0003172583007812497,1.1248403662109374
-0.16744439453124998,-0.04968116943359375,1.16342572265625
-0.25473328125,0.00963069091796875,1.109848603515625
-0.21558701171875,0.05031568603515625,0.9886856689453125
-0.1511537109375,-0.06242586669921875,0.908319990234375
-0.2231244921875,-0.04477936279296875,0.9611598095703124
-0.21899103515625,0.01110123291015625,1.0865007763671874
-0.2022140625,0.00791505859375,1.061678349609375
-0.16744439453124998,0.010611052246093749,0.987948369140625
-0.159420625,0.02531647216796875,0.96288017578125
-0.159420625,-0.0366913818359375,0.9449392138671875
-0.23066197265625,-0.01732924560546875,0.9183964208984375
-0.213885,0.071638544921875,0.926015185546875
-0.24719580078125,-0.020515419921875,0.92945591796875
-0.20197091796875,-0.042083369140625,0.86850580078125
-0.21218298828125,-0.0006631030273437505,0.834590009765625
-0.30117388671875,0.01404231689453125,0.8436833740234375
-0.32086859375,-0.04772044677734375,0.862115869140625
-0.30068759765624997,0.05570767333984375,0.93142205078125
-0.26154132812499997,0.05472731201171875,0.9105318896484375
-0.222638203125,-0.010711806640625,0.8210728466796875
-0.159420625,0.110852998046875,0.8898874951171875
-0.2795340234375,0.023845930175781252,0.9419900146484375
-0.16355408203125,-0.0053198193359375,1.0130165625
-0.28585578125,0.0584036669921875,1.016948828125
-0.32694720703125,0.0250713818359375,1.0334151904296875
-0.2882872265625,-0.03399538818359375,0.9365831494140625
-0.273212265625,0.0008074389648437498,0.904387724609375
-0.2260422265625,0.08413815185546875,0.985490703125
-0.27783201171875,-0.00801581298828125,0.98254150390625
-0.17765646484375,0.08805959716796875,1.005643564453125
-0.2240970703125,-0.00948635498046875,1.00515203125
-0.29776986328125,-0.00311400634765625,1.1172216015625
-0.232363984375,0.00619942626953125,0.9906518017578125
-0.2240970703125,0.0059543359375,0.9198710205078124
-0.183735078125,0.01796376220703125,1.016948828125
-0.21121041015625,-0.067572763671875,1.0267794921875
-0.23819945312500002,0.05374695068359375,1.0503730859375
-0.20391607421875,0.008405239257812499,0.9768888720703125
-0.2795340234375,0.0003172583007812497,0.9346170166015625
-0.18227621093750002,0.083402880859375,0.9820499707031249
-0.34591248046875,-0.01561361328125,1.0896957421875
-0.2454937890625,0.042227705078125,1.1577730908203125
-0.32597462890625,0.03512008544921875,1.058729150390625
-0.21218298828125,-0.065612041015625,0.8812856640625
-0.12270580078125,-0.00948635498046875,0.9513291455078126
-0.28755779296875,-0.03301502685546875,1.0643817822265624
-0.207076953125,-0.05360261474609375,1.0461950537109375
-0.26859251953125,0.03168882080078125,0.981066904296875
-0.31478998046875,-0.02125069091796875,0.9405154150390624
-0.1944334375,-0.01634888427734375,0.980083837890625
-0.16793068359375,-0.027868129882812502,0.980083837890625
-0.32257060546875,0.09026541015625,1.0383305224609374
-0.28269490234375,0.0201695751953125,0.9508376123046876
-0.2133987109375,0.05570767333984375,0.9284728515625
-0.2484115234375,0.00227798095703125,0.916184521484375
-0.3057936328125,-0.0006631030273437505,0.94518498046875
-0.2843969140625,-0.0724745703125,0.907336923828125
-0.23503857421875,-0.03938737548828125,0.828200078125
-0.187625390625,0.02433611083984375,0.831640810546875
-0.30871136718750003,-0.02909358154296875,0.9031588916015625
-0.3028758984375,0.0123266845703125,0.9301932177734376
-0.2347954296875,0.07261890625,0.91077765625
-0.30895451171875,-0.01781942626953125,0.8655566015625
-0.21072412109375,0.0701680029296875,0.92945591796875
-0.35174794921875,-0.00458454833984375,0.97664310546875
-0.337402421875,0.0868341455078125,1.0324321240234375
-0.2955815625,0.015022678222656249,0.9562444775390625
-0.3592854296875,-0.01634888427734375,0.9166760546875
-0.288773515625,-0.0249270458984375,0.8869382958984375
-0.25886673828125,-0.01291761962890625,0.916184521484375
-0.38870591796875,-0.0033590966796874996,0.9242948193359375
-0.19808060546875,-0.0494360791015625,0.951574912109375
-0.35952857421875,-0.0161037939453125,0.8943112939453125
-0.24938410156250002,-0.068553125,0.8820229638671875
-0.23698373046875,0.04002189208984375,0.8805483642578125
-0.37557611328125,-0.01046671630859375,0.8898874951171875
-0.228473671875,0.00717978759765625,0.872929599609375
-0.352963671875,0.04639424072265625,0.860149736328125
-0.247925234375,0.00865032958984375,0.9582106103515625
-0.218747890625,-0.0092412646484375,0.9675497412109375
-0.29971501953125,0.069677822265625,1.01596576171875
-0.28123603515625,0.05227640869140625,1.0014655322265624
-0.2445212109375,0.0294830078125,0.999745166015625
-0.2756437109375,0.09051050048828126,0.99237216796875
-0.26056875,-0.016593974609375,0.9945840673828125
-0.26470220703125,0.06747200927734374,1.005643564453125
-0.22093619140625,0.02727719482421875,0.909303056640625
-0.22920310546875,-0.04085791748046875,0.8923451611328125
-0.21583015625000002,0.06257020263671875,0.954032578125
-0.284883203125,-0.0013983740234375002,0.991880634765625
-0.29922873046875,-0.0023787353515625003,0.9611598095703124
-0.21364185546875,0.0025230712890624996,0.875387265625
-0.22531279296875,-0.02737794921875,0.831640810546875
-0.26324333984375,0.0270321044921875,0.9547698779296875
-0.27199654296875,0.0059543359375,0.988931435546875
-0.24865466796875,-0.02076051025390625,1.077407412109375
-0.27613,0.0505607763671875,1.0270252587890625
-0.21655958984375,-0.05899460205078125,0.927981318359375
-0.26761994140625,0.013552136230468751,0.923065986328125
-0.2133987109375,0.0373258984375,0.979100771484375
-0.37922328125,-0.07026875732421875,1.0280083251953125
-0.24476435546875,0.01992448486328125,1.06118681640625
-0.314060546875,-0.09036616455078125,0.9183964208984375
-0.31576255859375,-0.03889719482421875,0.8672769677734375
-0.19856689453125,-0.0268877685546875,0.87931953125
-0.4200715625,-0.02762303955078125,0.9009469921875
-0.26178447265625,0.05031568603515625,1.0174403613281249
-0.32694720703125,-0.013652890625,1.0181776611328126
-0.2785614453125,0.0294830078125,1.0353813232421876
-0.271267109375,0.099088662109375,1.0353813232421876
-0.41982841796875,-0.02958376220703125,1.0503730859375
-0.24962724609375,0.0093856005859375,0.991880634765625
-0.2347954296875,0.008405239257812499,0.8628531689453125
-0.34980279296875,0.00766996826171875,0.8136998486328125
-0.32743349609375,-0.03693647216796875,0.9021758251953125
-0.3096839453125,0.13560712158203125,1.00613509765625
-0.2688356640625,0.0691876416015625,1.0334151904296875
-0.3048210546875,0.1436951025390625,1.0432458544921874
-0.25449013671875,0.028257556152343752,1.016948828125
-0.36876806640625,0.0819323388671875,1.0368559228515626
-0.2921775390625,0.07531489990234375,0.9906518017578125
-0.4088869140625,-0.0082609033203125,0.9847534033203125
-0.24865466796875,0.0936966748046875,0.9795923046875
-0.28609892578125,-0.0006631030273437505,0.953541044921875
-0.26056875,0.13511694091796875,1.1739936865234375
-0.38627447265625,0.07972652587890625,1.1919346484375
-0.34980279296875,0.11747043701171875,1.180629384765625
-0.224583359375,0.03217900146484375,1.0818312109375
-0.207076953125,0.053992041015625,1.06708521484375
-0.2445212109375,0.15668489013671874,1.131476064453125
-0.300444453125,-0.0974737841796875,1.0771616455078126
-0.28609892578125,0.04541387939453125,1.159001923828125
-0.30020130859375,0.09737302978515625,1.220935107421875
-0.3203823046875,-0.0200252392578125,1.1258234326171874
-0.26081189453125,0.13536203125,1.09067880859375
-0.2960678515625,0.13413657958984376,1.0339067236328126
-0.27199654296875,-0.0268877685546875,1.121645400390625
-0.1550440234375,0.09541230712890625,1.2162655419921875
-0.27613,0.05913893798828125,1.132459130859375
-0.2878009375,0.046149150390625,0.9724650732421874
-0.18689595703125,-0.06193568603515625,0.79379275390625
-0.1511537109375,0.02335574951171875,0.791335087890625
-0.21801845703125,0.10374537841796876,1.041033955078125
-0.2775888671875,-0.00409436767578125,1.196358447265625
-0.3865176171875,0.20790876953125,1.258291630859375
-0.3111428125,0.2819260498046875,1.18898544921875
-0.298499296875,0.25913264892578125,1.1238572998046874
-0.30117388671875,0.22089855712890624,1.066593681640625
-0.31916658203125,0.07188363525390624,1.025304892578125
-0.29533841796875,0.0584036669921875,1.14376439453125
-0.2688356640625,-0.02713285888671875,1.18701931640625
-0.27783201171875,0.00668960693359375,1.1233657666015624
-0.28026345703125,-0.05703387939453125,1.0592206835937499
-0.32402947265625,-0.00458454833984375,0.97369390625
-0.2255559375,0.01306195556640625,0.832623876953125
-0.20099833984375,0.00178780029296875,0.782487490234375
-0.2513292578125,-0.0190448779296875,0.9245405859375
-0.3145468359375,0.01012087158203125,1.17325638671875
-0.39210994140625,0.0162481298828125,1.2310115380859374
-0.27807515625,0.03512008544921875,1.180629384765625
-0.2396583203125,-0.01781942626953125,1.1685868212890624
-0.2552195703125,0.0348749951171875,1.0742124462890625
-0.339347578125,0.03364954345703125,1.00220283203125
-0.32889236328125,0.0731090869140625,0.977134638671875
-0.30117388671875,0.0642858349609375,0.9100403564453124
-0.20877896484375,0.01894412353515625,0.81935248046875
-0.240144609375,-0.0011532836914062497,0.7711822265625
-0.2435486328125,-0.01953505859375,0.7161305078125
-0.24306234375,0.02580665283203125,0.6079932031249999
-0.21972046875,0.01992448486328125,0.5163222607421875
-0.18057419921875,0.0137972265625,0.4765080712890625
-0.12708240234375,0.0887948681640625,0.5453227197265624
-0.25473328125,0.14884199951171875,0.7296476708984375
-0.33764556640625,0.16844922607421875,0.97074470703125
-0.34348103515625,0.20325205322265624,1.030220224609375
-0.25254498046875,0.2020266015625,0.9891772021484375
-0.19662173828125,0.14590091552734374,1.01399962890625
-0.22944625,0.04296297607421875,0.9424815478515625
-0.20391607421875,-0.120512275390625,1.0034316650390624
-0.2644590625,-0.008996174316406251,1.095594140625
-0.3694975,-0.1102184814453125,0.9709904736328125
-0.1365650390625,-0.02076051025390625,0.8662939013671875
-0.299471875,0.18168410400390625,0.89799779296875
-0.347128203125,0.062080021972656246,0.8495817724609375
-0.15236943359375,0.1079119140625,0.962388642578125
-0.20026890625,0.10815700439453126,1.092153408203125
-0.422989296875,0.14541073486328124,1.16244265625
-0.35709712890625,0.1946738916015625,1.11427240234375
-0.35661083984374997,0.06355056396484375,0.94223578125
-0.2416034765625,-0.0425735498046875,0.6972064794921875
-0.11589775390625,-0.03154448486328125,0.576535078125
-0.1103054296875,-0.0817880029296875,0.659604189453125
-0.31308796875,0.026296833496093748,0.851302138671875
-0.28318119140625,0.0309535498046875,0.9390408154296875
-0.2255559375,0.01012087158203125,0.9488714794921875
-0.3009307421875,0.10864718505859375,0.8923451611328125
-0.31333111328125,0.0686974609375,0.756927763671875
-0.21607330078125,0.05105095703125,0.7829790234375
-0.2435486328125,0.15864561279296874,0.92355751953125
-0.3349709765625,0.1044806494140625,0.9719735400390626
-0.22579908203125,0.14492055419921876,0.9857364697265625
-0.3505322265625,0.182419375,0.910286123046875
-0.242089765625,0.1936935302734375,0.9208540869140625
-0.32548833984375003,0.182419375,0.9469053466796875
-0.09985021484375001,0.1780077490234375,0.9537868115234375
-0.20926525390625,0.2338883447265625,0.9611598095703124
-0.30141703125,0.08953013916015624,0.916184521484375
-0.04878986328125,0.11698025634765626,0.8903790283203125
-0.34056330078125,0.128499501953125,0.985490703125
-0.34032015625,0.0574233056640625,1.0643817822265624
-0.3427516015625,0.0711483642578125,1.0368559228515626
-0.312115390625,0.08658905517578125,0.9601767431640625
-0.30457791015625,0.19442880126953124,1.082322744140625
-0.18470765625,0.140263837890625,1.1489254931640625
-0.21121041015625,0.26280900390625,1.229782705078125
-0.312115390625,0.18217428466796876,1.2000449462890626
-0.2639727734375,0.13658748291015624,1.229291171875
-0.1968648828125,0.1554594384765625,1.33644541015625
-0.31430369140625003,0.12923477294921876,1.3475049072265626
-0.3320532421875,0.0515411376953125,1.0122792626953125
-0.1297569921875,0.06698182861328125,0.8038691845703125
-0.1997826171875,0.04320806640625,0.6878673486328125
-0.22434021484375,-0.08423890625,0.7035964111328125
-0.22093619140625,0.08707923583984375,0.847369873046875
-0.28585578125,0.1917328076171875,0.9913891015625
-0.32864921874999997,0.0417375244140625,1.06118681640625
-0.22434021484375,0.1319307666015625,1.109848603515625
-0.299471875,0.011346323242187501,1.0348897900390626
-0.2955815625,0.06011929931640625,0.9822957373046874
-0.14507509765624998,0.11305881103515625,0.9641090087890625
-0.33910443359375,0.1549692578125,1.0997721728515626
-0.170118984375,0.12825441162109374,1.11230626953125
-0.28318119140625,0.232417802734375,0.998762099609375
-0.21169669921875,0.05889384765625,0.9095488232421876
-0.26227076171875,0.02752228515625,0.841471474609375
-0.2678630859375,0.1554594384765625,0.8102591162109375
-0.30895451171875,0.071638544921875,0.8171405810546875
-0.1988100390625,0.1593808837890625,0.97860923828125
-0.34348103515625,0.17090012939453125,1.13393373046875
-0.26640421875,0.09296140380859375,1.31973328125
-0.39745912109375,0.16354741943359374,1.2629611962890626
-0.31868029296875,0.1446754638671875,0.9945840673828125
-0.12221951171875,0.11305881103515625,0.9191337207031249
-0.28172232421875,0.2250650927734375,1.0702801806640625
-0.30627992187499997,0.02776737548828125,1.043000087890625
-0.19710802734375,0.00668960693359375,0.9301932177734376
-0.22385392578125,0.00399361328125,0.8242678125
-0.22725794921875,-0.00703545166015625,0.8269712451171874
-0.3417790234375,-0.05801424072265625,0.81738634765625
-0.19346085937500002,-0.0366913818359375,0.6962234130859375
-0.22385392578125,0.00717978759765625,0.6564092236328125
-0.37946642578125,-0.0974737841796875,0.7635634619140625
-0.2488978125,-0.0817880029296875,0.866048134765625
-0.2722396875,0.0887948681640625,0.9599309765625
-0.33813185546875,-0.00997653564453125,1.0673309814453125
-0.15723232421875,-0.0175743359375,1.1523662255859375
-0.28269490234375,0.15570452880859376,1.2290454052734374
-0.44268400390625,0.24393704833984375,1.1921804150390625
-0.22579908203125,0.26673044921875,1.07691587890625
-0.28950294921874997,0.20325205322265624,1.06708521484375
-0.338375,0.13854820556640626,1.1368829296875
-0.21072412109375,0.17531175537109375,1.0511103857421875
-0.2445212109375,0.03413972412109375,0.94911724609375
-0.3690112109375,0.04933532470703125,0.9877026025390625
-0.36876806640625,-0.0151234326171875,0.986965302734375
-0.31284482421875,-0.1131595654296875,0.9822957373046874
-0.36341888671875,0.021885207519531248,0.9395323486328125
-0.2610550390625,-0.05850442138671875,0.762826162109375
-0.06751199218750001,-0.0092412646484375,0.715638974609375
-0.2289599609375,0.059874208984374996,0.7655295947265625
-0.22142248046875002,0.110852998046875,0.8365561425781249
-0.1501811328125,0.1784979296875,0.874895732421875
-0.27394169921875,0.13217585693359374,0.9097945898437501
-0.31138595703125,0.07678544189453125,1.0550426513671876
-0.28658521484375,0.05913893798828125,1.032186357421875
-0.290718671875,0.07629526123046874,0.8186151806640625
-0.29533841796875,-0.0053198193359375,0.6886046484375
-0.26616107421875,0.0486000537109375,0.6431378271484375
-0.189570546875,-0.013407800292968751,0.61979
-0.16695810546875,0.14099910888671874,0.8136998486328125
-0.33181009765625,0.26501481689453127,1.1848074169921876
-0.3189234375,0.13560712158203125,1.335953876953125
-0.21193984375,0.31501324462890623,1.3352165771484374
-0.30846822265625,0.12237224365234375,1.2705799609375
-0.1866528125,0.11452935302734375,1.2664019287109376
-0.1997826171875,0.21942801513671875,1.2241300732421876
-0.33132380859375,-0.012672529296875,1.227816572265625
-0.32111173828125,0.148106728515625,1.1302472314453125
-0.27053767578125,0.0765403515625,1.0071181640625
-0.3777644140625,0.010611052246093749,0.9547698779296875
-0.20683380859375,0.013552136230468751,0.995812900390625
-0.1866528125,0.0054641552734375,1.0373474560546876
-0.35417939453125,-0.0180645166015625,1.1690783544921874
-0.3889490625,0.04002189208984375,1.152120458984375
-0.31333111328125,-0.00752563232421875,0.828691611328125
-0.247925234375,0.06060947998046875,0.757910830078125
-0.32451576171875,0.16550814208984374,0.6917996142578124
-0.09134015625,0.0711483642578125,0.7026133447265624
-0.1229489453125,0.1809488330078125,0.83901380859375
-0.3213548828125,0.17653720703125,0.9306847509765624
-0.29509527343749997,0.12629368896484375,0.9744312060546875
-0.249870390625,0.14908708984375,0.99237216796875
-0.2299325390625,0.10570610107421875,1.0127707958984375
-0.20634751953125,0.126538779296875,1.0068723974609375
-0.22725794921875,0.01453249755859375,0.9862280029296875
-0.290718671875,0.0044837939453125,0.98647376953125
-0.33983386718749997,0.0012976196289062499,0.9179048876953125
-0.190543125,0.036345537109375,0.92355751953125
-0.21412814453125,0.12139188232421876,0.9360916162109375
-0.25983931640625,0.0231106591796875,1.0024485986328124
-0.205131796875,0.10913736572265625,1.0299744580078125
-0.17376615234375,0.13021513427734374,0.981066904296875
-0.23941517578125,0.10766682373046875,1.00515203125
