ax,ay,az
-0.2561921484375,0.150067451171875,1.00220283203125
-0.26032560546875,0.128499501953125,0.9872110693359375
-0.21704587890625,0.1157548046875,0.9950756005859375
-0.2571647265625,0.11256863037109376,1.031203291015625
-0.23357970703125,0.03806116943359375,1.025304892578125
-0.27783201171875,0.1907524462890625,1.05332228515625
-0.26032560546875,0.0476196923828125,1.0267794921875
-0.2289599609375,0.11747043701171875,1.0181776611328126
-0.221665625,0.165753232421875,0.987948369140625
-0.31308796875,0.1240878759765625,0.9523122119140625
-0.2133987109375,0.2015364208984375,1.011541962890625
-0.2386857421875,0.112813720703125,0.9537868115234375
-0.24695265625,0.18070374267578124,1.014491162109375
-0.1744955859375,0.179478291015625,1.0294829248046875
-0.286828359375,0.1348718505859375,1.01989802734375
-0.28366748046875,0.0799716162109375,1.02383029296875
-0.19564916015625,0.1270289599609375,1.05332228515625
-0.27418484375,0.03266918212890625,0.9503460791015625
-0.25011353515625,0.15619470947265626,1.0228472265625
-0.2163164453125,0.12727405029296876,1.0334151904296875
-0.2878009375,0.096147578125,1.0206353271484374
-0.20732009765625,0.13168567626953126,1.0501273193359375
-0.28220861328125,0.10276501708984374,1.031203291015625
-0.222638203125,0.08242251953125,1.010558896484375
-0.24938410156250002,0.12531332763671876,0.983033037109375
-0.28561263671875,0.0858537841796875,0.9599309765625
-0.2075632421875,0.08854977783203125,0.9901602685546875
-0.26761994140625,0.083402880859375,0.993846767578125
-0.22385392578125,0.12874459228515625,1.009575830078125
-0.23017568359375,0.111833359375,0.996795966796875
-0.253760703125,0.04786478271484375,1.0230929931640624
-0.23309341796875,0.20178151123046875,1.064136015625
-0.25108611328125,0.0731090869140625,0.964354775390625
-0.214857578125,0.13168567626953126,0.98450763671875
-0.27540056640625,0.1510478125,0.995812900390625
-0.2416034765625,0.132420947265625,1.0132623291015626
-0.23649744140625,0.09149086181640625,0.9616513427734374
-0.310170234375,0.120656611328125,1.0103131298828125
-0.19808060546875,0.11894097900390625,0.9837703369140625
-0.2644590625,0.0907555908203125,0.8918536279296875
-0.1550440234375,0.2231043701171875,0.987948369140625
-0.32257060546875,0.101049384765625,0.976151572265625
-0.24233291015625,0.1329111279296875,1.071509013671875
-0.2333365625,0.203006962890625,1.0958399072265625
-0.32111173828125,0.10864718505859375,1.0179318945312499
-0.20197091796875,0.14639109619140625,0.9591936767578125
-0.2172890234375,0.17237067138671874,0.9695158740234375
-0.27637314453125,0.1000690234375,1.024813359375
-0.2766162890625,0.13119549560546875,1.072492080078125
-0.18106048828125,0.116735166015625,0.9611598095703124
-0.2532744140625,0.11943115966796874,0.951574912109375
-0.1676875390625,0.04320806640625,0.93437125
-0.22628537109375,0.1628121484375,0.983033037109375
-0.32864921874999997,0.1250682373046875,1.028254091796875
-0.259596171875,0.114774443359375,1.0471781201171875
-0.1710915625,0.20423241455078125,1.0516019189453125
-0.31089966796875,0.08119706787109375,0.9862280029296875
-0.2406308984375,0.1784979296875,1.087729609375
-0.2065906640625,0.10423555908203125,0.9611598095703124
-0.22093619140625,0.1201664306640625,1.000728232421875
-0.28074974609375003,0.150067451171875,1.055779951171875
-0.27053767578125,0.07139345458984375,0.9675497412109375
-0.23649744140625,0.083402880859375,0.965337841796875
-0.207076953125,0.10962754638671875,0.9410069482421874
-0.1560166015625,0.063795654296875,0.82131861328125
-0.19832375,0.1201664306640625,0.8648193017578125
-0.32354318359375,0.11771552734375,0.9518206787109375
-0.2211793359375,0.0765403515625,1.01399962890625
-0.2192341796875,0.20178151123046875,1.11623853515625
-0.28998923828125,0.05105095703125,1.0014655322265624
-0.24573693359375,0.1584005224609375,0.9016842919921875
-0.2843969140625,0.2407508740234375,0.875387265625
-0.2416034765625,0.1235976953125,0.931913583984375
-0.22701480468750002,0.108892275390625,0.9070911572265625
-0.1754681640625,0.1211467919921875,0.9011927587890625
-0.22142248046875002,0.059874208984374996,0.894557060546875
-0.21996361328125,0.14295983154296876,0.903404658203125
-0.20148462890625,0.16477287109375,0.9704989404296875
-0.22677166015625,0.00276816162109375,0.868997333984375
-0.23139140625,0.240260693359375,0.9311762841796875
-0.1958923046875,0.167713955078125,0.95304951171875
-0.33570041015625,0.04737460205078125,0.949608779296875
-0.19516287109375,0.1878113623046875,1.04939001953125
-0.16209521484375,0.146146005859375,0.9832788037109375
-0.36220316406249997,0.112813720703125,0.9306847509765624
-0.12902755859375,0.13462676025390624,0.901438525390625
-0.22288134765625,0.11452935302734375,0.8195982470703125
-0.222638203125,0.06060947998046875,0.791335087890625
-0.1842213671875,0.1231075146484375,0.8505648388671875
-0.19905318359375002,0.24442722900390626,0.8957858935546875
-0.28901666015625,0.0574233056640625,0.886692529296875
-0.16914640625,0.14884199951171875,1.089204208984375
-0.23552486328125,0.2635442749023438,1.21454517578125
-0.34688505859375,0.13340130859375,1.1862820166015624
-0.29436583984375,0.19197789794921874,1.1061621044921874
-0.2561921484375,0.21599675048828126,1.1012467724609376
-0.3748466796875,0.07972652587890625,1.015474228515625
-0.20732009765625,0.1025199267578125,1.0174403613281249
-0.2367405859375,-0.0011532836914062497,0.8928366943359375
-0.19856689453125,0.11403917236328125,0.75840236328125
-0.1725504296875,0.0633054736328125,0.7232577392578124
-0.16987583984375,0.048109873046875,0.852285205078125
-0.22531279296875,0.1701648583984375,1.0137538623046876
-0.36876806640625,0.10570610107421875,1.194392314453125
-0.347128203125,0.114774443359375,1.1513831591796875
-0.26810623046875,0.23119235107421876,1.0845346435546874
-0.25011353515625,0.1093824560546875,1.0122792626953125
-0.38335673828125,0.2240847314453125,1.046932353515625
-0.28950294921874997,0.12090170166015625,0.975168505859375
-0.23309341796875,0.07237381591796875,0.8780906982421874
-0.2075632421875,0.14590091552734374,0.828200078125
-0.17303671874999998,0.0995788427734375,0.838522275390625
-0.216802734375,0.03561026611328125,0.84294607421875
-0.22701480468750002,0.14516564453125,0.922082919921875
-0.25935302734375,0.108892275390625,0.9439561474609375
-0.29776986328125,0.0593840283203125,0.9768888720703125
-0.228473671875,0.23707451904296875,1.053813818359375
-0.368524921875,0.18119392333984374,0.9179048876953125
-0.279047734375,0.22923162841796874,0.9252778857421875
-0.2182616015625,0.2495741259765625,0.9196252539062499
-0.2571647265625,0.16599832275390625,1.0073639306640625
-0.2464663671875,0.165753232421875,1.0661021484375
-0.265431640625,0.18511536865234374,1.0130165625
-0.22628537109375,0.10202974609375,0.906845390625
-0.2824517578125,0.10595119140625,0.808047216796875
-0.144831953125,0.08903995849609375,0.812962548828125
-0.1988100390625,0.13756784423828125,0.9793465380859375
-0.174981875,0.191242626953125,1.07494974609375
-0.37265837890625,0.18658591064453126,1.1523662255859375
-0.1988100390625,0.1054610107421875,1.12606919921875
-0.2707808203125,0.13462676025390624,1.0584833837890626
-0.2989855859375,0.10619628173828125,1.1056705712890624
-0.247925234375,0.09835339111328124,1.0909245751953125
-0.33715927734375,0.14639109619140625,1.0196522607421874
-0.259596171875,0.067717099609375,0.9872110693359375
-0.23844259765625,0.04884514404296875,0.895540126953125
-0.2036729296875,0.06551128662109375,0.8564632373046875
-0.2445212109375,0.0672269189453125,0.9100403564453124
-0.1492085546875,0.148106728515625,0.965337841796875
-0.2464663671875,0.1721255810546875,0.962388642578125
-0.24427806640625,0.12139188232421876,1.010558896484375
-0.20634751953125,0.21575166015625,1.0648733154296874
-0.2736985546875,0.14001874755859375,1.075441279296875
-0.33278267578125,0.127519140625,1.0810939111328124
-0.25692158203125,0.1858506396484375,1.1120605029296875
-0.2970404296875,0.12531332763671876,1.0073639306640625
-0.2698082421875,0.0966377587890625,0.957473310546875
-0.26761994140625,0.17580193603515626,0.9621428759765625
-0.19516287109375,0.11796061767578125,1.0034316650390624
-0.2873146484375,0.13364639892578126,1.0201437939453124
-0.17619759765625,0.14884199951171875,1.0112961962890625
-0.21655958984375,0.07482471923828125,0.9916348681640625
-0.30846822265625,0.08805959716796875,1.00810123046875
-0.20926525390625,0.1152646240234375,0.9311762841796875
-0.257651015625,0.15227326416015624,0.9365831494140625
-0.207076953125,0.16599832275390625,0.947642646484375
-0.2474389453125,0.14001874755859375,0.99237216796875
-0.2843969140625,0.161831787109375,1.07494974609375
-0.24087404296875,0.1471263671875,1.0919076416015625
-0.277102578125,0.08805959716796875,1.0575003173828126
-0.30895451171875,0.136342392578125,0.9936010009765625
-0.1968648828125,0.057668395996093746,1.0024485986328124
-0.288773515625,0.13854820556640626,0.95501564453125
-0.2177753125,0.14786163818359374,0.9262609521484375
-0.2095083984375,0.0530116796875,0.876861865234375
-0.25011353515625,0.16109651611328124,0.87440419921875
-0.2785614453125,0.1093824560546875,0.9247863525390625
-0.2250696484375,0.11943115966796874,0.9842618701171875
-0.2488978125,0.18364482666015625,0.9616513427734374
-0.27394169921875,0.15178308349609376,0.973202373046875
-0.16793068359375,0.104970830078125,0.9351085498046875
-0.27345541015625,0.21109494384765626,0.965829375
-0.2445212109375,0.089285048828125,0.974185439453125
-0.300444453125,0.1392834765625,0.952557978515625
-0.24136033203125,0.15227326416015624,1.006626630859375
-0.30652306640625,0.0608545703125,1.014491162109375
-0.24233291015625,0.16673359375,1.0412797216796874
-0.1997826171875,0.1314405859375,0.9395323486328125
-0.24695265625,0.0946770361328125,0.9090572900390625
-0.24670951171875,0.15325362548828125,0.9090572900390625
-0.22944625,0.10570610107421875,0.9754142724609375
-0.29363640625,0.1392834765625,0.9820499707031249
-0.31041337890625,0.13609730224609376,0.987948369140625
-0.1861665234375,0.15325362548828125,1.0157199951171876
-0.2921775390625,0.16991976806640624,0.98843990234375
-0.2454937890625,0.13854820556640626,0.979100771484375
-0.23357970703125,0.11943115966796874,0.9439561474609375
-0.23309341796875,0.13364639892578126,0.93535431640625
-0.23844259765625,0.06992291259765625,0.9149556884765625
-0.2279873828125,0.13168567626953126,0.985982236328125
-0.25643529296875,0.14884199951171875,0.980083837890625
-0.26640421875,0.1368325732421875,0.93928658203125
-0.22628537109375,0.1574201611328125,0.975168505859375
-0.26640421875,0.17653720703125,0.9913891015625
-0.30020130859375,0.16085142578125,1.013508095703125
-0.2989855859375,0.18119392333984374,1.00515203125
-0.24087404296875,0.0682072802734375,0.9198710205078124
-0.26032560546875,0.1387932958984375,0.8839890966796875
-0.19516287109375,0.06845237060546874,0.8893959619140624
-0.28901666015625,0.1299700439453125,0.9532952783203125
-0.25789416015625,0.11747043701171875,0.9631259423828125
-0.20732009765625,0.13119549560546875,0.9886856689453125
-0.2688356640625,0.1235976953125,1.0152284619140626
-0.23114826171875,0.1211467919921875,1.0063808642578125
-0.230418828125,0.12188206298828125,0.997779033203125
-0.26056875,0.167713955078125,0.948625712890625
-0.19564916015625,0.16991976806640624,0.9262609521484375
-0.29193439453125003,0.13119549560546875,0.929947451171875
-0.28220861328125,0.16207687744140625,1.0044147314453125
-0.22142248046875002,0.106931552734375,0.9852449365234375
-0.2610550390625,0.134381669921875,0.99827056640625
-0.28804408203125,0.15300853515625001,1.029237158203125
-0.24768208984375,0.15619470947265626,1.050864619140625
-0.2255559375,0.1000690234375,0.9397781152343749
-0.24914095703125,0.15178308349609376,0.927981318359375
-0.220693046875,0.0868341455078125,0.985982236328125
-0.2644590625,0.13609730224609376,0.99433830078125
-0.28415376953125,0.07776580322265625,0.9577190771484375
-0.24379177734375002,0.14443037353515625,0.9614055761718749
-0.21607330078125,0.1887917236328125,0.995812900390625
-0.2722396875,0.1103628173828125,0.97860923828125
-0.210967265625,0.161831787109375,1.0319405908203125
-0.29363640625,0.14001874755859375,0.9596852099609375
-0.29922873046875,0.1397736572265625,0.9719735400390626
-0.22239505859375,0.07727562255859374,0.9218371533203125
-0.26129818359375,0.179478291015625,0.984999169921875
-0.2143712890625,0.07237381591796875,0.9759058056640625
-0.27418484375,0.11305881103515625,0.956490244140625
-0.2318776953125,0.14492055419921876,1.0039231982421875
-0.2211793359375,0.1260485986328125,0.9572275439453125
-0.2688356640625,0.1231075146484375,0.9501003125
-0.269321953125,0.13536203125,0.9881941357421875
-0.16501294921875,0.130460224609375,0.9380577490234375
-0.32208431640625,0.127519140625,0.96484630859375
-0.21996361328125,0.11649007568359375,0.9926179345703126
-0.26056875,0.07041309326171875,0.905370791015625
-0.29242068359375,0.18070374267578124,0.98450763671875
-0.21364185546875,0.11403917236328125,0.9813126708984374
-0.22093619140625,0.14492055419921876,0.99630443359375
-0.24330548828125,0.12825441162109374,0.97860923828125
-0.22871681640625,0.1084020947265625,0.9046334912109375
-0.2143712890625,0.093206494140625,0.89209939453125
-0.28415376953125,0.17335103271484376,0.9606682763671874
-0.2260422265625,0.13658748291015624,1.0098215966796875
-0.23309341796875,0.1549692578125,0.906845390625
-0.25594900390624997,0.1809488330078125,0.9793465380859375
-0.2347954296875,0.16305723876953124,1.00515203125
-0.2328502734375,0.111833359375,1.00515203125
-0.2435486328125,0.10962754638671875,1.01203349609375
-0.2411171875,0.17090012939453125,1.0014655322265624
-0.25303126953125,0.075559990234375,0.95304951171875
-0.28658521484375,0.1314405859375,0.9815584374999999
-0.2177753125,0.12482314697265626,0.9085657568359375
-0.22482650390625,0.09247122314453125,0.902421591796875
-0.25862359375,0.08854977783203125,0.9365831494140625
-0.23698373046875,0.085363603515625,0.9174133544921875
-0.19419029296875,0.13340130859375,0.95894791015625
-0.2736985546875,0.1123235400390625,0.9331424169921875
-0.2279873828125,0.13021513427734374,0.9095488232421876
-0.2688356640625,0.14492055419921876,0.9223286865234375
-0.23747001953125,0.11894097900390625,0.983033037109375
-0.23528171875,0.114774443359375,0.9582106103515625
-0.240144609375,0.1417343798828125,0.998762099609375
-0.2668905078125,0.16673359375,1.0211268603515624
-0.22701480468750002,0.09639266845703125,0.9473968798828125
-0.3203823046875,0.15031254150390624,0.9783634716796875
-0.162338359375,0.12335260498046875,1.0122792626953125
-0.23455228515625,0.06747200927734374,0.950591845703125
-0.3369161328125,0.0721287255859375,0.9498545458984375
-0.14945169921875,0.12776423095703124,0.94125271484375
-0.25740787109375,0.09051050048828126,0.871946533203125
-0.29193439453125003,0.15227326416015624,1.0044147314453125
-0.23844259765625,0.1456558251953125,1.0346440234375
-0.23357970703125,0.13560712158203125,0.9901602685546875
-0.29363640625,0.13609730224609376,0.9326508837890625
-0.1754681640625,0.0897752294921875,0.9459222802734375
-0.25692158203125,0.16085142578125,0.9835245703125
-0.314060546875,0.05178622802734375,1.0373474560546876
-0.24233291015625,0.15031254150390624,0.9847534033203125
-0.27734572265625,0.0843832421875,0.8618701025390625
-0.21972046875,0.1221271533203125,0.9002096923828125
-0.2099946875,0.10129447509765625,0.839996875
-0.268349375,0.122617333984375,0.8854636962890625
-0.22871681640625,0.097127939453125,0.9166760546875
-0.22750109375,0.07090327392578125,0.97664310546875
-0.330594375,0.148106728515625,1.0560257177734376
-0.19419029296875,0.14590091552734374,1.00613509765625
-0.21947732421875,0.13854820556640626,0.9631259423828125
-0.2746711328125,0.1231075146484375,0.9326508837890625
-0.292663828125,0.0495804150390625,0.935845849609375
-0.14507509765624998,0.13168567626953126,0.971236240234375
-0.32013916015625,0.06011929931640625,0.964354775390625
-0.1968648828125,0.075559990234375,0.9867195361328125
-0.25400384765625,0.07482471923828125,0.90586232421875
-0.221665625,0.1074217333984375,0.924049052734375
-0.27929087890625,0.096147578125,0.9287186181640625
-0.2450075,0.14639109619140625,1.0093300634765625
-0.24695265625,0.15913579345703124,0.946168046875
-0.25983931640625,0.1182057080078125,0.9700074072265625
-0.23139140625,0.15570452880859376,0.9965502001953125
-0.31478998046875,0.06796218994140625,0.9874568359375
-0.25838044921875,0.14933218017578126,1.0594664501953126
-0.24573693359375,0.10423555908203125,0.98254150390625
-0.3359435546875,0.09884357177734375,0.9596852099609375
-0.2396583203125,0.055952763671875,0.92748978515625
-0.2172890234375,0.07261890625,0.9513291455078126
-0.3194097265625,0.0887948681640625,0.9670582080078125
-0.23406599609375,0.07972652587890625,1.0149826953125
-0.30360533203125,0.1314405859375,1.00416896484375
-0.29169125,0.09026541015625,0.9822957373046874
-0.17473873046875,0.08413815185546875,0.9768888720703125
-0.33253953125,0.091245771484375,0.9402696484374999
-0.224583359375,0.07825598388671876,1.0545511181640626
-0.29874244140625,0.09026541015625,0.938303515625
-0.3009307421875,0.08021670654296875,0.9508376123046876
-0.29922873046875,0.0883046875,0.9601767431640625
-0.25497642578125,0.08070688720703124,1.0174403613281249
-0.304334765625,0.07727562255859374,1.0904330419921875
-0.236254296875,0.05080586669921875,1.064627548828125
-0.209022109375,0.0476196923828125,0.9729566064453125
-0.2843969140625,0.09835339111328124,0.9724650732421874
-0.24038775390625,0.06453092529296875,0.9793465380859375
-0.31381740234375,0.1054610107421875,0.999745166015625
-0.27807515625,0.11747043701171875,0.9945840673828125
-0.181789921875,0.04051207275390625,0.952557978515625
-0.20245720703125,0.05619785400390625,0.9901602685546875
-0.30409162109375,0.032424091796875,1.01989802734375
-0.21364185546875,0.0868341455078125,0.9926179345703126
-0.236254296875,0.06158984130859375,0.9459222802734375
-0.34931650390625,0.0231106591796875,1.002694365234375
-0.2484115234375,0.11747043701171875,1.0346440234375
-0.26251390625,0.05521749267578125,0.971236240234375
-0.2386857421875,0.0407571630859375,0.973202373046875
-0.22044990234375,0.13070531494140625,0.9901602685546875
-0.249870390625,0.038306259765625,0.950591845703125
-0.24233291015625,0.09982393310546875,1.0673309814453125
-0.220693046875,0.05717821533203125,1.1014925390624999
-0.28366748046875,0.05080586669921875,1.073475146484375
-0.19467658203125,0.09810830078125,1.080356611328125
-0.33910443359375,0.04198261474609375,0.9832788037109375
-0.2600824609375,0.126538779296875,1.0407881884765624
-0.28464005859375,0.02776737548828125,1.036118623046875
-0.31697828125,0.030463369140625002,1.038084755859375
-0.23990146484375,0.1103628173828125,1.0324321240234375
-0.20586123046875,0.0466393310546875,1.0432458544921874
-0.18592337890625,0.055462583007812497,0.995812900390625
-0.36001486328125,0.01012087158203125,1.010558896484375
-0.1881116796875,0.10962754638671875,1.0801108447265624
-0.3189234375,0.024091020507812498,1.0294829248046875
-0.267376796875,0.0711483642578125,1.0280083251953125
-0.206104375,0.06698182861328125,1.05233921875
-0.26664736328125,0.026296833496093748,1.0452119873046875
-0.2659179296875,-0.028113220214843748,1.048898486328125
-0.29776986328125,0.03561026611328125,0.9990078662109375
-0.218747890625,-0.05164189208984375,0.91765912109375
-0.23163455078125,0.0035034326171875,0.9284728515625
-0.25351755859375,-0.01634888427734375,0.846386806640625
-0.214857578125,-0.04575972412109375,0.92159138671875
-0.20926525390625,0.04712951171875,0.9813126708984374
-0.26567478515625,0.01649322021484375,0.9459222802734375
-0.2717533984375,0.073599267578125,0.908319990234375
-0.23309341796875,0.03364954345703125,0.8289373779296875
-0.286828359375,0.01747358154296875,0.812471015625
-0.20245720703125,0.05227640869140625,0.8458952734375
-0.19029998046875,-0.00605509033203125,0.8687515673828125
-0.2454937890625,0.0946770361328125,0.977626171875
-0.338375,0.032424091796875,1.0068723974609375
-0.26275705078125,0.0030132519531249997,0.954524111328125
-0.27199654296875,0.11158826904296874,0.9179048876953125
-0.2445212109375,-0.016593974609375,0.80952181640625
-0.117599765625,0.03536517578125,0.9552614111328125
-0.28172232421875,0.04639424072265625,0.932896650390625
-0.2878009375,0.0221302978515625,0.9552614111328125
-0.22750109375,0.038306259765625,0.986965302734375
-0.25886673828125,0.0843832421875,1.022355693359375
-0.25351755859375,0.03610044677734375,1.0402966552734374
-0.21193984375,0.063795654296875,0.984016103515625
-0.2756437109375,0.055462583007812497,0.9700074072265625
-0.3213548828125,-0.024436865234375,0.9503460791015625
-0.0607039453125,0.0956573974609375,1.104933271484375
-0.11103486328125,0.110852998046875,1.195375380859375
-0.27296912109375,0.24638795166015626,1.388056396484375
-0.40669861328125,0.1015395654296875,1.4173026220703124
-0.44025255859375,-0.028113220214843748,1.2863090234375
-0.48790888671875,0.1044806494140625,1.079865078125
-0.29825615234375,-0.14624676025390626,0.7817501904296875
-0.2279873828125,-0.08791526123046875,0.56375521484375
-0.19710802734375,-0.1239435400390625,0.4720842724609375
-0.015235917968750002,-0.1611972705078125,0.5335259228515625
-0.009886738281250002,-0.0533575244140625,0.8458952734375
-0.21072412109375,-0.09820905517578125,1.039067822265625
-0.4200715625,-0.011201987304687501,1.28335982421875
-0.3500459375,0.140263837890625,1.3506998730468749
-0.44706060546875,0.19001717529296874,1.2781987255859375
-0.43441708984375,0.10864718505859375,1.06315294921875
-0.29728357421875,0.05276658935546875,0.8382765087890625
-0.10690140625,0.069677822265625,0.8318865771484375
-0.20245720703125,0.01600303955078125,0.9520664453125
-0.27637314453125,-0.06340622802734375,0.8638362353515625
-0.12513724609375,-0.0332601171875,0.8304119775390625
-0.19370400390625,0.015022678222656249,0.85081060546875
-0.23503857421875,0.052031318359375,0.861132802734375
-0.34883021484375,0.00816014892578125,0.969761640625
-0.26056875,-0.03693647216796875,0.9950756005859375
-0.329621796875,-0.029338671875,0.90782845703125
-0.1064151171875,0.00570924560546875,0.978117705078125
-0.30846822265625,0.026051743164062502,1.16342572265625
-0.444386015625,0.08609887451171874,1.188493916015625
-0.382141015625,0.1079119140625,0.9926179345703126
-0.27345541015625,0.1005592041015625,0.8525309716796875
-0.12416466796875,0.1549692578125,0.8584293701171875
-0.18859796875,0.06060947998046875,0.9542783447265625
-0.18495080078125,0.05472731201171875,1.0226014599609374
-0.2299325390625,0.114774443359375,1.1076367041015625
-0.10228166015625,0.01845394287109375,1.0825685107421874
0.05065625,0.008895419921875,1.1744852197265625
-0.13607875,0.02237538818359375,1.441633515625
-0.48985404296875,-0.04306373046875,1.5298637255859375
-0.508576171875,-0.08399381591796876,1.280410625
-0.37460353515625,-0.092081796875,1.0629071826171874
-0.31235853515625,-0.0494360791015625,0.91765912109375
-0.29509527343749997,0.2103596728515625,0.93928658203125
-0.31527626953125,0.08217742919921875,0.9208540869140625
-0.44073884765625,0.08364797119140625,0.8928366943359375
-0.31965287109375,0.02874773681640625,0.7773263916015625
-0.11322316406249999,-0.10065995849609374,0.7109694091796875
0.06937837890625,-0.00997653564453125,0.7217831396484375
-0.07869664062500001,0.11305881103515625,0.865065068359375
8.218750000000066e-05,0.1044806494140625,1.125577666015625
-0.4127772265625,0.17335103271484376,1.3794545654296875
-0.51319591796875,0.01649322021484375,1.2447744677734376
-0.013290761718750002,-0.02272123291015625,1.2491982666015624
-0.22044990234375,0.0358553564453125,1.4711255078125
-0.5518558984375,-0.0876701708984375,1.3071991845703126
-0.4468174609375,-0.060710234375,1.1980788134765625
-0.21704587890625,-0.044534272460937496,0.9292101513671875
-0.20099833984375,-0.247959248046875,0.7004014453125
-0.19953947265625,-0.2111956982421875,0.678773984375
-0.16306779296875,-0.11438501708984375,0.8195982470703125
-0.0723748828125,-0.13252170166015625,0.7556989306640625
-0.17765646484375,-0.04526954345703125,0.9228202197265625
-0.24914095703125,-0.0141430712890625,1.0737209130859375
-0.37022693359375003,-0.0018885546875000003,1.203239912109375
-0.40037685546875,0.1956542529296875,1.269105361328125
-0.31089966796875,0.29418056640625,1.08084814453125
-0.14604767578125,0.0829127001953125,1.1789090185546875
-0.26956509765625,0.07972652587890625,1.315309482421875
-0.55793451171875,0.0255615625,1.1646545556640624
-0.31527626953125,-0.01095689697265625,1.104933271484375
-0.20877896484375,0.01894412353515625,0.979100771484375
-0.11735662109375,-0.057278969726562504,0.969270107421875
-0.18738224609375,-0.0690433056640625,1.0678225146484375
-0.29971501953125,-0.159726728515625,1.009084296875
-0.23260712890625002,-0.112669384765625,0.8245135791015625
-0.35077537109375,-0.05213207275390625,0.688113115234375
-0.24573693359375,-0.01781942626953125,0.6868842822265625
-0.27540056640625,-0.046249904785156254,0.70728291015625
-0.24670951171875,0.12825441162109374,0.8161575146484374
-0.12343523437500001,0.16109651611328124,0.9454307470703125
-0.21461443359375,0.061834931640625,1.0575003173828126
-0.4322287890625,0.158890703125,1.0742124462890625
-0.15480087890625,0.046149150390625,1.13196759765625
-0.13923962890625,-0.0023787353515625003,1.198324580078125
-0.2668905078125,-0.00703545166015625,1.168832587890625
-0.14896541015625,-0.05164189208984375,0.9936010009765625
-0.08307324218750001,-0.03497574951171875,0.8407341748046875
-0.0558410546875,0.0711483642578125,0.8043607177734375
-0.23455228515625,0.02580665283203125,0.8520394384765625
-0.15480087890625,0.1633023291015625,1.13000146484375
-0.2416034765625,0.18168410400390625,1.3091653173828126
-0.44900576171875,0.2642795458984375,1.3268605126953126
-0.387976484375,0.106931552734375,1.127543798828125
-0.2065906640625,0.0564429443359375,0.9891772021484375
-0.43393080078125,0.0505607763671875,0.8608870361328125
-0.207076953125,-0.17173615478515625,0.8141913818359375
0.00421564453125,-0.15408965087890625,0.7930554541015625
-0.18008791015625,-0.028113220214843748,0.7276815380859375
0.058436875,-0.0562986083984375,0.7318595703125
0.07351183593749999,-0.0759058349609375,0.9820499707031249
-0.21972046875,0.01796376220703125,1.284342890625
-0.31868029296875,0.02727719482421875,1.470633974609375
-0.35320681640625,0.0201695751953125,1.5249483935546875
-0.4030514453125,0.09149086181640625,1.2863090234375
-0.302389609375,-0.0837487255859375,0.921099853515625
-0.16185207031249998,0.00472888427734375,0.80362341796875
-0.06191966796875,-0.01683906494140625,0.7866655224609375
-0.2513292578125,0.016738310546875,0.8741584326171875
-0.27199654296875,-0.0038492773437499997,0.812962548828125
-0.1166271875,-0.159726728515625,0.7262069384765625
-0.0025924023437500013,-0.0533575244140625,0.759876962890625
-0.1997826171875,0.034384814453125,0.83213234375
-0.13948277343749999,-0.03252484619140625,0.9402696484374999
-0.14945169921875,0.157910341796875,1.102967138671875
-0.37508982421875,0.1691844970703125,1.0535680517578125
-0.23066197265625,0.09026541015625,0.98942296875
-0.1355924609375,0.15031254150390624,1.0584833837890626
-0.35904228515625003,0.16869431640625,0.9815584374999999
-0.18057419921875,0.09810830078125,0.8092760498046875
-0.06191966796875,0.0348749951171875,0.7822417236328125
-0.18981369140625,0.04100225341796875,0.8363103759765624
-0.2775888671875,-0.06267095703125,0.764792294921875
-0.2007551953125,0.0829127001953125,0.8235305126953125
-0.21558701171875,0.124578056640625,0.8360646093749999
-0.2824517578125,0.0858537841796875,0.9088115234375
-0.0035649804687499995,0.09051050048828126,1.0265337255859375
-0.0957167578125,0.1044806494140625,1.33546234375
-0.37071322265625,0.14246965087890626,1.47014244140625
-0.32694720703125,-0.027868129882812502,1.2315030712890624
-0.1774133203125,-0.07124911865234375,1.0191607275390624
-0.30214646484375,-0.0602200537109375,0.9454307470703125
-0.2668905078125,-0.0386521044921875,0.9690243408203125
-0.29242068359375,0.0211499365234375,0.9439561474609375
-0.4312562109375,0.0093856005859375,0.9196252539062499
-0.17473873046875,-0.024436865234375,0.947642646484375
-0.34007701171875,-0.0798272802734375,0.842454541015625
-0.2289599609375,-0.10409122314453124,0.8338527099609375
-0.20732009765625,-0.10727739746093751,0.7004014453125
-0.109819140625,-0.0523771630859375,0.6138916015625
-0.13778076171875,-0.06487677001953125,0.617332333984375
-0.31916658203125,-0.049926259765625,0.6898334814453125
-0.27977716796875,0.01306195556640625,0.884726396484375
-0.349073359375,0.053992041015625,0.946168046875
-0.3378887109375,0.01306195556640625,0.798216552734375
-0.255705859375,0.08070688720703124,0.70728291015625
-0.21121041015625,0.01796376220703125,0.6505108251953124
-0.263486484375,0.06011929931640625,0.635027529296875
-0.10228166015625,-0.059484782714843754,0.7323511035156249
-0.2085358203125,-0.0180645166015625,1.0968229736328126
-0.3578265625,0.07188363525390624,1.2482152001953124
-0.22871681640625,0.03855135009765625,1.0633987158203124
-0.17376615234375,0.14418528320312501,1.01989802734375
-0.2172890234375,-0.0063001806640625,0.8830060302734375
-0.27783201171875,0.1035002880859375,0.9874568359375
-0.20780638671875,0.02923791748046875,1.0329236572265625
-0.35126166015625,-0.01095689697265625,1.005643564453125
-0.11395259765625,0.01208159423828125,0.9272440185546875
-0.19832375,-0.013162709960937501,0.9405154150390624
-0.2474389453125,-0.05409279541015625,1.0766701123046876
-0.2552195703125,0.015022678222656249,1.136391396484375
-0.2513292578125,0.03413972412109375,1.1997991796875
-0.26956509765625,0.00717978759765625,1.18505318359375
-0.31041337890625,0.0397768017578125,1.1272980322265624
-0.34104958984375,0.009140510253906251,0.995812900390625
-0.12173322265625,-0.0082609033203125,0.9009469921875
-0.207076953125,0.07384435791015626,0.8603955029296875
-0.14945169921875,0.02580665283203125,0.96877857421875
-0.23917203125,-0.032279755859375,1.0818312109375
-0.1321884375,0.05570767333984375,1.1803836181640626
-0.44365658203125,-0.02909358154296875,1.1880023828125
-0.159420625,0.05913893798828125,1.2138078759765625
-0.20099833984375,0.0030132519531249997,1.0845346435546874
-0.40621232421875,-0.04526954345703125,1.064136015625
-0.1248941015625,0.04345315673828125,1.154578125
-0.257651015625,-0.0857094482421875,1.0589749169921876
-0.3067662109375,0.0652661962890625,1.0742124462890625
-0.209022109375,-0.0494360791015625,0.995812900390625
-0.12635296875,0.1142842626953125,1.0157199951171876
-0.212912421875,0.0137972265625,1.0737209130859375
-0.210967265625,0.04786478271484375,1.1735021533203125
-0.13097271484375,0.075559990234375,1.119187734375
-0.27442798828125,0.061834931640625,1.14573052734375
-0.24622322265625,0.00816014892578125,1.1435186279296874
-0.2591098828125,0.04051207275390625,1.089204208984375
-0.22434021484375,-0.0023787353515625003,1.0004824658203124
-0.2766162890625,-0.01193725830078125,0.9759058056640625
-0.19321771484375,0.0731090869140625,0.9832788037109375
-0.2411171875,-0.01928996826171875,1.0373474560546876
-0.23260712890625002,0.02776737548828125,1.163917255859375
-0.21510072265625,0.0069346972656249995,1.093136474609375
-0.29728357421875,0.04296297607421875,1.0766701123046876
-0.13729447265625,0.008895419921875,0.92650671875
-0.12221951171875,0.13217585693359374,0.912252255859375
-0.27029453125,0.05276658935546875,0.94125271484375
-0.28634207031250003,0.0922261328125,1.0191607275390624
-0.18154677734375,0.15300853515625001,1.01006736328125
-0.37654869140625,0.07457962890625,0.9424815478515625
-0.23892888671875,0.03413972412109375,0.9503460791015625
-0.20488865234375,0.1338914892578125,0.916184521484375
-0.22239505859375,-0.016593974609375,0.9041419580078125
-0.2396583203125,0.0466393310546875,1.0073639306640625
-0.16695810546875,0.06943273193359376,0.9677955078125
-0.24525064453125,-0.0229663232421875,0.91765912109375
-0.2255559375,0.09737302978515625,0.9469053466796875
-0.18495080078125,0.015022678222656249,0.9324051171875
-0.268349375,0.02482629150390625,0.97074470703125
-0.17668388671875,0.10570610107421875,1.020389560546875
-0.30141703125,0.0030132519531249997,0.99630443359375
-0.18227621093750002,0.0162481298828125,0.9478884130859375
-0.28561263671875,0.05080586669921875,0.918150654296875
-0.12319208984375,0.008895419921875,0.8783364648437499
-0.21023783203125002,-0.01095689697265625,0.881777197265625
-0.27515742187500003,-0.0612004150390625,0.9341254833984375
-0.18397822265625,-0.00262382568359375,0.95501564453125
-0.24695265625,-0.01732924560546875,0.9631259423828125
-0.20586123046875,0.0123266845703125,1.0147369287109376
-0.23649744140625,0.012816865234374999,0.9980247998046875
-0.27394169921875,0.01796376220703125,1.0511103857421875
-0.197351171875,0.0059543359375,0.96484630859375
-0.3033621875,0.04394333740234375,0.9124980224609375
-0.15869119140625,-0.0082609033203125,0.895540126953125
-0.1861665234375,0.0348749951171875,0.9228202197265625
-0.34931650390625,0.011346323242187501,0.9950756005859375
-0.24695265625,0.0486000537109375,1.0437373876953124
-0.22968939453125,0.04296297607421875,0.8992266259765624
-0.25157240234375,0.0633054736328125,0.94715111328125
-0.284883203125,0.07923634521484375,0.91176072265625
-0.11735662109375,0.01747358154296875,0.8800568310546875
-0.2561921484375,0.0633054736328125,0.9193794873046874
-0.23139140625,0.0780108935546875,0.9972875
-0.2552195703125,0.00325834228515625,0.9439561474609375
-0.330594375,0.089285048828125,0.989914501953125
-0.14580453125,0.1368325732421875,1.133442197265625
-0.24670951171875,-0.00654527099609375,1.0275167919921875
-0.253760703125,0.0789912548828125,1.040050888671875
-0.1725504296875,0.0584036669921875,0.9832788037109375
-0.25983931640625,-0.00850599365234375,0.950591845703125
-0.22482650390625,-0.00777072265625,0.9820499707031249
-0.1647698046875,-0.06193568603515625,0.95796484375
-0.230418828125,-0.05458297607421875,0.8682600341796876
-0.24038775390625,0.0505607763671875,0.9075826904296875
-0.20829267578125,-0.06242586669921875,0.9695158740234375
-0.23941517578125,-0.01144707763671875,1.0307117578125
-0.2114535546875,0.07531489990234375,1.11427240234375
-0.27248283203125,-0.05556333740234375,1.024813359375
-0.25740787109375,0.03904153076171875,1.0093300634765625
-0.28391062499999997,-0.0298288525390625,1.020389560546875
-0.19759431640625,0.06502110595703126,0.9906518017578125
-0.2581373046875,-0.04134809814453125,0.91176072265625
-0.2941226953125,0.02237538818359375,0.9778719384765625
-0.16598552734375,-0.0229663232421875,0.96877857421875
-0.333512109375,-0.03742665283203125,0.9891772021484375
-0.23455228515625,0.04124734375,1.0638902490234374
-0.23163455078125,0.00619942626953125,0.9793465380859375
-0.27807515625,0.04541387939453125,1.015474228515625
-0.1783858984375,0.0035034326171875,0.9520664453125
-0.18981369140625,0.0064445166015625,0.93732044921875
-0.282938046875,0.0476196923828125,1.0363643896484376
-0.24476435546875,0.065756376953125,1.060695283203125
-0.22142248046875002,0.01208159423828125,0.9434646142578125
-0.2036729296875,0.1314405859375,0.9690243408203125
-0.2347954296875,-0.028113220214843748,0.9503460791015625
-0.27418484375,0.01183650390625,0.9990078662109375
-0.21510072265625,0.09100068115234375,1.0648733154296874
-0.2824517578125,-0.045024453125,0.998762099609375
-0.20829267578125,-0.052867343750000004,0.9186421875
-0.13778076171875,0.01698340087890625,1.0149826953125
-0.316005703125,0.02090484619140625,1.0304659912109375
-0.148722265625,-0.01928996826171875,1.04349162109375
-0.1754681640625,0.0515411376953125,1.0444746875
-0.28974609375,-0.04723026611328125,0.952557978515625
-0.12756869140625,0.01649322021484375,1.00220283203125
-0.27540056640625,0.00816014892578125,0.9459222802734375
-0.2022140625,0.026051743164062502,0.915201455078125
-0.1710915625,0.0505607763671875,0.897506259765625
-0.23844259765625,0.00816014892578125,1.0024485986328124
-0.30409162109375,-0.052867343750000004,1.028254091796875
-0.179844765625,0.0883046875,1.08084814453125
-0.2756437109375,-0.015368522949218751,0.9704989404296875
-0.27807515625,0.008895419921875,1.016948828125
-0.10811712890625,0.01698340087890625,1.0216183935546874
-0.30020130859375,-0.059729873046875,1.0031858984375
-0.20440236328125,0.1235976953125,1.1164843017578125
-0.21655958984375,-0.077376376953125,0.98843990234375
-0.25546271484375,0.11158826904296874,0.9953213671875
-0.19710802734375,-0.03914228515625,0.942727314453125
-0.30846822265625,0.03413972412109375,1.04349162109375
-0.1521262890625,0.11747043701171875,1.0815854443359374
-0.2523018359375,-0.14894275390625,0.989914501953125
-0.27783201171875,0.096147578125,0.999745166015625
-0.216802734375,-0.03252484619140625,1.020389560546875
-0.32086859375,0.00766996826171875,0.9646005419921875
-0.24087404296875,0.04002189208984375,0.91176072265625
-0.20829267578125,0.01306195556640625,0.9245405859375
-0.27588685546875,-0.05801424072265625,0.8928366943359375
-0.24330548828125,-0.046004814453125,0.870963466796875
-0.0986344921875,0.0255615625,0.87931953125
-0.221665625,-0.01928996826171875,0.8694888671875
-0.15747546875,-0.07173929931640625,0.9016842919921875
-0.244034921875,0.033404453125,1.0110504296875
-0.27102396484375,0.03315936279296875,1.068559814453125
-0.2795340234375,-0.03889719482421875,0.965829375
-0.1881116796875,-0.0053198193359375,0.9827872705078124
-0.2333365625,0.04933532470703125,0.9375662158203125
-0.2571647265625,-0.02664267822265625,0.873912666015625
-0.22677166015625,-0.0582593310546875,0.8775991650390624
-0.22190876953125,0.04443351806640625,0.9685328076171875
-0.24184662109375,0.004973974609375,0.8289373779296875
-0.14191421875,-0.023456503906250002,0.8377849755859375
-0.25351755859375,0.07261890625,0.9198710205078124
-0.2124261328125,-0.0543378857421875,0.886692529296875
-0.21218298828125,0.053992041015625,1.001219765625
-0.2153438671875,0.081442158203125,1.08478041015625
-0.20926525390625,0.03806116943359375,0.988931435546875
-0.2989855859375,0.11207844970703125,1.0339067236328126
-0.2814791796875,-0.0464949951171875,1.0189149609375
-0.1944334375,0.081442158203125,1.0167030615234376
-0.27831830078124997,-0.05801424072265625,0.8992266259765624
-0.230418828125,-0.0719843896484375,0.864082001953125
-0.15285572265625,-0.042083369140625,0.7901062548828125
-0.1968648828125,-0.0504164404296875,0.859658203125
-0.19564916015625,-0.0700236669921875,0.90389619140625
-0.203186640625,0.01894412353515625,0.951574912109375
-0.259596171875,0.00325834228515625,1.025304892578125
-0.28998923828125,-0.01781942626953125,0.9547698779296875
-0.10763083984374999,0.09639266845703125,1.009084296875
-0.2240970703125,0.10913736572265625,0.9926179345703126
-0.140941640625,-0.087179990234375,1.0289913916015625
-0.36633662109375,0.1280093212890625,1.0840431103515624
-0.20586123046875,0.10399046875,1.12803533203125
-0.257651015625,-0.0151234326171875,0.987948369140625
-0.27491427734375,0.03144373046875,0.984016103515625
-0.294608984375,0.04247279541015625,0.97467697265625
-0.14215736328125,-0.011201987304687501,0.97664310546875
-0.28974609375,0.0012976196289062499,0.8984893261718749
-0.17425244140625,-0.0175743359375,0.9638632421875
-0.21510072265625,-0.049926259765625,0.7311222705078125
-0.074806328125,-0.048945898437499996,0.633061396484375
-0.007455292968749999,-0.02762303955078125,0.6347817626953125
-0.2454937890625,-0.0974737841796875,0.70335064453125
-0.1540714453125,-0.09036616455078125,0.88620099609375
-0.21655958984375,0.11256863037109376,1.10640787109375
-0.3592854296875,-0.0298288525390625,1.1892312158203124
-0.3874901953125,0.03953171142578125,1.146222060546875
-0.29339326171875,0.08953013916015624,0.991880634765625
-0.271267109375,0.07580508056640625,0.8368019091796874
-0.0568136328125,0.008895419921875,0.839996875
-0.06726884765625,-0.07664110595703125,0.8240220458984375
-0.02058509765625,0.01183650390625,0.9596852099609375
-0.19273142578125,-0.08301345458984374,0.9815584374999999
-0.1073876953125,-0.0945327001953125,1.1921804150390625
-0.3267040625,0.130460224609375,1.239613369140625
-0.39356880859375,0.09737302978515625,1.16145958984375
-0.23844259765625,-0.0170841552734375,1.1341794970703125
-0.438550546875,0.16354741943359374,1.2246216064453126
-0.39478453125,0.11894097900390625,1.1388490625
-0.27394169921875,0.05031568603515625,1.087729609375
-0.2309051171875,-0.042328459472656246,0.91569298828125
-0.21266927734375,0.0123266845703125,0.81935248046875
-0.17303671874999998,-0.0082609033203125,0.8313950439453125
-0.21704587890625,0.07041309326171875,0.9714820068359376
-0.1949197265625,-0.03056412353515625,1.0112961962890625
-0.189570546875,0.008405239257812499,1.0240760595703124
-0.2231244921875,0.06453092529296875,1.0643817822265624
-0.20148462890625,0.09394176513671874,1.218968974609375
-0.37752126953125,0.093206494140625,1.242562568359375
-0.37314466796875,0.05619785400390625,1.161951123046875
-0.23066197265625,0.114774443359375,1.2280623388671874
-0.39843169921875,-0.0533575244140625,1.0422627880859374
-0.29874244140625,-0.00262382568359375,1.0373474560546876
-0.190543125,0.03364954345703125,0.972219306640625
-0.23406599609375,-0.0881603515625,0.984999169921875
-0.29096181640625,0.05962911865234375,1.0457035205078125
-0.38432931640625,-0.029338671875,0.7537327978515624
-0.1929745703125,0.0368357177734375,0.596687939453125
-0.0305540234375,0.017718671875,0.5875945751953124
-0.13145900390625,-0.02174087158203125,0.735300302734375
-0.18981369140625,0.016738310546875,0.9021758251953125
-0.341292734375,0.12384278564453124,1.207172177734375
-0.4823165625,0.09884357177734375,1.3578271044921875
-0.30627992187499997,0.17825283935546876,1.300071953125
-0.27613,0.1314405859375,1.189476982421875
-0.30117388671875,-0.010711806640625,1.03661015625
-0.1735230078125,0.02727719482421875,1.0820769775390624
-0.14750654296875,-0.1278649853515625,1.0820769775390624
-0.26810623046875,-0.1033559521484375,0.9901602685546875
-0.1044699609375,-0.14330567626953125,1.0294829248046875
-0.12416466796875,-0.0406128271484375,1.131476064453125
-0.2717533984375,-0.049926259765625,1.234698037109375
-0.2484115234375,-0.0700236669921875,1.2595204638671875
-0.20634751953125,-0.01291761962890625,1.162934189453125
-0.30457791015625,0.04100225341796875,1.1769428857421875
-0.45702953125,-0.060710234375,1.1366371630859375
-0.222638203125,0.05668803466796875,1.1027213720703124
-0.1832487890625,0.07384435791015626,1.0963314404296876
-0.29728357421875,-0.02321141357421875,1.05332228515625
-0.218747890625,-0.008751083984375,1.046932353515625
-0.271267109375,-0.08203309326171875,0.9473968798828125
-0.0451426953125,-0.0200252392578125,0.9174133544921875
-0.35709712890625,-0.07370002197265625,0.850319072265625
-0.05073501953125,-0.0043394580078125,0.9616513427734374
-0.25740787109375,0.04100225341796875,1.1381117626953126
-0.36341888671875,0.10129447509765625,1.126560732421875
-0.29290697265625,0.08021670654296875,0.98647376953125
-0.20464550781250002,0.028257556152343752,1.0142453955078126
-0.2834243359375,0.15276344482421875,0.9601767431640625
-0.27807515625,0.06404074462890624,0.8812856640625
-0.23212083984375,0.010611052246093749,0.9277355517578125
-0.32500205078125,-0.00458454833984375,1.0343982568359376
-0.38335673828125,0.057913486328125,1.031203291015625
-0.16112263671875,-0.0327699365234375,0.9351085498046875
-0.2065906640625,0.03413972412109375,0.9179048876953125
-0.31138595703125,0.083402880859375,1.016457294921875
-0.27418484375,0.00276816162109375,1.0353813232421876
-0.2775888671875,0.0123266845703125,1.0117877294921875
-0.30652306640625,0.0008074389648437498,1.0179318945312499
-0.33181009765625,-0.0043394580078125,0.9599309765625
-0.27248283203125,-0.04306373046875,0.917167587890625
-0.27272597656249997,-0.0612004150390625,0.932896650390625
-0.26956509765625,-0.0229663232421875,0.9513291455078126
-0.29752671875000003,-0.03914228515625,0.8903790283203125
-0.21850474609375,-0.1268846240234375,0.8898874951171875
-0.1871391015625,-0.020515419921875,0.9292101513671875
-0.221665625,-0.053847705078125,0.9459222802734375
-0.1949197265625,-0.0866898095703125,0.8854636962890625
-0.2260422265625,-0.00850599365234375,0.851793671875
-0.27151025390625,-0.036201201171875,0.8220559130859375
-0.152612578125,0.0044837939453125,0.8589209033203125
-0.29387955078125,0.0299731884765625,0.846386806640625
-0.271267109375,0.0309535498046875,0.8970147265625
-0.2279873828125,0.03855135009765625,0.869980400390625
-0.29436583984375,0.03144373046875,0.9306847509765624
-0.2513292578125,0.0765403515625,1.0189149609375
-0.36487775390625,0.06257020263671875,0.9483799462890625
-0.226528515625,0.05031568603515625,0.924049052734375
-0.15528716796875,0.1907524462890625,0.9857364697265625
-0.28853037109375,0.09100068115234375,1.01989802734375
-0.26251390625,0.04737460205078125,1.0275167919921875
-0.2921775390625,0.04884514404296875,1.053813818359375
-0.2931501171875,-0.08840544189453126,0.9245405859375
-0.24573693359375,-0.013407800292968751,0.7620888623046875
-0.20415921875,-0.048455717773437504,0.7016302783203126
-0.199296328125,-0.08252327392578125,0.697943779296875
-0.13291787109375,-0.0553182470703125,0.767741494140625
-0.26227076171875,0.09443194580078125,1.0049062646484375
-0.32257060546875,-0.008996174316406251,1.1801378515625
-0.27929087890625,0.07678544189453125,1.195375380859375
-0.3641483203125,0.1436951025390625,1.11820466796875
-0.345183046875,0.07776580322265625,1.064627548828125
-0.20829267578125,0.0020328906249999995,0.9714820068359376
-0.30166017578125,-0.09134652587890625,0.8662939013671875
-0.117599765625,-0.089140712890625,0.738249501953125
-0.076751484375,-0.096983603515625,0.6588668896484375
-0.1200312109375,-0.08595453857421875,0.6785282177734375
-0.0859909765625,-0.12614935302734376,0.7522581982421875
-0.1764407421875,-0.03595611083984375,0.9754142724609375
-0.3505322265625,0.1054610107421875,1.1528577587890625
-0.407428046875,0.016738310546875,1.23027423828125
-0.366579765625,0.08953013916015624,1.16932412109375
-0.34834392578125,0.02090484619140625,0.979100771484375
-0.20051205078125,-0.0006631030273437505,0.8731753662109375
-0.2036729296875,-0.01928996826171875,0.86359046875
-0.25740787109375,-0.0018885546875000003,0.9277355517578125
-0.1453182421875,-0.00948635498046875,0.9562444775390625
-0.19419029296875,0.09296140380859375,0.9891772021484375
-0.24622322265625,0.024091020507812498,0.988931435546875
-0.263486484375,0.122617333984375,1.067576748046875
-0.27029453125,0.02482629150390625,0.9815584374999999
-0.3427516015625,-0.01193725830078125,0.9815584374999999
-0.1676875390625,-0.00605509033203125,0.950591845703125
-0.2561921484375,-0.05090662109375,0.83508154296875
-0.28366748046875,-0.047965537109375,0.8648193017578125
-0.09595990234375,-0.0543378857421875,1.072492080078125
-0.37752126953125,0.0946770361328125,1.2541135986328125
-0.358799140625,0.01404231689453125,1.2391218359375
-0.26470220703125,0.081442158203125,1.143272861328125
-0.3767918359375,0.023845930175781252,0.99433830078125
-0.22774423828125,-0.0612004150390625,0.8697346337890625
-0.14021220703125,-0.02076051025390625,0.7940385205078125
-0.20488865234375,-0.0945327001953125,0.73677490234375
-0.0986344921875,-0.1523740185546875,0.775606025390625
-0.16890326171875,0.0142874072265625,0.941744248046875
-0.2814791796875,0.0633054736328125,1.1567900244140625
-0.2970404296875,0.02972809814453125,1.264190029296875
-0.3972159765625,0.13560712158203125,1.2708257275390624
-0.29363640625,-0.0023787353515625003,1.1990618798828125
-0.40134943359374997,-0.020515419921875,1.127052265625
-0.29047552734375,-0.02321141357421875,1.0176861279296876
-0.2571647265625,-0.07835673828125,0.8567090039062499
-0.2488978125,-0.05654369873046875,0.7109694091796875
-0.19419029296875,-0.059729873046875,0.6618160888671875
-0.143859375,-0.05409279541015625,0.7751144921875
-0.22531279296875,0.091245771484375,1.0073639306640625
-0.333512109375,0.101049384765625,1.1211538671875
-0.39551396484375,0.114774443359375,1.1005094726562499
-0.33521412109375,0.12947986328125,0.9424815478515625
-0.2289599609375,0.0613447509765625,0.7571735302734375
-0.0714023046875,0.00325834228515625,0.8338527099609375
-0.26664736328125,0.07580508056640625,1.131476064453125
-0.4156949609375,0.00325834228515625,1.2944193212890625
-0.38676076171875,-0.0474753564453125,1.2430541015625
-0.24695265625,0.01575794921875,1.1189419677734376
-0.30214646484375,-0.100905048828125,0.928964384765625
-0.18227621093750002,7.216796875000007e-05,0.974185439453125
-0.228473671875,0.00227798095703125,0.9803296044921875
-0.2902323828125,-0.0945327001953125,0.9065996240234375
-0.26178447265625,0.0608545703125,0.9149556884765625
-0.18251935546875,-0.034240478515625,0.8623616357421875
-0.22190876953125,-0.120512275390625,0.9193794873046874
-0.3378887109375,0.071638544921875,1.0289913916015625
-0.33764556640625,0.05619785400390625,1.0184234277343749
-0.3028758984375,-0.00948635498046875,1.0098215966796875
-0.2396583203125,0.09149086181640625,1.026287958984375
-0.25692158203125,-0.02419177490234375,1.0398051220703124
-0.2581373046875,0.0201695751953125,1.129509931640625
-0.24427806640625,-0.0332601171875,1.101984072265625
-0.28391062499999997,-0.09085634521484375,1.0255506591796875
-0.20586123046875,-0.067572763671875,0.9591936767578125
-0.19078626953125,-0.0371815625,0.9213456201171875
-0.2299325390625,-0.06267095703125,0.9567360107421875
-0.22434021484375,0.00227798095703125,1.11427240234375
-0.27345541015625,-0.029338671875,1.0447204541015624
-0.31430369140625003,-0.02076051025390625,0.9837703369140625
-0.23892888671875,-0.0063001806640625,0.902913125
-0.2299325390625,-0.01683906494140625,0.8576920703124999
-0.19564916015625,-0.057278969726562504,0.9970417333984375
-0.308225078125,-0.047965537109375,1.000728232421875
-0.154557734375,-0.05115171142578125,1.0496357861328125
-0.2377131640625,-0.0018885546875000003,1.1211538671875
-0.36244630859375,-0.0033590966796874996,1.1341794970703125
-0.2523018359375,-0.018554697265625,1.010558896484375
-0.26324333984375,-0.0018885546875000003,0.8839890966796875
-0.2085358203125,-0.03987755615234375,0.8210728466796875
-0.15358515625,-0.055808427734375,0.7090032763671875
-0.0772377734375,0.0123266845703125,0.8589209033203125
-0.2435486328125,-0.01683906494140625,1.0373474560546876
-0.3476144921875,0.04198261474609375,1.103950205078125
-0.3631757421875,0.0765403515625,1.0884669091796875
-0.3339983984375,-0.01046671630859375,0.9665666748046875
-0.27345541015625,0.04345315673828125,0.835573076171875
-0.168173828125,-0.07615092529296875,0.772656826171875
-0.17692703125,-0.0337502978515625,0.9245405859375
-0.30020130859375,-0.1210024560546875,1.0383305224609374
-0.31430369140625003,-0.060710234375,1.082322744140625
-0.27296912109375,0.014777587890624999,0.915201455078125
-0.190543125,0.0037485229492187503,0.862115869140625
-0.29193439453125003,0.056933125,0.788385888671875
-0.18300564453125,-0.02419177490234375,0.8537598046875
-0.16185207031249998,-0.06144550537109375,1.035135556640625
-0.39891798828125,-0.011201987304687501,1.1818582177734376
-0.30652306640625,-0.09526797119140624,1.122628466796875
-0.25473328125,-0.14085477294921875,0.9591936767578125
-0.2523018359375,0.0466393310546875,0.936828916015625
-0.2561921484375,-0.12075736572265625,0.834590009765625
-0.218747890625,-0.0915916162109375,0.912252255859375
-0.2678630859375,0.0574233056640625,1.0110504296875
-0.327676640625,-0.08546435791015625,0.9520664453125
-0.24233291015625,-0.0651218603515625,0.8734211328125
-0.19759431640625,0.01845394287109375,0.875878798828125
-0.3135742578125,-0.0038492773437499997,0.8495817724609375
-0.2099946875,-0.0028689160156250004,0.8402426416015625
-0.304334765625,0.1035002880859375,0.872929599609375
-0.21364185546875,-0.011201987304687501,0.9936010009765625
-0.37460353515625,-0.0219859619140625,1.026287958984375
-0.242089765625,-0.03987755615234375,1.046932353515625
-0.2513292578125,0.07776580322265625,1.083305810546875
-0.43174250000000003,-0.1249239013671875,0.96288017578125
-0.1754681640625,0.03757098876953125,0.9429730810546875
-0.29047552734375,0.00521906494140625,0.8662939013671875
-0.19759431640625,-0.098944326171875,0.9599309765625
-0.13948277343749999,0.0054641552734375,1.040050888671875
-0.33618669921875,-0.0999246875,1.1071451708984374
-0.317950859375,-0.0415931884765625,1.1135351025390625
-0.2649453515625,0.0608545703125,0.942727314453125
-0.220693046875,0.0476196923828125,0.902421591796875
-0.19637859375,0.030463369140625002,0.9395323486328125
-0.2279873828125,0.008895419921875,1.0599579833984376
-0.236254296875,-0.0023787353515625003,1.08871267578125
-0.23212083984375,-0.095022880859375,0.962388642578125
-0.18397822265625,-0.06634731201171876,0.8505648388671875
-0.154557734375,-0.018554697265625,0.8677685009765626
-0.19175884765625,-0.07222947998046875,1.0108046630859375
-0.21461443359375,0.02727719482421875,1.1558069580078125
-0.25351755859375,-0.04477936279296875,1.12606919921875
-0.2318776953125,-0.05311243408203125,1.05725455078125
-0.20780638671875,0.03757098876953125,1.0029401318359374
-0.26859251953125,-0.038161923828125,1.022355693359375
-0.27977716796875,-0.0259074072265625,1.09657720703125
-0.2221519140625,-0.10409122314453124,0.984016103515625
-0.25205869140625,-0.081297822265625,0.9547698779296875
-0.2902323828125,-0.059484782714843754,0.9867195361328125
-0.31624884765625,-0.096983603515625,0.9709904736328125
-0.21072412109375,-0.03105430419921875,0.989914501953125
-0.35563826171875,-0.03987755615234375,1.0260421923828125
-0.26907880859375,-0.036201201171875,1.0184234277343749
-0.224583359375,-0.0180645166015625,0.98254150390625
-0.29728357421875,-0.06928839599609375,0.9724650732421874
-0.21315556640625,-0.075415654296875,1.0661021484375
-0.2834243359375,-0.05997496337890625,1.0732293798828125
-0.2722396875,-0.0180645166015625,1.044966220703125
-0.212912421875,-0.0366913818359375,0.9994993994140625
-0.35806970703125,0.03144373046875,1.053813818359375
-0.27685943359375,-0.08399381591796876,1.0250591259765625
-0.26956509765625,-0.0249270458984375,0.965337841796875
-0.3077387890625,0.0270321044921875,0.990897568359375
-0.22968939453125,-0.07370002197265625,0.902421591796875
-0.22385392578125,-0.00360418701171875,0.9481341796875
-0.31770771484375,0.0044837939453125,1.0299744580078125
-0.24573693359375,-0.049926259765625,1.037101689453125
-0.16549923828125,-0.07419020263671874,0.9992536328125
-0.376305546875,0.00423870361328125,1.0216183935546874
-0.1958923046875,0.02286556884765625,0.94321884765625
-0.1744955859375,-0.03399538818359375,0.883251796875
-0.31308796875,-0.018554697265625,1.01989802734375
-0.18835482421875,0.02678701416015625,1.062661416015625
-0.22361078125,-0.01095689697265625,1.0299744580078125
-0.2678630859375,0.01453249755859375,1.0019570654296874
-0.096203046875,0.0054641552734375,0.94321884765625
-0.29533841796875,-0.00997653564453125,1.0398051220703124
-0.25546271484375,0.03119864013671875,1.1400778955078126
-0.24476435546875,-0.07222947998046875,1.008592763671875
-0.22434021484375,0.00399361328125,0.969761640625
-0.220693046875,-0.026397587890625,0.926998251953125
-0.21704587890625,-0.09404251953125001,0.9444476806640625
-0.25643529296875,0.0030132519531249997,0.965829375
-0.17862904296875,-0.16242272216796874,0.872929599609375
-0.19467658203125,-0.07958218994140626,0.936828916015625
-0.2367405859375,0.00521906494140625,0.9714820068359376
-0.23260712890625002,-0.0817880029296875,0.9953213671875
-0.294608984375,-0.010711806640625,0.93142205078125
-0.19637859375,-0.00948635498046875,0.9508376123046876
-0.2698082421875,-0.05311243408203125,0.95894791015625
-0.323786328125,-0.0018885546875000003,1.0289913916015625
-0.218747890625,-0.00507472900390625,1.006626630859375
-0.25838044921875,0.01796376220703125,0.9508376123046876
-0.3067662109375,-0.05311243408203125,0.9324051171875
-0.15139685546875,-0.0170841552734375,0.9473968798828125
-0.27491427734375,0.0201695751953125,1.01203349609375
-0.242089765625,-0.01095689697265625,0.9881941357421875
-0.20294349609375,0.04884514404296875,0.9459222802734375
-0.26032560546875,0.0020328906249999995,0.993846767578125
-0.2182616015625,0.04639424072265625,0.995812900390625
-0.31770771484375,-0.0229663232421875,0.916184521484375
-0.03711892578125,0.03315936279296875,1.006626630859375
-0.40037685546875,0.028502646484374998,1.0407881884765624
-0.17668388671875,-0.0210056005859375,1.047915419921875
-0.20488865234375,-0.077376376953125,0.94321884765625
-0.27613,0.0642858349609375,1.05135615234375
-0.17230728515625,-0.05409279541015625,0.9936010009765625
-0.2153438671875,0.0025230712890624996,1.0211268603515624
-0.24306234375,0.0294830078125,1.034152490234375
-0.2095083984375,-0.08987598388671875,0.9424815478515625
-0.26032560546875,0.00791505859375,0.9626344091796875
-0.2513292578125,0.0593840283203125,0.9960586669921875
-0.15869119140625,-0.050661530761718754,0.8972604931640625
-0.3271903515625,0.038306259765625,0.942727314453125
-0.28561263671875,0.0451687890625,1.0339067236328126
-0.19856689453125,-0.02958376220703125,0.937811982421875
-0.28755779296875,0.015022678222656249,0.9115149560546875
-0.22871681640625,-0.0092412646484375,0.9363373828125
-0.25692158203125,0.02531647216796875,0.9719735400390626
-0.31478998046875,-0.030073942871093752,1.0228472265625
-0.1900568359375,-0.0435539111328125,0.9837703369140625
-0.2736985546875,0.0133070458984375,0.9075826904296875
-0.22044990234375,0.00276816162109375,0.9631259423828125
-0.23357970703125,-0.0097314453125,0.965829375
-0.3096839453125,0.0868341455078125,1.0230929931640624
-0.185680234375,0.046149150390625,1.016948828125
-0.2722396875,0.0294830078125,1.0250591259765625
-0.24184662109375,0.087324326171875,1.076424345703125
-0.21315556640625,0.0030132519531249997,1.034152490234375
-0.25011353515625,0.06281529296875,1.0565172509765626
-0.21023783203125002,0.0044837939453125,1.0582376171875
-0.28561263671875,-0.04821062744140625,0.947642646484375
-0.17692703125,-0.07811164794921875,0.9508376123046876
-0.25643529296875,-0.037916833496093746,0.946659580078125
-0.13972591796875,-0.0004180126953125,0.9852449365234375
-0.2333365625,-0.100905048828125,0.9478884130859375
-0.26372962890625,-0.04477936279296875,1.014491162109375
-0.1375376171875,0.05889384765625,1.0461950537109375
-0.22239505859375,-0.0592396923828125,0.9311762841796875
-0.25838044921875,0.03413972412109375,0.983033037109375
-0.19248828125,0.038306259765625,1.064136015625
-0.28172232421875,-0.08252327392578125,1.00023669921875
-0.2561921484375,0.01159141357421875,1.03366095703125
-0.24184662109375,-0.0219859619140625,0.988931435546875
-0.2056180859375,-0.01928996826171875,0.950591845703125
-0.27248283203125,0.00276816162109375,0.9599309765625
-0.27588685546875,0.0407571630859375,0.9852449365234375
-0.23260712890625002,-0.0011532836914062497,0.95304951171875
-0.267376796875,-0.00654527099609375,0.9837703369140625
-0.17522501953125,-0.02125069091796875,0.981066904296875
-0.2921775390625,-0.04821062744140625,0.8667854345703125
-0.13510617187500001,0.06894255126953125,0.9822957373046874
-0.23892888671875,0.01747358154296875,1.1189419677734376
-0.4176401171875,-0.08644471923828125,1.1484339599609374
-0.2056180859375,0.0711483642578125,1.024813359375
-0.21704587890625,0.07188363525390624,0.9896687353515625
-0.27637314453125,-0.0562986083984375,0.9798380712890625
-0.23406599609375,-0.1111988427734375,0.9719735400390626
-0.16598552734375,0.03168882080078125,1.014491162109375
-0.19856689453125,-0.068553125,0.9795923046875
-0.1944334375,-0.028113220214843748,1.006626630859375
-0.31308796875,0.021640117187500002,1.055779951171875
-0.2698082421875,-0.0210056005859375,1.003677431640625
-0.263486484375,0.0691876416015625,1.033169423828125
-0.1540714453125,0.01796376220703125,0.9992536328125
-0.294608984375,-0.06095532470703125,0.8530225048828125
-0.21169669921875,0.0593840283203125,0.93535431640625
-0.25594900390624997,-0.04379900146484375,0.945676513671875
-0.29436583984375,-0.047965537109375,1.0427543212890624
-0.24865466796875,0.00325834228515625,1.0112961962890625
-0.2931501171875,-0.095022880859375,0.8476156396484374
-0.20732009765625,-0.04085791748046875,0.848352939453125
-0.185680234375,-0.0464949951171875,0.8267254785156251
-0.23212083984375,0.030463369140625002,0.84294607421875
-0.3189234375,-0.016593974609375,0.9709904736328125
-0.27807515625,0.04541387939453125,1.00613509765625
-0.181789921875,0.00668960693359375,0.9449392138671875
-0.34445361328125,0.07065818359375,1.041033955078125
-0.21899103515625,0.02041466552734375,1.0058893310546875
-0.2503566796875,0.00766996826171875,0.9513291455078126
-0.2805066015625,0.0294830078125,1.002694365234375
-0.26810623046875,-0.03889719482421875,1.0034316650390624
-0.25497642578125,0.0682072802734375,1.0004824658203124
-0.21023783203125002,-0.05017135009765625,0.9901602685546875
-0.30457791015625,0.03266918212890625,0.9896687353515625
-0.21972046875,-0.010221625976562499,0.9292101513671875
-0.2309051171875,0.00865032958984375,0.9803296044921875
-0.3826273046875,0.0191892138671875,0.9773804052734375
-0.1842213671875,-0.0955130615234375,0.8313950439453125
0.08104931640625,-0.07075893798828126,0.907336923828125
-0.38481560546875,0.10595119140625,1.0592206835937499
-0.448276328125,-0.11977700439453125,1.0240760595703124
-0.323786328125,0.042227705078125,1.1715360205078125
-0.35612455078125,0.05178622802734375,0.959439443359375
-0.2027003515625,-0.06977857666015624,0.8377849755859375
-0.2007551953125,0.0255615625,0.84097994140625
-0.2630001953125,0.01551285888671875,0.9196252539062499
-0.29874244140625,-0.012672529296875,0.95501564453125
-0.29485212890625,-0.04870080810546875,0.8613785693359375
-0.181789921875,0.0008074389648437498,0.9262609521484375
-0.19953947265625,-0.026397587890625,0.952557978515625
-0.35077537109375,-0.0562986083984375,0.9813126708984374
-0.17911533203125,0.04541387939453125,0.952557978515625
-0.33132380859375,0.02041466552734375,0.997779033203125
-0.2717533984375,0.03217900146484375,1.0501273193359375
-0.299471875,0.0613447509765625,0.987948369140625
-0.201241484375,0.06624655761718751,1.0324321240234375
-0.2114535546875,0.0731090869140625,1.02579642578125
-0.366579765625,7.216796875000007e-05,0.9717277734375
-0.12465095703125,0.0368357177734375,0.951574912109375
-0.2172890234375,-0.0200252392578125,0.9166760546875
-0.3111428125,-0.0298288525390625,0.96877857421875
-0.23455228515625,0.03512008544921875,1.028254091796875
-0.29874244140625,-0.0562986083984375,0.9631259423828125
-0.24306234375,0.01796376220703125,0.963371708984375
-0.30992708984375,-0.00801581298828125,0.917167587890625
-0.28464005859375,-0.00948635498046875,0.968287041015625
-0.23990146484375,-0.03448556884765625,0.9931094677734374
-0.27588685546875,-0.044044091796875,0.9520664453125
-0.142886796875,-0.01781942626953125,0.9105318896484375
-0.30603677734375,-0.046740085449218746,0.887675595703125
-0.1949197265625,0.028257556152343752,0.9837703369140625
-0.21193984375,-0.07517056396484376,0.993355234375
-0.30627992187499997,-0.02272123291015625,1.0673309814453125
-0.222638203125,-0.0028689160156250004,1.0621698828125
-0.3072525,0.04051207275390625,1.024813359375
-0.2931501171875,0.00619942626953125,1.03169482421875
-0.33229638671875,-0.06095532470703125,0.941744248046875
-0.1929745703125,0.1235976953125,1.031203291015625
-0.27637314453125,0.023845930175781252,1.0201437939453124
-0.39259623046875003,7.216796875000007e-05,1.0093300634765625
-0.1827625,0.0133070458984375,0.9842618701171875
-0.286828359375,-0.03129939453125,0.9105318896484375
-0.172064140625,0.03144373046875,0.8576920703124999
-0.1827625,-0.04723026611328125,0.9120064892578125
-0.35588140625,-0.02664267822265625,1.0147369287109376
-0.2279873828125,0.0133070458984375,1.04939001953125
-0.31673513671875,-0.008751083984375,1.0174403613281249
-0.35515197265625,-0.00777072265625,1.015474228515625
-0.23406599609375,-0.02321141357421875,0.9609140429687499
-0.29169125,0.03953171142578125,0.9390408154296875
-0.21996361328125,-0.0602200537109375,1.0068723974609375
-0.2299325390625,-0.068553125,0.9820499707031249
-0.21461443359375,0.019434304199218752,0.9577190771484375
-0.28658521484375,-0.00997653564453125,0.9994993994140625
-0.39551396484375,0.01698340087890625,0.96484630859375
-0.20002576171875,-0.083258544921875,0.775606025390625
-0.10519939453125,-0.02615249755859375,0.76921609375
-0.35320681640625,-0.013407800292968751,0.9134810888671875
-0.21461443359375,-0.0661022216796875,1.029237158203125
-0.23528171875,-0.00507472900390625,1.0973145068359376
-0.463837578125,0.00865032958984375,1.0830600439453124
-0.24427806640625,0.07261890625,1.1169758349609376
-0.27807515625,0.1064413720703125,1.064627548828125
-0.41204779296875,0.0505607763671875,1.0845346435546874
-0.27734572265625,-0.06389640869140625,0.9503460791015625
-0.25157240234375,-0.07468038330078125,0.8220559130859375
-0.18203306640625,-0.04306373046875,0.76626689453125
-0.22044990234375,-0.045024453125,0.781012890625
-0.191515703125,0.00766996826171875,0.97467697265625
-0.3797095703125,0.0255615625,1.1297556982421875
-0.3660934765625,-0.03522083984375,1.21257904296875
-0.32208431640625,0.030463369140625002,1.1381117626953126
-0.37144265625,0.07482471923828125,1.0619241162109374
-0.1472633984375,-0.026397587890625,0.9835245703125
-0.2396583203125,7.216796875000007e-05,0.9596852099609375
-0.28123603515625,-0.00458454833984375,1.0668394482421875
-0.1744955859375,0.0515411376953125,1.0997721728515626
-0.36585033203125,0.021885207519531248,1.03366095703125
-0.28707150390625,-0.00850599365234375,0.9808211376953125
-0.19613544921875,-0.0724745703125,0.927981318359375
-0.25643529296875,-0.04772044677734375,1.11034013671875
-0.28609892578125,-0.08350363525390625,1.15359505859375
-0.29533841796875,-0.09036616455078125,1.053813818359375
-0.3378887109375,-0.015368522949218751,1.0049062646484375
-0.25059982421875,-0.08840544189453126,0.8970147265625
-0.2099946875,-0.069533486328125,0.897506259765625
-0.317950859375,-0.044044091796875,1.0108046630859375
-0.2377131640625,-0.09379742919921875,0.902913125
-0.24330548828125,-0.04968116943359375,0.817877880859375
-0.2474389453125,-0.04183827880859375,0.8834975634765625
-0.2036729296875,-0.00703545166015625,0.9582106103515625
-0.30555048828125,-0.0009081933593750001,0.957473310546875
-0.27272597656249997,0.01796376220703125,0.894557060546875
-0.210967265625,-0.0053198193359375,0.8294289111328125
-0.17182099609375,0.04835496337890625,0.956490244140625
-0.3320532421875,0.0535018603515625,1.14671359375
-0.33278267578125,0.0623251123046875,1.189476982421875
-0.3189234375,0.0505607763671875,1.1422897949218749
-0.30360533203125,0.0142874072265625,1.021372626953125
-0.21412814453125,-0.01585870361328125,0.9992536328125
-0.23139140625,0.0005623486328125002,1.04349162109375
-0.36390517578125,-0.00777072265625,1.0334151904296875
-0.316005703125,-0.0798272802734375,0.88226873046875
-0.19516287109375,-0.05090662109375,0.74857169921875
-0.22482650390625,-0.06683749267578125,0.78002982421875
-0.2484115234375,-0.03987755615234375,0.8928366943359375
-0.20197091796875,0.02531647216796875,1.032677890625
-0.39502767578125,0.06502110595703126,1.1916888818359375
-0.35904228515625003,0.05227640869140625,1.094119541015625
-0.21558701171875,0.09884357177734375,1.00416896484375
-0.27345541015625,0.08707923583984375,1.033169423828125
-0.30944080078125,-0.08448399658203125,1.0722463134765625
-0.28512634765625,-0.0254172265625,1.0353813232421876
-0.185680234375,0.02090484619140625,0.89209939453125
-0.13729447265625,-0.06095532470703125,0.8952943603515625
-0.3719289453125,-0.027868129882812502,1.0093300634765625
-0.2255559375,-0.07370002197265625,0.9442019140625
-0.17036212890625,-0.00581,0.9454307470703125
-0.24938410156250002,-0.0690433056640625,0.968287041015625
-0.2250696484375,-0.055808427734375,0.916184521484375
-0.2377131640625,-0.0053198193359375,0.8608870361328125
-0.23601115234375,-0.06340622802734375,0.984016103515625
-0.27394169921875,0.03708080810546875,1.1277895654296874
-0.33083751953125,0.050070595703125,1.121645400390625
-0.2902323828125,0.02531647216796875,1.0437373876953124
-0.3106565234375,0.0686974609375,0.9936010009765625
-0.37800755859375,0.055462583007812497,0.951574912109375
-0.2027003515625,-0.022476142578125,0.9380577490234375
-0.21315556640625,0.04320806640625,0.988931435546875
-0.166228671875,0.032424091796875,1.0226014599609374
-0.24184662109375,-0.046740085449218746,1.0594664501953126
-0.290718671875,0.01183650390625,1.1845616503906249
-0.31089966796875,0.057668395996093746,1.1985703466796875
-0.47477908203125,0.03512008544921875,1.096085673828125
-0.39478453125,0.05913893798828125,1.0432458544921874
-0.352963671875,-0.0925719775390625,0.945676513671875
-0.2853694921875,-0.083258544921875,0.997779033203125
-0.195406015625,-0.0562986083984375,1.0267794921875
-0.3067662109375,-0.06732767333984375,0.938795048828125
-0.24281919921875,-0.0803174609375,0.9115149560546875
-0.27588685546875,-0.03595611083984375,0.9852449365234375
-0.29363640625,-0.05997496337890625,1.041033955078125
-0.29679728515625,-0.0955130615234375,0.92552365234375
-0.19856689453125,-0.0268877685546875,0.86850580078125
-0.25838044921875,0.013552136230468751,0.9002096923828125
-0.3155194140625,-0.157766005859375,0.8554801708984375
-0.23406599609375,-0.17075579345703126,0.855234404296875
-0.17571130859375,0.04639424072265625,0.9188879541015624
-0.28755779296875,-0.07517056396484376,0.90586232421875
-0.25400384765625,0.03928662109375,0.9405154150390624
-0.32451576171875,0.0819323388671875,1.09264494140625
-0.33229638671875,-0.03644629150390625,1.1887396826171874
-0.31673513671875,0.0309535498046875,1.064136015625
-0.2532744140625,0.0584036669921875,0.8589209033203125
-0.22531279296875,0.0074248779296875,0.7271900048828125
-0.1540714453125,0.0289928271484375,0.6293748974609374
-0.142886796875,0.069677822265625,0.678773984375
-0.1599069140625,0.04590406005859375,0.775606025390625
-0.13778076171875,0.0250713818359375,1.0211268603515624
-0.346155625,0.05227640869140625,1.2324861376953125
-0.38238416015625,0.07629526123046874,1.2823767578125
-0.30603677734375,0.0417375244140625,1.182103984375
-0.3213548828125,0.0765403515625,1.1494170263671875
-0.3855450390625,0.00816014892578125,1.167849521484375
-0.2805066015625,0.03953171142578125,1.187510849609375
-0.251815546875,-0.0435539111328125,1.05233921875
-0.26056875,0.020659755859375,0.9483799462890625
-0.2056180859375,-0.08056255126953125,0.86064126953125
-0.15747546875,-0.044044091796875,0.92552365234375
-0.210967265625,-0.1033559521484375,1.06118681640625
-0.1988100390625,-0.1151202880859375,1.21257904296875
-0.4001337109375,-0.028358310546875,1.260749296875
-0.2766162890625,-0.100905048828125,1.056271484375
-0.24306234375,-0.025662316894531252,0.9488714794921875
-0.259596171875,-0.01634888427734375,0.97664310546875
-0.29922873046875,-0.06830803466796875,1.1312302978515625
-0.3427516015625,-0.04379900146484375,1.2256046728515626
-0.3865176171875,0.00521906494140625,1.2123332763671875
-0.327676640625,-0.112669384765625,0.9795923046875
-0.18106048828125,-0.05850442138671875,0.8476156396484374
-0.24768208984375,-0.11536537841796875,0.67582478515625
-0.1530988671875,-0.08595453857421875,0.612417001953125
-0.19467658203125,-0.08791526123046875,0.5590856494140625
-0.22482650390625,-0.05752406005859375,0.5330343896484375
-0.107873984375,0.0005623486328125002,0.560806015625
-0.2202067578125,0.04002189208984375,0.720554306640625
-0.277102578125,0.02090484619140625,0.78789435546875
-0.28853037109375,0.07727562255859374,0.9660751416015625
-0.36366203125,0.175556845703125,1.119187734375
-0.2192341796875,0.16207687744140625,1.197341513671875
-0.257651015625,0.1054610107421875,1.226833505859375
-0.312115390625,0.08070688720703124,1.2260962060546876
-0.28464005859375,0.14908708984375,1.116730068359375
-0.30798193359375,0.019434304199218752,1.016948828125
-0.31868029296875,-0.0180645166015625,0.9442019140625
-0.2318776953125,-0.07566074462890625,0.8549886376953125
-0.15625974609374998,-0.048945898437499996,0.718096640625
-0.187625390625,-0.0651218603515625,0.6863927490234375
-0.13097271484375,-0.03938737548828125,0.7552073974609375
-0.20197091796875,-0.0455146337890625,0.9356000830078125
-0.33278267578125,0.08707923583984375,1.15162892578125
-0.38384302734375,0.057668395996093746,1.297614287109375
-0.3952708203125,0.11550971435546875,1.2757410595703125
-0.36220316406249997,0.10717664306640624,1.1523662255859375
-0.2805066015625,0.079481435546875,1.0570087841796876
-0.32257060546875,0.01698340087890625,1.0034316650390624
-0.33326896484375,-0.0180645166015625,0.9950756005859375
-0.13437673828125,0.008895419921875,1.0275167919921875
-0.27418484375,-0.0523771630859375,1.000728232421875
-0.20877896484375,0.00178780029296875,1.073475146484375
-0.2124261328125,-0.00507472900390625,1.1051790380859374
-0.3894353515625,-0.11364974609375,1.1194335009765626
-0.347128203125,-0.10164031982421876,1.099034873046875
-0.346155625,-0.08154291259765625,0.92159138671875
-0.257651015625,-0.14477621826171874,0.8613785693359375
-0.31868029296875,-0.16879507080078124,0.879811064453125
-0.31624884765625,-0.04477936279296875,0.9036504248046875
-0.33424154296874997,-0.0994345068359375,0.9051250244140625
-0.22628537109375,-0.12320826904296875,0.9481341796875
-0.268349375,-0.0366913818359375,0.9154472216796875
-0.2289599609375,-0.07320984130859375,0.9166760546875
-0.28391062499999997,0.00865032958984375,0.7751144921875
-0.24914095703125,0.00987578125,0.681231650390625
-0.144831953125,0.01453249755859375,0.7124440087890624
-0.18543708984375,0.028502646484374998,0.7357918359375
-0.16841697265625,0.16158669677734375,0.902421591796875
-0.19175884765625,0.09492212646484376,1.1582646240234376
-0.339347578125,0.1191860693359375,1.3779799658203125
-0.49520322265625,0.1240878759765625,1.4219721875
-0.40572603515625,0.0701680029296875,1.33447927734375
-0.3096839453125,0.09051050048828126,1.0975602734375
-0.29387955078125,-0.0004180126953125,0.99630443359375
-0.25546271484375,-0.057278969726562504,0.9520664453125
-0.2912049609375,-0.07026875732421875,0.8616243359375
-0.23309341796875,-0.04306373046875,0.746114033203125
-0.177899609375,-0.06977857666015624,0.6392055615234375
-0.16695810546875,-0.05311243408203125,0.669434853515625
-0.146777109375,0.106931552734375,0.8301662109375
-0.16793068359375,-0.01438816162109375,0.9282270849609375
-0.23819945312500002,0.08070688720703124,1.074458212890625
-0.33715927734375,0.13462676025390624,1.1184504345703126
-0.16987583984375,-0.1170810107421875,1.1132893359375
-0.2600824609375,0.0868341455078125,1.1700614208984375
-0.30798193359375,0.0623251123046875,1.27352916015625
-0.31308796875,-0.11536537841796875,1.3140806494140624
-0.31478998046875,0.03855135009765625,1.217002841796875
-0.33667298828125003,-0.01978014892578125,1.159984990234375
-0.2172890234375,-0.07811164794921875,1.0791277783203126
-0.29363640625,-0.03448556884765625,0.9960586669921875
-0.24427806640625,-0.1013952294921875,0.906845390625
-0.2707808203125,-0.1249239013671875,0.759876962890625
-0.1088465625,-0.126394443359375,0.68172318359375
-0.10544253906250001,-0.1210024560546875,0.7109694091796875
-0.28512634765625,-0.08448399658203125,0.8065726171875
-0.253760703125,-0.052867343750000004,0.848352939453125
-0.2260422265625,0.03708080810546875,0.9604225097656249
-0.3194097265625,0.05031568603515625,1.0245675927734375
-0.29509527343749997,0.10815700439453126,1.1400778955078126
-0.21121041015625,0.1397736572265625,1.222901240234375
-0.3806821484375,0.1231075146484375,1.248460966796875
-0.2882872265625,0.0750698095703125,1.1061621044921874
-0.18349193359375,0.046149150390625,0.9572275439453125
-0.12221951171875,0.03413972412109375,0.887675595703125
-0.1997826171875,0.06306038330078124,0.9110234228515625
-0.166228671875,0.04051207275390625,0.9572275439453125
-0.23212083984375,-0.006790361328125,0.9709904736328125
-0.2561921484375,-0.0033590966796874996,0.908319990234375
-0.255705859375,0.01845394287109375,0.896523193359375
-0.24865466796875,-0.0254172265625,0.966320908203125
-0.2639727734375,-0.03105430419921875,1.030220224609375
-0.36147373046875,-0.00605509033203125,0.9822957373046874
-0.24306234375,-0.0435539111328125,0.942727314453125
-0.25059982421875,0.024581201171875,0.976151572265625
-0.35588140625,-0.06291604736328126,0.93732044921875
-0.09839134765625,0.10129447509765625,0.9233117529296875
-0.257651015625,0.04320806640625,0.8554801708984375
-0.17473873046875,-0.00262382568359375,0.9166760546875
-0.36244630859375,0.0348749951171875,0.93732044921875
-0.242089765625,-0.0866898095703125,0.9729566064453125
-0.2805066015625,-0.0033590966796874996,0.922082919921875
-0.2800203125,-0.05752406005859375,0.8092760498046875
-0.16404037109375,0.008405239257812499,0.7463597998046875
-0.1472633984375,-0.05409279541015625,0.7529954980468749
-0.26178447265625,-0.081297822265625,0.914709921875
-0.299471875,-0.02272123291015625,1.067576748046875
-0.36439146484375,-0.05752406005859375,1.153103525390625
-0.3320532421875,0.016738310546875,1.12213693359375
-0.27734572265625,-0.01978014892578125,0.98843990234375
-0.19637859375,0.03953171142578125,0.9704989404296875
-0.2425760546875,-0.08301345458984374,0.8984893261718749
-0.3038484765625,-0.03203466552734375,0.8078014501953125
-0.226528515625,-0.07419020263671874,0.776589091796875
-0.10714455078125,-0.05458297607421875,0.7281730712890625
-0.3111428125,0.06355056396484375,0.76430076171875
-0.27151025390625,-0.06291604736328126,0.7790467578125
-0.24914095703125,0.01208159423828125,0.820335546875
-0.2853694921875,0.096147578125,0.9036504248046875
-0.23990146484375,-0.0082609033203125,0.89504859375
-0.28074974609375003,0.0407571630859375,0.871946533203125
-0.26810623046875,0.0397768017578125,1.0103131298828125
-0.1910294140625,0.018699033203125,1.04152548828125
-0.35199109375,7.216796875000007e-05,1.041033955078125
-0.30141703125,0.026541923828125,1.04152548828125
-0.2347954296875,0.0010525292968750002,0.95796484375
-0.27345541015625,0.010856142578125,0.99827056640625
-0.2581373046875,0.04443351806640625,1.115747001953125
-0.29825615234375,0.01992448486328125,1.054796884765625
-0.3033621875,0.05276658935546875,1.0211268603515624
-0.33035123046875,-0.03914228515625,0.93338818359375
-0.21266927734375,-0.0411030078125,0.9528037451171875
-0.26761994140625,-0.0553182470703125,1.0127707958984375
-0.16720125,-0.0646316796875,1.13196759765625
-0.3330258203125,-0.00360418701171875,1.2391218359375
-0.36220316406249997,-0.05605351806640625,1.236664169921875
-0.2581373046875,-0.05899460205078125,1.1302472314453125
-0.38432931640625,-0.01732924560546875,1.1425355615234376
-0.2620276171875,-0.08693489990234375,1.1189419677734376
-0.2882872265625,-0.12958061767578125,1.0358728564453126
-0.25205869140625,-0.1038461328125,0.9582106103515625
-0.27102396484375,-0.1710008837890625,0.8734211328125
-0.27831830078124997,-0.11977700439453125,0.812471015625
-0.30311904296875003,-0.038161923828125,0.86260740234375
-0.19613544921875,-0.0200252392578125,0.91077765625
-0.279047734375,-0.04919098876953125,0.9449392138671875
-0.26154132812499997,-0.0219859619140625,1.11820466796875
-0.26956509765625,-0.06977857666015624,1.135408330078125
-0.27394169921875,-0.048455717773437504,1.13393373046875
-0.32013916015625,0.028502646484374998,1.1022298388671874
-0.2523018359375,-0.04183827880859375,1.0742124462890625
-0.3033621875,0.0142874072265625,1.1179589013671876
-0.25400384765625,0.0137972265625,1.166374921875
-0.32475890625,-0.04477936279296875,1.128526865234375
-0.2678630859375,0.00472888427734375,1.035135556640625
-0.2785614453125,-0.05360261474609375,0.920116787109375
-0.20245720703125,-0.0661022216796875,0.8540055712890625
-0.26227076171875,-0.0259074072265625,0.84294607421875
-0.33108066406250003,-0.06536695068359374,0.959439443359375
-0.27977716796875,-0.018554697265625,1.0444746875
-0.20829267578125,-0.028113220214843748,0.947642646484375
-0.3028758984375,0.00816014892578125,0.9488714794921875
-0.19905318359375002,7.216796875000007e-05,0.9972875
-0.2211793359375,0.04394333740234375,1.0181776611328126
-0.284883203125,-0.036201201171875,1.1022298388671874
-0.24938410156250002,-0.036201201171875,1.1911973486328125
-0.2192341796875,-0.0366913818359375,1.2462490673828124
-0.3466419140625,-0.057278969726562504,1.2491982666015624
-0.2279873828125,0.01453249755859375,1.1479424267578124
-0.3388612890625,-0.07320984130859375,0.977134638671875
-0.31235853515625,-0.13448242431640625,0.976151572265625
-0.2022140625,-0.0513968017578125,0.9677955078125
-0.2416034765625,-0.09036616455078125,0.938795048828125
-0.17133470703125,-0.11291447509765624,0.9822957373046874
-0.2698082421875,-0.0700236669921875,1.0530765185546875
-0.2688356640625,-0.046740085449218746,1.1110774365234375
-0.315033125,-0.08154291259765625,1.113780869140625
-0.26640421875,-0.01291761962890625,1.1228742333984374
-0.329621796875,-0.06634731201171876,1.0255506591796875
-0.28998923828125,-0.0582593310546875,0.9793465380859375
-0.2095083984375,-0.0670825830078125,0.964354775390625
-0.2411171875,-0.03497574951171875,0.94715111328125
-0.24281919921875,-0.02517213623046875,0.9641090087890625
-0.20294349609375,-0.07713128662109375,0.9100403564453124
-0.21121041015625,-0.0288484912109375,0.9665666748046875
-0.32791978515625,-0.0523771630859375,1.0378389892578126
-0.29825615234375,-0.063651318359375,1.0044147314453125
-0.22385392578125,0.03144373046875,1.0004824658203124
-0.25351755859375,0.099088662109375,1.007609697265625
-0.27637314453125,-0.0474753564453125,0.992863701171875
-0.34007701171875,0.063795654296875,1.061678349609375
-0.35563826171875,0.052031318359375,1.035135556640625
-0.222638203125,-0.04870080810546875,0.876861865234375
-0.10690140625,-0.09526797119140624,0.8476156396484374
