ax,ay,az
-0.253760703125,0.0338946337890625,1.00515203125
-0.267376796875,-0.0268877685546875,0.9611598095703124
-0.199296328125,0.0064445166015625,0.95796484375
-0.27734572265625,0.02580665283203125,0.9552614111328125
-0.226528515625,-0.029338671875,0.902421591796875
-0.25254498046875,0.02041466552734375,0.90389619140625
-0.23552486328125,-0.013162709960937501,0.9203625537109374
-0.21704587890625,0.01159141357421875,0.9174133544921875
-0.2921775390625,-0.014633251953124999,0.9410069482421874
-0.22093619140625,0.09345158447265625,1.0157199951171876
-0.27005138671875,0.05913893798828125,1.00613509765625
-0.3339983984375,0.053992041015625,0.9577190771484375
-0.2143712890625,-0.0055649096679687505,0.8864467626953125
-0.316005703125,0.020659755859375,0.9331424169921875
-0.21704587890625,0.026541923828125,0.988931435546875
-0.21850474609375,-0.00948635498046875,0.9483799462890625
-0.25983931640625,0.0878145068359375,0.9675497412109375
-0.2435486328125,-0.02517213623046875,0.9085657568359375
-0.16914640625,0.021640117187500002,0.9916348681640625
-0.29509527343749997,-0.01732924560546875,0.9827872705078124
-0.25303126953125,0.0652661962890625,0.9940925341796875
-0.259596171875,-0.03154448486328125,0.9252778857421875
-0.25351755859375,-0.036201201171875,0.9144641552734375
-0.25594900390624997,-0.0513968017578125,0.90782845703125
-0.26956509765625,0.01208159423828125,0.965337841796875
-0.191515703125,-0.02713285888671875,0.9439561474609375
-0.23844259765625,0.0137972265625,0.9999909326171875
-0.29144810546875,-0.0259074072265625,1.0049062646484375
-0.17279357421875,-0.0013983740234375002,1.01203349609375
-0.19516287109375,-0.0553182470703125,1.0142453955078126
-0.1958923046875,-0.028358310546875,0.9891772021484375
-0.189570546875,0.0035034326171875,0.9616513427734374
-0.18859796875,0.009140510253906251,0.9704989404296875
-0.2571647265625,0.00423870361328125,1.0267794921875
-0.23552486328125,-0.07762146728515625,0.9297016845703125
-0.20197091796875,-0.01438816162109375,0.8800568310546875
-0.15625974609374998,-0.04477936279296875,0.8537598046875
-0.23698373046875,0.02727719482421875,0.907336923828125
-0.15528716796875,0.053992041015625,1.056763017578125
-0.323786328125,0.07531489990234375,1.1607222900390626
-0.25935302734375,0.0142874072265625,1.14769666015625
-0.19662173828125,0.16599832275390625,1.0914161083984375
-0.26056875,0.0613447509765625,1.0506188525390625
-0.27929087890625,0.09247122314453125,1.041033955078125
-0.21899103515625,0.0686974609375,1.0147369287109376
-0.26640421875,0.00816014892578125,0.9874568359375
-0.23917203125,-0.018554697265625,0.9196252539062499
-0.2513292578125,-0.0009081933593750001,0.9311762841796875
-0.2347954296875,-0.0259074072265625,0.9960586669921875
-0.31308796875,0.01453249755859375,1.0592206835937499
-0.2649453515625,0.01894412353515625,1.0781447119140626
-0.39867484375,0.00816014892578125,1.0130165625
-0.2756437109375,0.03217900146484375,0.9621428759765625
-0.152612578125,-0.05482806640625,0.914709921875
-0.24233291015625,-0.06781785400390625,0.867031201171875
-0.2036729296875,-0.03938737548828125,0.9206083203125
-0.2824517578125,-0.0038492773437499997,1.0073639306640625
-0.21558701171875,0.01012087158203125,1.0643817822265624
-0.2892598046875,0.02139502685546875,1.091661875
-0.218747890625,0.0270321044921875,1.0850261767578124
-0.236254296875,0.010856142578125,1.0098215966796875
-0.23163455078125,0.02972809814453125,0.989914501953125
-0.206104375,0.0064445166015625,1.00810123046875
-0.2620276171875,-0.0411030078125,1.0034316650390624
-0.2177753125,-0.061690595703125004,0.9847534033203125
-0.18300564453125,0.014777587890624999,0.961897109375
-0.2377131640625,-0.027868129882812502,0.8918536279296875
-0.1754681640625,0.03168882080078125,0.8903790283203125
-0.27880458984375,0.02972809814453125,0.98450763671875
-0.1385101953125,0.059874208984374996,1.0307117578125
-0.22531279296875,0.00325834228515625,1.037101689453125
-0.2644590625,0.022620478515625,1.079373544921875
-0.19564916015625,0.09149086181640625,1.056763017578125
-0.2474389453125,0.14884199951171875,1.115747001953125
-0.32159802734375,0.02531647216796875,1.1005094726562499
-0.35101851562499997,0.06281529296875,1.071509013671875
-0.17327986328125,-0.0229663232421875,0.983033037109375
-0.17133470703125,-0.07835673828125,0.882760263671875
-0.22361078125,-0.065612041015625,0.87440419921875
-0.226528515625,-0.03056412353515625,0.9351085498046875
-0.259596171875,-0.02321141357421875,0.9518206787109375
-0.207076953125,-0.07811164794921875,0.986965302734375
-0.20488865234375,0.0037485229492187503,1.0393135888671874
-0.31697828125,0.010856142578125,0.9183964208984375
-0.23747001953125,-0.01389798095703125,0.8156659814453124
-0.16987583984375,0.07482471923828125,0.8549886376953125
-0.284883203125,0.02727719482421875,0.904387724609375
-0.16136578125,-0.04526954345703125,0.99237216796875
-0.2722396875,0.03806116943359375,1.099034873046875
-0.2027003515625,0.0231106591796875,1.0525849853515625
-0.20415921875,0.03928662109375,1.01399962890625
-0.14604767578125,0.01404231689453125,1.0029401318359374
-0.228473671875,0.0030132519531249997,0.992863701171875
-0.18203306640625,0.049090234375,1.043000087890625
-0.20197091796875,0.024581201171875,1.0174403613281249
-0.22336763671875,0.00325834228515625,0.9955671337890625
-0.22920310546875,0.0819323388671875,1.000728232421875
-0.216802734375,0.08756941650390625,1.094119541015625
-0.24670951171875,0.0299731884765625,1.1086197705078125
-0.2552195703125,0.0544822216796875,1.072492080078125
-0.2367405859375,0.03315936279296875,0.951574912109375
-0.13632189453125,0.0495804150390625,0.8557259375
-0.17571130859375,0.01404231689453125,0.813945615234375
-0.15236943359375,-0.0268877685546875,0.8805483642578125
-0.240144609375,0.01306195556640625,0.9488714794921875
-0.2566784375,-0.0072805419921875,0.97074470703125
-0.26032560546875,0.06894255126953125,0.9520664453125
-0.19856689453125,0.00987578125,0.89799779296875
-0.17425244140625,0.06624655761718751,0.95108337890625
-0.255705859375,0.05717821533203125,0.9783634716796875
-0.2357680078125,-0.02149578125,0.9528037451171875
-0.22336763671875,0.0731090869140625,0.937811982421875
-0.28366748046875,0.03462990478515625,0.8766160986328125
-0.13729447265625,0.034384814453125,0.8933282275390625
-0.25084296875,0.07678544189453125,0.952557978515625
-0.2328502734375,0.02531647216796875,0.9729566064453125
-0.18738224609375,0.1064413720703125,0.9464138134765625
-0.2022140625,0.03953171142578125,0.8667854345703125
-0.21947732421875,0.07457962890625,0.94321884765625
-0.2065906640625,0.1133039013671875,1.051847685546875
-0.28634207031250003,0.0530116796875,1.0778989453125
-0.205131796875,0.08266760986328126,1.038084755859375
-0.30360533203125,0.09100068115234375,0.99040603515625
-0.1404553515625,0.0750698095703125,0.97467697265625
-0.26372962890625,0.05374695068359375,0.942727314453125
-0.20926525390625,0.05472731201171875,1.0117877294921875
-0.28269490234375,0.00717978759765625,0.969761640625
-0.24136033203125,0.0309535498046875,0.9837703369140625
-0.16160892578125,0.036345537109375,1.00613509765625
-0.17862904296875,0.12139188232421876,1.0545511181640626
-0.27977716796875,0.06698182861328125,1.0621698828125
-0.3038484765625,0.1280093212890625,1.03562708984375
-0.1968648828125,0.00521906494140625,0.9621428759765625
-0.26178447265625,-0.02370159423828125,0.9046334912109375
-0.2523018359375,-0.02223105224609375,0.9351085498046875
-0.1336473046875,-0.01487834228515625,0.9503460791015625
-0.2523018359375,0.08119706787109375,1.0250591259765625
-0.3019033203125,-0.03693647216796875,1.06315294921875
-0.23114826171875,0.0878145068359375,1.11034013671875
-0.2172890234375,0.11649007568359375,0.981066904296875
-0.214857578125,0.1387932958984375,0.990897568359375
-0.16525609375,0.15080272216796875,0.9960586669921875
-0.1851939453125,0.07850107421875,1.036118623046875
-0.185680234375,0.09051050048828126,1.1140266357421875
-0.29776986328125,0.09296140380859375,1.2197062744140625
-0.35393625,0.13805802490234376,1.258291630859375
-0.230418828125,-0.00850599365234375,1.0447204541015624
-0.15285572265625,0.02874773681640625,0.9198710205078124
-0.259596171875,-0.08693489990234375,0.944693447265625
-0.24525064453125,-0.046004814453125,1.0385762890625
-0.1667149609375,0.03462990478515625,1.1073909375
-0.22361078125,0.012816865234374999,1.0621698828125
-0.0855046875,-0.01634888427734375,0.9857364697265625
-0.3495596484375,-0.07860182861328124,0.903404658203125
-0.22750109375,-0.0406128271484375,0.9100403564453124
-0.15285572265625,0.12041152099609376,0.9292101513671875
-0.23698373046875,0.0985984814453125,0.993355234375
-0.1112780078125,0.1711452197265625,1.06708521484375
-0.11443888671875,0.14786163818359374,1.134425263671875
-0.2805066015625,0.10815700439453126,1.092153408203125
-0.086477265625,0.0883046875,1.1435186279296874
-0.2698082421875,0.143204921875,1.20668064453125
-0.32159802734375,0.071638544921875,1.2723003271484374
-0.26470220703125,0.267710810546875,1.2076637109375
-0.25157240234375,-0.03914228515625,1.039067822265625
-0.25449013671875,-0.1572758251953125,0.9916348681640625
-0.49568951171875,-0.02958376220703125,0.9007012255859375
0.03096154296875,-0.07468038330078125,0.777080625
-0.0295814453125,-0.04772044677734375,0.8785822314453124
-0.21655958984375,0.097127939453125,0.9609140429687499
-0.1088465625,0.019434304199218752,0.8446664404296875
-0.20877896484375,-0.0033590966796874996,0.991880634765625
0.0039725,0.1044806494140625,1.2624696630859376
-0.22531279296875,0.0883046875,1.2452660009765626
-0.3699837890625,0.0858537841796875,1.2074179443359374
-0.1997826171875,0.21599675048828126,1.14966279296875
-0.43101306640625,-0.03129939453125,1.085271943359375
-0.47186134765625,0.111833359375,1.0501273193359375
-0.22531279296875,0.14516564453125,0.8849721630859375
-0.058272500000000005,0.046149150390625,0.8333611767578125
-0.07407689453124999,-0.08619962890625,0.8223016796875
-0.02593427734375,0.02752228515625,0.7994453857421875
-0.041738671875,-0.02076051025390625,0.890624794921875
-0.2873146484375,-0.00752563232421875,0.97074470703125
-0.0772377734375,-0.02762303955078125,1.0712632470703125
-0.345183046875,0.019434304199218752,1.1327048974609375
-0.26616107421875,0.17629211669921874,1.1317218310546875
-0.35126166015625,-0.05360261474609375,1.0857634765625
-0.3602580078125,0.163792509765625,1.211104443359375
-0.28901666015625,0.14516564453125,1.020389560546875
-0.22750109375,0.16550814208984374,0.81640328125
-0.28901666015625,0.1123235400390625,0.634044462890625
-0.1949197265625,-0.08595453857421875,0.520008759765625
-0.03614634765625,-0.1406096826171875,0.4509483447265625
-0.01085931640625,-0.18693175537109374,0.4229309521484375
-0.07164544921875,-0.2347243701171875,0.5745689453125
-0.01620849609375,-0.1857063037109375,0.6067643701171875
0.00980796875,-0.26339993896484376,0.8564632373046875
-0.30409162109375,-0.02076051025390625,1.3887936962890626
-0.45678638671875,0.1760470263671875,1.4271332861328125
-0.4905834765625,0.20790876953125,1.29122435546875
-0.34931650390625,0.2397705126953125,1.0201437939453124
-0.2425760546875,0.228496357421875,0.782487490234375
-0.12221951171875,0.1897720849609375,0.694011513671875
0.020506328125,0.150067451171875,0.8304119775390625
0.10633634765625,0.06600146728515625,1.0759328125
-0.15625974609374998,0.26452463623046873,1.3883021630859376
-0.15236943359375,0.316728876953125,1.3435726416015625
-0.0198556640625,0.09247122314453125,1.46817630859375
-0.19710802734375,0.304964541015625,1.59400880859375
-0.3267040625,0.13021513427734374,1.4875918701171875
-0.514411640625,-0.047965537109375,1.13098453125
-0.4225030078125,-0.0651218603515625,0.733825703125
-0.29631099609375,-0.08007237060546875,0.51263576171875
-0.27613,-0.06536695068359374,0.34748060546875
-0.10130908203125,0.0309535498046875,0.355836669921875
0.05722115234375,0.0015427099609375003,0.4676604736328125
-0.12416466796875,-0.0543378857421875,0.8183694140625
-0.31965287109375,-0.14085477294921875,1.1479424267578124
-0.22239505859375,0.00227798095703125,1.6006445068359376
-0.30944080078125,0.22727090576171874,1.6630692236328124
-0.21704587890625,0.3240815869140625,1.342835341796875
-0.3524773828125,0.23560397705078126,1.15556119140625
-0.32354318359375,0.2659951782226562,1.04152548828125
-0.338375,0.201046240234375,0.8122252490234375
-0.21801845703125,0.0387964404296875,0.7397241015625
-0.18154677734375,-0.05874951171875,0.6721382861328125
-0.18081734375,0.05276658935546875,0.6957318798828125
-0.21510072265625,-0.09477779052734375,0.709740576171875
-0.1793584765625,0.00816014892578125,0.962388642578125
-0.2007551953125,0.21697711181640625,1.1513831591796875
-0.21072412109375,0.238299970703125,1.1312302978515625
-0.25449013671875,0.2093793115234375,1.2666476953124999
-0.12635296875,0.2897689404296875,1.250427099609375
-0.19564916015625,0.2172222021484375,1.0228472265625
-0.24281919921875,0.16673359375,0.9228202197265625
-0.29485212890625,0.183399736328125,0.97074470703125
-0.3495596484375,0.0721287255859375,1.0117877294921875
-0.40669861328125,0.191242626953125,1.01006736328125
-0.12635296875,0.0319339111328125,0.7532412646484374
0.03728330078125,0.04100225341796875,0.7397241015625
-0.006482714843750001,-0.12663953369140624,1.013508095703125
-0.18689595703125,0.02433611083984375,1.2177401416015625
-0.2386857421875,0.17384121337890626,1.4357351171875
-0.34299474609375,0.1863408203125,1.401819326171875
-0.3797095703125,0.11550971435546875,1.228799638671875
-0.3038484765625,0.06257020263671875,1.104933271484375
-0.26810623046875,-0.0298288525390625,0.929947451171875
-0.20464550781250002,-0.0562986083984375,0.7212916064453125
-0.06143337890625,-0.06267095703125,0.5627721484375
-0.010129882812500001,-0.07664110595703125,0.7114609423828124
-0.41447923828125,0.0010525292968750002,1.012525029296875
-0.3656071875,0.028257556152343752,1.2093840771484374
-0.1336473046875,-0.014633251953124999,1.1130435693359375
-0.13583560546875,-0.0210056005859375,1.020389560546875
-0.13194529296875,0.0162481298828125,0.9567360107421875
-0.15528716796875,0.1025199267578125,0.8785822314453124
-0.119544921875,0.14001874755859375,1.1376202294921876
-0.35904228515625003,0.1848702783203125,1.22830810546875
-0.15723232421875,0.1201664306640625,1.164900322265625
-0.24573693359375,0.0868341455078125,1.16735798828125
-0.34493990234375,0.17506666503906249,1.044966220703125
-0.2017277734375,-0.006790361328125,0.8372934423828124
-0.1579617578125,0.06453092529296875,0.8653108349609375
-0.2571647265625,0.04443351806640625,0.99827056640625
-0.2474389453125,-0.03522083984375,1.0759328125
-0.16258150390625,0.013552136230468751,0.9734481396484375
-0.11200744140625,-0.07419020263671874,0.8451579736328125
-0.16015005859375,-0.09845414550781251,0.9021758251953125
-0.13291787109375,-0.09624833251953124,0.9559987109375
-0.28804408203125,0.03855135009765625,0.9754142724609375
-0.39113736328125,0.0466393310546875,0.814928681640625
-0.14410251953125,0.02335574951171875,0.7994453857421875
-0.23066197265625,0.1319307666015625,0.8304119775390625
-0.17036212890625,0.03610044677734375,0.9778719384765625
-0.26907880859375,0.09100068115234375,1.0697886474609375
-0.25108611328125,0.16697868408203126,1.076424345703125
-0.207076953125,-0.00850599365234375,1.0324321240234375
-0.18300564453125,0.0368357177734375,1.00023669921875
-0.1832487890625,0.00791505859375,1.0368559228515626
-0.27977716796875,0.01404231689453125,0.9921264013671875
-0.23844259765625,-0.018554697265625,0.903404658203125
-0.0694571484375,-0.1415900439453125,0.8795652978515625
-0.15236943359375,-0.11732610107421874,1.10247560546875
-0.38676076171875,0.0593840283203125,1.1762055859375
-0.22385392578125,0.12090170166015625,1.1420440283203126
-0.30117388671875,0.15570452880859376,1.125577666015625
-0.14069849609375001,0.210849853515625,1.135408330078125
-0.23309341796875,0.13707766357421874,1.2020110791015626
-0.2202067578125,0.30471945068359374,1.2351895703125
-0.40475345703125,0.22482000244140626,0.97860923828125
-0.20294349609375,-0.0055649096679687505,0.8613785693359375
-0.088422421875,-0.10752248779296875,0.779538291015625
-0.2464663671875,-0.06732767333984375,0.9070911572265625
-0.29290697265625,-0.1665892578125,0.9773804052734375
-0.28658521484375,-0.25359632568359375,0.830657744140625
-0.3194097265625,-0.1631579931640625,0.7090032763671875
-0.23941517578125,-0.212666240234375,0.693028447265625
-0.15771861328125,-0.245998525390625,0.6991726123046875
-0.24695265625,-0.0190448779296875,0.784453623046875
-0.089395,-0.06144550537109375,0.7856824560546875
-0.058272500000000005,-0.23521455078125,0.71711357421875
-0.13437673828125,0.02482629150390625,0.796250419921875
-0.23357970703125,-0.09722869384765626,0.8569547705078124
-0.11930177734375,0.024091020507812498,1.0329236572265625
-0.2649453515625,0.08953013916015624,1.080356611328125
-0.35272052734375,-0.05090662109375,0.9473968798828125
-0.1725504296875,0.097127939453125,0.8446664404296875
-0.2406308984375,-0.06046514404296875,0.594721806640625
-0.2056180859375,0.14246965087890626,0.606518603515625
-0.18470765625,0.1564397998046875,0.7615973291015625
-0.14215736328125,-0.09967959716796874,0.910286123046875
-0.24281919921875,-0.03203466552734375,1.0565172509765626
-0.0957167578125,0.06600146728515625,1.0751955126953125
-0.13802390625,0.033404453125,0.9665666748046875
-0.081614375,0.1976149755859375,0.996795966796875
-0.16136578125,0.0397768017578125,1.0122792626953125
-0.25400384765625,0.00766996826171875,1.1801378515625
-0.33035123046875,0.16501796142578126,1.3081822509765626
-0.3485870703125,0.25276030029296875,1.0850261767578124
-0.06435111328125,-0.00948635498046875,0.8795652978515625
-0.28950294921874997,-0.0097314453125,0.89013326171875
-0.308225078125,-0.07615092529296875,0.8183694140625
-0.17911533203125,-0.104826494140625,0.80755568359375
-0.08866556640625001,-0.1023755908203125,0.7896147216796875
-0.21193984375,-0.2170778662109375,0.7945300537109374
-0.2600824609375,-0.23104801513671874,0.902913125
-0.08380267578125,-0.06781785400390625,0.9744312060546875
-0.33424154296874997,-0.1474722119140625,1.0471781201171875
-0.2250696484375,0.10276501708984374,1.07691587890625
-0.174981875,-0.00458454833984375,0.9994993994140625
-0.1696326953125,0.04982550537109375,1.0663479150390625
-0.316005703125,0.03561026611328125,1.0975602734375
-0.19759431640625,0.06673673828125,0.973202373046875
-0.23941517578125,0.063795654296875,0.8215643798828125
-0.22385392578125,-0.02272123291015625,0.971236240234375
-0.32062544921875,-0.15114856689453124,1.140323662109375
-0.37849384765625,-0.07075893798828126,1.021372626953125
-0.17619759765625,0.015022678222656249,0.917167587890625
-0.403537734375,-0.06585713134765625,0.7409529345703125
-0.2114535546875,0.06011929931640625,0.7050710107421875
-0.0490330078125,0.06257020263671875,0.5875945751953124
-0.1827625,0.05423713134765625,0.69745224609375
-0.12659611328125,0.1721255810546875,0.9051250244140625
-0.06824142578125,0.03757098876953125,1.0383305224609374
-0.33715927734375,0.00521906494140625,1.124594599609375
-0.42809533203125,0.0740894482421875,1.180629384765625
-0.36925435546875,-0.01561361328125,1.0329236572265625
-0.378250703125,0.081442158203125,0.9380577490234375
-0.18884111328125,0.1289896826171875,0.9311762841796875
-0.1190586328125,0.0191892138671875,1.004660498046875
-0.52146283203125,0.07629526123046874,1.1966042138671875
-0.51903138671875,0.0740894482421875,1.087238076171875
-0.14556138671875,0.04394333740234375,0.769707626953125
-0.1453182421875,0.04712951171875,0.601603271484375
-0.0461152734375,-0.0435539111328125,0.49641516601562496
-0.005510136718749999,-0.0906112548828125,0.6141373681640625
-0.143859375,0.08511851318359374,1.0284998583984375
-0.3116291015625,0.0162481298828125,1.3140806494140624
-0.43927998046875,0.0652661962890625,1.607280205078125
-0.35174794921875,0.25374066162109377,1.6129328369140625
-0.37946642578125,0.16354741943359374,1.2963854541015625
-0.36755234375,0.2240847314453125,1.214053642578125
-0.4001337109375,0.21942801513671875,1.098051806640625
-0.45532751953125,0.028502646484374998,0.9402696484374999
-0.0859909765625,-0.03546593017578125,0.83311541015625
-0.09085386718749999,0.0270321044921875,0.8407341748046875
0.02609865234375,-0.10458140380859375,0.8717007666015625
0.011753125,-0.1759026904296875,1.15752732421875
-0.2999581640625,0.1201664306640625,1.25681703125
-0.397702265625,0.0378160791015625,1.1209081005859376
-0.3164919921875,0.00276816162109375,1.0766701123046876
-0.156502890625,0.05962911865234375,1.0280083251953125
-0.15382830078125,0.04247279541015625,1.0928907080078125
-0.33132380859375,0.11550971435546875,1.226833505859375
-0.3437241796875,0.07433453857421875,1.2659103955078126
-0.183735078125,-0.0180645166015625,1.1990618798828125
-0.3301080859375,-0.1023755908203125,0.9926179345703126
-0.1200312109375,-0.2513905126953125,0.844420673828125
-0.09158330078125,-0.28888933349609375,0.80362341796875
-0.1472633984375,-0.1386489599609375,0.909303056640625
-0.0334717578125,-0.069533486328125,0.9936010009765625
-0.190543125,0.00178780029296875,1.2467406005859374
-0.2177753125,-0.011201987304687501,1.4423708154296875
-0.3962433984375,0.0907555908203125,1.4826765380859375
-0.40086314453125,0.190262265625,1.2332234375
-0.39600025390625,0.19810515625,1.0329236572265625
-0.38287044921875,0.15766525146484375,0.9424815478515625
-0.39356880859375,0.13854820556640626,0.9218371533203125
-0.20829267578125,-0.0582593310546875,0.8245135791015625
-0.0363894921875,-0.0513968017578125,0.772656826171875
-0.1166271875,0.016738310546875,0.8436833740234375
-0.347128203125,0.077520712890625,0.922082919921875
-0.312115390625,0.04639424072265625,1.010558896484375
-0.26518849609375,-0.0175743359375,1.1081282373046875
-0.22385392578125,0.14124419921875,1.208155244140625
-0.185680234375,0.024581201171875,0.9965502001953125
-0.2133987109375,0.00865032958984375,0.83901380859375
-0.30020130859375,0.20080114990234374,0.884726396484375
-0.386031328125,0.13560712158203125,0.9714820068359376
-0.3592854296875,-0.02149578125,1.0486527197265625
-0.18738224609375,-0.10262068115234375,1.0889584423828125
-0.237226875,-0.0396324658203125,0.9301932177734376
-0.25449013671875,-0.04477936279296875,0.7593854296875
-0.177899609375,-0.07713128662109375,0.7419360009765625
-0.321841171875,-0.06977857666015624,0.9414984814453125
-0.4332013671875,0.1368325732421875,0.9559987109375
-0.2454937890625,0.03904153076171875,0.829674677734375
-0.06289224609374999,-0.08938580322265625,0.760860029296875
-0.19224513671875,-0.1013952294921875,0.6539515576171875
-0.18543708984375,-0.1680597998046875,0.5979167724609376
-0.21558701171875,-0.22075422119140625,0.6716467529296875
-0.33472783203125,-0.19722554931640626,0.9218371533203125
-0.32354318359375,-0.0063001806640625,1.01006736328125
-0.32257060546875,0.0309535498046875,1.0324321240234375
-0.17668388671875,0.1231075146484375,1.0614325830078124
-0.2172890234375,0.19810515625,1.240596435546875
-0.27199654296875,0.155949619140625,1.322190947265625
-0.30700935546875,0.177517568359375,1.3303012451171874
-0.23601115234375,0.0711483642578125,1.269105361328125
-0.1725504296875,0.044188427734375,1.108865537109375
-0.25546271484375,0.08658905517578125,1.0575003173828126
-0.3019033203125,-0.0043394580078125,0.938795048828125
-0.236254296875,-0.0866898095703125,0.7773263916015625
-0.21169669921875,-0.0435539111328125,0.825742412109375
-0.2309051171875,-0.1298257080078125,0.92159138671875
-0.288773515625,-0.12149263671875,0.9120064892578125
-0.24281919921875,-0.063651318359375,0.792318154296875
-0.1180860546875,-0.10409122314453124,0.7208000732421875
-0.16015005859375,-0.07271966064453125,0.81935248046875
-0.24184662109375,-0.0366913818359375,0.93732044921875
-0.137051328125,-0.06683749267578125,0.97664310546875
-0.24670951171875,0.10129447509765625,0.9631259423828125
-0.21607330078125,0.059874208984374996,0.812962548828125
-0.129270703125,0.038306259765625,0.7434106005859376
-0.156502890625,0.0211499365234375,0.9397781152343749
-0.259596171875,-0.03644629150390625,1.1317218310546875
-0.28512634765625,-0.13007079833984375,1.154578125
-0.24914095703125,-0.12467881103515625,1.0167030615234376
-0.2912049609375,-0.08301345458984374,0.7380037353515625
-0.1851939453125,-0.07811164794921875,0.5679332470703125
-0.1034973828125,-0.1013952294921875,0.5330343896484375
-0.1453182421875,-0.09183670654296874,0.622247666015625
-0.07310431640625001,-0.0724745703125,0.7443936669921875
-0.197351171875,-0.01095689697265625,0.924049052734375
-0.257651015625,-0.023456503906250002,1.0884669091796875
-0.2367405859375,7.216796875000007e-05,1.1366371630859375
-0.1861665234375,0.16403760009765625,0.984016103515625
-0.03128345703125,0.08168724853515624,0.866048134765625
-0.18738224609375,0.2255552734375,1.053813818359375
-0.300444453125,0.27383806884765627,1.1523662255859375
-0.37022693359375003,0.13609730224609376,1.064136015625
-0.2873146484375,0.212810576171875,1.078390478515625
-0.3330258203125,-0.06536695068359374,0.9257694189453125
-0.23309341796875,0.13952856689453125,0.9921264013671875
-0.24670951171875,0.05815857666015625,0.970253173828125
-0.3057936328125,-0.0670825830078125,0.97271083984375
-0.2163164453125,-0.03987755615234375,0.9414984814453125
-0.32475890625,-0.05409279541015625,0.98843990234375
-0.30166017578125,-0.0170841552734375,1.0417712548828124
-0.3033621875,0.2250650927734375,1.076424345703125
-0.35709712890625,0.23266289306640625,0.9193794873046874
-0.3242726171875,0.2358490673828125,0.8254966455078125
-0.325731484375,0.03315936279296875,0.984016103515625
-0.23503857421875,0.07972652587890625,0.9587021435546875
-0.20440236328125,0.024581201171875,0.8741584326171875
-0.20732009765625,-0.05850442138671875,1.049881552734375
-0.3500459375,0.0593840283203125,1.2231470068359376
-0.31624884765625,-0.1259042626953125,1.12410306640625
-0.30409162109375,-0.0651218603515625,0.9365831494140625
-0.38773333984375,-0.144040947265625,0.8318865771484375
-0.2795340234375,-0.028113220214843748,0.8613785693359375
-0.25546271484375,-0.16487362548828124,0.8365561425781249
-0.206104375,-0.2023724462890625,0.8225474462890625
-0.19175884765625,-0.0523771630859375,0.8667854345703125
-0.32062544921875,-0.10948321044921874,0.8655566015625
-0.31138595703125,-0.0004180126953125,0.9306847509765624
-0.2941226953125,0.11967625,1.043983154296875
-0.42420501953125,0.09884357177734375,1.052830751953125
-0.30798193359375,0.09884357177734375,0.94518498046875
-0.16890326171875,0.1221271533203125,0.876861865234375
-0.143859375,0.01183650390625,0.8734211328125
-0.21412814453125,0.030708459472656248,1.0157199951171876
-0.23260712890625002,0.15423398681640624,1.1808751513671876
-0.11784291015625001,0.057668395996093746,1.106899404296875
-0.30603677734375,0.114774443359375,1.216019775390625
-0.354908828125,0.21893783447265625,1.355123671875
-0.30020130859375,0.0397768017578125,1.205206044921875
-0.31478998046875,-0.04183827880859375,1.0899415087890625
-0.14969484375,0.0407571630859375,1.0339067236328126
-0.07164544921875,-0.134237333984375,1.133442197265625
-0.14191421875,-0.03693647216796875,1.3715900341796874
-0.39551396484375,0.06796218994140625,1.345784541015625
-0.4302836328125,0.1917328076171875,1.1538408251953125
-0.3155194140625,0.277514423828125,0.941744248046875
-0.0140201953125,0.10766682373046875,0.8318865771484375
0.02026318359375,0.1260485986328125,0.912252255859375
-0.09887763671875,0.01012087158203125,1.1027213720703124
-0.21023783203125002,-0.138158779296875,1.30695341796875
-0.39016478515624997,-0.02272123291015625,1.3843698974609375
-0.3889490625,-0.13546278564453124,1.2496897998046874
-0.28026345703125,-0.03546593017578125,1.0614325830078124
-0.15723232421875,-0.11144393310546875,0.9832788037109375
-0.207076953125,-0.16879507080078124,1.06118681640625
-0.25497642578125,-0.01438816162109375,1.035135556640625
-0.22239505859375,0.108892275390625,0.93928658203125
-0.08283009765625,-0.059484782714843754,0.9739396728515625
-0.21193984375,-0.134237333984375,1.02579642578125
-0.05219388671875,-0.0710040283203125,1.2374014697265625
-0.12829812499999999,-0.0646316796875,1.2469863671875
-0.38676076171875,-0.053847705078125,1.03661015625
-0.33861814453125,0.08462833251953125,0.894557060546875
-0.34834392578125,0.08805959716796875,0.885709462890625
-0.34396732421875,0.2544759326171875,0.8884128955078126
-0.29485212890625,0.25079957763671873,0.906353857421875
-0.1258666796875,0.16354741943359374,0.91765912109375
-0.14799283203125,0.03928662109375,0.996795966796875
-0.1210037890625,-0.008751083984375,1.0958399072265625
-0.29533841796875,0.132420947265625,1.2437914013671876
-0.47575166015625,0.1941837109375,1.1400778955078126
-0.32257060546875,0.2255552734375,0.97271083984375
-0.1555303125,0.0451687890625,0.9257694189453125
-0.27734572265625,-0.013652890625,1.050864619140625
-0.36196001953125,-0.00581,1.1253318994140624
-0.31041337890625,-0.018554697265625,1.0525849853515625
-0.43927998046875,0.04590406005859375,0.860149736328125
-0.3291355078125,0.06281529296875,0.69745224609375
-0.25886673828125,0.011346323242187501,0.498381298828125
-0.2163164453125,0.06796218994140625,0.5045254638671874
-0.1268392578125,0.05668803466796875,0.51460189453125
-0.1151683203125,-0.083258544921875,0.59717947265625
-0.1774133203125,-0.08301345458984374,0.824759345703125
-0.2591098828125,-0.08987598388671875,0.9759058056640625
-0.3573402734375,-0.09477779052734375,1.02972869140625
-0.2785614453125,0.01845394287109375,1.0432458544921874
-0.13607875,0.0064445166015625,1.1179589013671876
-0.3972159765625,0.11550971435546875,1.08379734375
-0.37460353515625,0.05913893798828125,0.9793465380859375
-0.33326896484375,0.0387964404296875,0.8043607177734375
-0.13607875,0.09296140380859375,0.7729025927734375
-0.13413359375,-0.00605509033203125,0.762826162109375
-0.05024873046875,-0.03693647216796875,0.95698177734375
-0.3155194140625,0.07261890625,1.1730106201171875
-0.37217208984375,0.03266918212890625,1.258291630859375
-0.2639727734375,0.17384121337890626,1.1440101611328124
-0.31722142578125,0.08707923583984375,0.94321884765625
-0.2036729296875,0.030708459472656248,0.863098935546875
-0.2338228515625,0.112813720703125,0.8392595751953125
-0.2075632421875,0.1064413720703125,0.835573076171875
-0.218747890625,0.0721287255859375,0.8726838330078125
-0.27199654296875,0.1270289599609375,1.0346440234375
-0.30555048828125,-0.0063001806640625,1.02972869140625
-0.28707150390625,-0.1151202880859375,1.041033955078125
-0.21655958984375,-0.01830960693359375,1.048406953125
-0.22628537109375,-0.01683906494140625,0.9677955078125
-0.2022140625,0.02752228515625,0.8775991650390624
-0.17230728515625,0.111833359375,0.9606682763671874
-0.354908828125,0.13854820556640626,1.0874838427734375
-0.31430369140625003,0.1770273876953125,1.1287726318359375
-0.1599069140625,0.0074248779296875,1.0592206835937499
-0.2085358203125,0.04247279541015625,1.1125520361328125
-0.16890326171875,0.01159141357421875,1.0071181640625
-0.15164,0.0495804150390625,0.9478884130859375
-0.28366748046875,0.0495804150390625,0.9292101513671875
-0.36487775390625,-0.044534272460937496,0.941744248046875
-0.30409162109375,0.04198261474609375,0.95894791015625
-0.33764556640625,0.16085142578125,1.0191607275390624
-0.1910294140625,0.06796218994140625,0.9501003125
-0.12173322265625,0.10276501708984374,0.9906518017578125
-0.189570546875,0.126538779296875,1.046932353515625
-0.17084841796875,0.01404231689453125,1.0835515771484374
-0.2610550390625,0.1711452197265625,1.1936550146484375
-0.3578265625,0.09296140380859375,1.1956211474609375
-0.331566953125,-0.00507472900390625,1.10444173828125
-0.29752671875000003,0.138303115234375,1.1032129052734374
-0.3009307421875,0.009140510253906251,0.9955671337890625
-0.2143712890625,-0.01879978759765625,0.97271083984375
-0.15358515625,0.085363603515625,1.0004824658203124
-0.18689595703125,-0.00360418701171875,1.110831669921875
-0.15966376953125,0.03953171142578125,1.1907058154296875
-0.30117388671875,0.01306195556640625,1.098051806640625
-0.36050115234375,0.099088662109375,1.0053977978515625
-0.26056875,0.04320806640625,1.0250591259765625
-0.42663646484375,0.03928662109375,0.950591845703125
-0.27831830078124997,-0.1572758251953125,0.9127437890625
-0.259596171875,-0.1587463671875,0.7751144921875
-0.240144609375,-0.1033559521484375,0.698926845703125
-0.20197091796875,-0.1102184814453125,0.620281533203125
-0.146777109375,-0.0268877685546875,0.7448852001953125
-0.31430369140625003,0.0848734228515625,0.8923451611328125
-0.3962433984375,0.1897720849609375,1.154086591796875
-0.30749564453125,0.08413815185546875,1.311377216796875
-0.24695265625,0.1485969091796875,1.2909785888671874
-0.23698373046875,0.13854820556640626,1.188493916015625
-0.2095083984375,0.097127939453125,1.1857904833984374
-0.21899103515625,0.00791505859375,1.2319946044921875
-0.28464005859375,-0.05458297607421875,0.913235322265625
-0.2221519140625,-0.02909358154296875,0.786419755859375
-0.244034921875,-0.10065995849609374,0.7239950390625
-0.2357680078125,-0.03546593017578125,0.7040879443359375
-0.156502890625,-0.0798272802734375,0.64240052734375
-0.1910294140625,0.12629368896484375,0.7232577392578124
-0.1949197265625,-0.05115171142578125,0.8166490478515624
-0.2338228515625,-0.12124754638671875,0.963371708984375
-0.2542469921875,0.032424091796875,1.0501273193359375
-0.3952708203125,-0.06634731201171876,0.9972875
-0.31235853515625,-0.07811164794921875,0.875387265625
-0.20804953125,0.0780108935546875,0.883743330078125
-0.24087404296875,-0.0043394580078125,0.849336005859375
-0.20002576171875,0.1299700439453125,0.926015185546875
-0.2114535546875,0.19614443359375,1.020389560546875
-0.282938046875,0.112813720703125,1.07494974609375
-0.14215736328125,0.023845930175781252,1.174239453125
-0.3019033203125,0.11845079833984375,1.3263689794921876
-0.230418828125,0.00227798095703125,1.2393676025390625
-0.30360533203125,0.036345537109375,1.14769666015625
-0.29776986328125,-0.0553182470703125,1.1666206884765624
-0.23260712890625002,0.19050735595703125,1.166866455078125
-0.37144265625,0.25913264892578125,1.073475146484375
-0.430769921875,-0.00262382568359375,1.022355693359375
-0.38627447265625,0.0838930615234375,0.9695158740234375
-0.273212265625,0.15570452880859376,0.86653966796875
-0.14799283203125,0.040266982421875,0.6288833642578124
-0.0480604296875,-0.012672529296875,0.63650212890625
-0.09644619140624999,-0.08056255126953125,0.7952673535156249
-0.06143337890625,-0.04968116943359375,1.109848603515625
-0.34299474609375,-0.123453359375,1.416565322265625
-0.46602587890625,-0.19992154296875,1.353649072265625
-0.39891798828125,-0.01978014892578125,1.1604765234375
-0.44511544921875,-0.0567887890625,0.7357918359375
-0.20488865234375,-0.0661022216796875,0.5630179150390625
-0.096203046875,-0.1308060693359375,0.538687021484375
-0.11468203125,0.079481435546875,0.674350185546875
-0.14264365234375,-0.0415931884765625,0.73874103515625
-0.2814791796875,0.052031318359375,1.074458212890625
-0.41156150390625,0.13315621826171875,0.9827872705078124
-0.3330258203125,0.03144373046875,0.867031201171875
-0.28634207031250003,-0.07517056396484376,0.8500733056640625
-0.22677166015625,0.1397736572265625,1.02579642578125
-0.3223274609375,0.02727719482421875,1.093136474609375
-0.29825615234375,-0.0082609033203125,1.0624156494140624
-0.33326896484375,0.0711483642578125,0.998762099609375
-0.26421591796875,0.0966377587890625,0.937811982421875
-0.28512634765625,-0.0366913818359375,0.814928681640625
-0.1365650390625,-0.01046671630859375,0.8741584326171875
-0.226528515625,0.0593840283203125,0.9960586669921875
-0.18227621093750002,-0.0881603515625,1.144255927734375
-0.09255587890625,-0.0141430712890625,1.2457575341796876
-0.2892598046875,0.08266760986328126,1.341852275390625
-0.5528284765625,0.19736988525390625,1.2703341943359374
-0.29169125,0.04982550537109375,0.932896650390625
-0.294608984375,0.06894255126953125,0.820335546875
-0.32086859375,0.03708080810546875,0.6986810791015625
-0.14021220703125,-0.15212892822265625,0.6436293603515625
-0.07359060546875,-0.18055940673828125,0.64829892578125
-0.09255587890625,-0.20972515625,0.716622041015625
-0.1015522265625,-0.22369530517578126,0.8812856640625
-0.36682291015625,-0.05409279541015625,1.15949345703125
-0.40767119140625,-0.0055649096679687505,1.2727918603515624
-0.24525064453125,0.0799716162109375,1.111323203125
-0.308225078125,0.03364954345703125,0.888658662109375
-0.16647181640625,0.080461796875,0.8874298291015625
-0.2153438671875,0.17286085205078125,1.1073909375
-0.226528515625,0.11060790771484375,1.2192147412109375
-0.374360390625,0.20129133056640625,1.1695698876953124
-0.17765646484375,0.18364482666015625,1.128526865234375
-0.370470078125,0.0686974609375,1.119187734375
-0.4045103125,0.09737302978515625,1.0663479150390625
-0.19832375,0.028502646484374998,0.9717277734375
-0.26664736328125,-0.0435539111328125,1.0525849853515625
-0.38238416015625,0.15668489013671874,1.234698037109375
-0.33472783203125,0.073599267578125,1.1685868212890624
-0.2824517578125,0.05962911865234375,0.9862280029296875
-0.3427516015625,0.04247279541015625,0.8697346337890625
-0.247925234375,-0.03914228515625,0.7773263916015625
-0.113709453125,-0.0298288525390625,0.78396208984375
-0.298499296875,-0.12761989501953125,0.8638362353515625
-0.27540056640625,-0.10727739746093751,0.9149556884765625
-0.21072412109375,-0.10507158447265624,1.0053977978515625
-0.24427806640625,-0.0425735498046875,1.05233921875
-0.2775888671875,0.0603643896484375,0.9901602685546875
-0.329621796875,0.1133039013671875,0.9501003125
-0.21607330078125,0.0152677685546875,1.0181776611328126
-0.159420625,-0.00948635498046875,1.1447474609375
-0.35806970703125,0.018699033203125,1.0909245751953125
-0.13048642578125,0.05717821533203125,1.011541962890625
-0.33813185546875,0.083402880859375,0.8775991650390624
-0.21072412109375,0.0191892138671875,0.841471474609375
-0.24622322265625,-0.006790361328125,0.8144371484375
-0.242089765625,0.0142874072265625,0.801165751953125
-0.14191421875,-0.0876701708984375,0.765283828125
-0.197351171875,0.02874773681640625,0.8820229638671875
-0.25983931640625,0.014777587890624999,0.991880634765625
-0.27394169921875,0.0221302978515625,1.145238994140625
-0.2878009375,0.22040837646484374,1.229291171875
-0.25594900390624997,0.0780108935546875,1.1798920849609376
-0.37849384765625,0.06060947998046875,1.168832587890625
-0.284883203125,0.061834931640625,1.12312
-0.23819945312500002,0.0231106591796875,1.0363643896484376
-0.277102578125,-0.0151234326171875,0.9773804052734375
-0.21558701171875,-0.11977700439453125,0.946659580078125
-0.2834243359375,-0.05164189208984375,0.946168046875
-0.2722396875,-0.04330882080078125,0.96877857421875
-0.22434021484375,-0.07517056396484376,1.0343982568359376
-0.38432931640625,-0.011201987304687501,1.0063808642578125
-0.36974064453125,0.00987578125,0.8785822314453124
-0.17765646484375,-0.08252327392578125,0.7633176953125
-0.31746457031249997,-0.02149578125,0.7298934375
-0.20294349609375,-0.038161923828125,0.7456225
-0.23455228515625,0.0701680029296875,0.830657744140625
-0.27540056640625,0.134381669921875,0.8628531689453125
-0.28415376953125,-0.06732767333984375,0.7866655224609375
-0.12319208984375,0.08119706787109375,0.839996875
-0.12659611328125,0.0162481298828125,0.853268271484375
-0.30117388671875,0.05325677001953125,1.0201437939453124
-0.2912049609375,0.13266603759765624,1.13196759765625
-0.15164,0.08119706787109375,1.1435186279296874
-0.4186126953125,0.03364954345703125,1.166866455078125
-0.3592854296875,-0.0249270458984375,1.2157740087890625
-0.2970404296875,0.01600303955078125,1.048406953125
-0.21121041015625,-0.07222947998046875,0.878827998046875
-0.2882872265625,-0.0680629443359375,0.8380307421875
-0.20683380859375,-0.01830960693359375,0.8073099169921875
-0.181789921875,-0.0072805419921875,0.8677685009765626
-0.34542619140624997,-0.11561046875,0.909303056640625
-0.3242726171875,0.11747043701171875,0.976151572265625
-0.15869119140625,0.1015395654296875,1.0353813232421876
-0.2668905078125,-0.0425735498046875,0.9822957373046874
-0.25546271484375,0.012816865234374999,0.88620099609375
-0.1501811328125,-0.0523771630859375,0.9547698779296875
-0.3446967578125,-0.01046671630859375,1.0869923095703125
-0.3242726171875,-0.04526954345703125,1.0914161083984375
-0.28123603515625,0.0211499365234375,1.0142453955078126
-0.39405509765625,-0.0337502978515625,0.891607861328125
-0.2255559375,0.04982550537109375,0.9247863525390625
-0.2172890234375,0.0407571630859375,0.8970147265625
-0.294608984375,-0.123453359375,0.8117337158203125
-0.17425244140625,0.05962911865234375,0.8790737646484375
-0.31624884765625,-0.0053198193359375,0.87637033203125
-0.25205869140625,0.050070595703125,0.93338818359375
-0.18640966796875,0.0770305322265625,0.9370746826171875
-0.3573402734375,0.04541387939453125,0.9363373828125
-0.187625390625,0.0005623486328125002,0.9124980224609375
-0.26859251953125,0.04786478271484375,0.8368019091796874
-0.25862359375,-0.01487834228515625,0.9262609521484375
-0.14507509765624998,0.1005592041015625,1.045949287109375
-0.45484123046875,0.026051743164062502,1.0845346435546874
-0.168173828125,0.04639424072265625,1.1287726318359375
-0.33181009765625,0.04541387939453125,0.969270107421875
-0.13729447265625,0.01845394287109375,1.010558896484375
-0.32937865234375,0.019679394531249998,0.9994993994140625
-0.13437673828125,-0.07271966064453125,0.933879716796875
-0.339347578125,-0.100905048828125,0.7615973291015625
-0.1326747265625,-0.03987755615234375,0.845403740234375
-0.14993798828125,-0.0028689160156250004,0.930438984375
-0.37168580078125,0.02972809814453125,1.0865007763671874
-0.25886673828125,-0.028113220214843748,1.103458671875
-0.2007551953125,0.16085142578125,1.0673309814453125
-0.3972159765625,0.09933375244140626,0.941744248046875
-0.1482359765625,0.0035034326171875,0.9999909326171875
-0.29363640625,0.14050892822265626,1.0452119873046875
-0.2416034765625,-0.11144393310546875,0.9926179345703126
-0.253760703125,0.10399046875,1.0850261767578124
-0.269321953125,0.1706550390625,1.0766701123046876
-0.28366748046875,-0.00581,1.0267794921875
-0.3738741015625,0.05080586669921875,1.130492998046875
-0.3184371484375,0.07776580322265625,1.0167030615234376
-0.26761994140625,-0.071494208984375,0.9100403564453124
-0.27685943359375,-0.02149578125,0.943710380859375
-0.181789921875,0.0059543359375,0.9402696484374999
-0.26907880859375,0.0564429443359375,1.0019570654296874
-0.31868029296875,0.08707923583984375,1.18505318359375
-0.29144810546875,0.101049384765625,1.1759598193359375
-0.38189787109375,-0.00360418701171875,1.163917255859375
-0.26056875,0.0299731884765625,1.0933822412109375
-0.23892888671875,0.015022678222656249,1.0855177099609374
-0.325731484375,-0.0817880029296875,1.0189149609375
-0.25983931640625,0.0348749951171875,0.831640810546875
-0.15358515625,-0.0009081933593750001,0.6824604833984375
-0.060947089843749996,0.0309535498046875,0.8245135791015625
-0.28561263671875,0.0030132519531249997,1.0481611865234375
-0.22385392578125,0.05913893798828125,1.36397126953125
-0.50249755859375,0.07531489990234375,1.3627424365234375
-0.43757796875,0.095167216796875,1.1037044384765624
-0.411318359375,-0.01879978759765625,0.902913125
-0.29631099609375,-0.046004814453125,0.8653108349609375
-0.30214646484375,-0.01953505859375,0.848352939453125
-0.19808060546875,-0.042083369140625,0.751029365234375
-0.06799828125,-0.04575972412109375,0.7045794775390625
-0.14993798828125,-0.04870080810546875,0.828691611328125
-0.16063634765625,0.00766996826171875,0.9891772021484375
-0.2240970703125,0.00717978759765625,1.0235845263671874
-0.4122909375,0.04443351806640625,1.0196522607421874
-0.24476435546875,0.0691876416015625,1.0363643896484376
-0.28269490234375,0.024581201171875,1.001219765625
-0.3816547265625,0.08217742919921875,1.0899415087890625
-0.26324333984375,0.028502646484374998,1.187510849609375
-0.29874244140625,0.0799716162109375,1.1762055859375
-0.23114826171875,0.04051207275390625,1.14573052734375
-0.24306234375,0.05423713134765625,1.1690783544921874
-0.37557611328125,0.0012976196289062499,1.0756870458984376
-0.19905318359375002,-0.0190448779296875,0.905370791015625
-0.20294349609375,0.00619942626953125,0.8736668994140625
-0.14361623046875,-0.1788437744140625,0.94321884765625
-0.1725504296875,-0.04526954345703125,1.0857634765625
-0.23552486328125,0.06109966064453125,1.1076367041015625
-0.33618669921875,-0.06193568603515625,1.0063808642578125
-0.25692158203125,0.095167216796875,1.0860092431640624
-0.37460353515625,0.08756941650390625,1.0348897900390626
-0.27929087890625,-0.09722869384765626,0.9724650732421874
-0.22190876953125,0.1623219677734375,1.027271025390625
-0.25011353515625,0.12629368896484375,1.1331964306640625
-0.3301080859375,0.08805959716796875,1.263206962890625
-0.29363640625,-0.12933552734375,1.340869208984375
-0.3466419140625,-0.01291761962890625,1.2496897998046874
-0.27272597656249997,-0.01095689697265625,0.9061080908203125
-0.09523046875,-0.19722554931640626,0.726452705078125
-0.1492085546875,-0.04306373046875,0.8360646093749999
-0.2581373046875,-0.0680629443359375,0.96877857421875
-0.4166675390625,-0.12320826904296875,1.10444173828125
-0.50152498046875,-0.11144393310546875,0.9867195361328125
-0.24281919921875,0.0059543359375,0.7291561376953125
-0.242089765625,-0.12761989501953125,0.5482719189453125
-0.2250696484375,-0.1111988427734375,0.5187799267578125
-0.1861665234375,0.0280124658203125,0.6131543017578125
-0.22871681640625,0.0191892138671875,0.686146982421875
-0.15358515625,-0.0097314453125,0.8952943603515625
-0.2202067578125,0.10202974609375,1.182595517578125
-0.35588140625,0.16354741943359374,1.245020234375
-0.2153438671875,0.1368325732421875,1.0624156494140624
-0.29679728515625,0.0809519775390625,0.9985163330078125
-0.16160892578125,-0.0494360791015625,0.9434646142578125
-0.19613544921875,0.071638544921875,1.0457035205078125
-0.32111173828125,-0.020515419921875,1.0948568408203125
-0.41691068359375,-0.0425735498046875,1.065610615234375
-0.27394169921875,-0.04428918212890625,0.95698177734375
-0.29971501953125,0.0201695751953125,0.8643277685546875
-0.22920310546875,-0.03203466552734375,0.8997181591796874
-0.189570546875,-0.03203466552734375,0.8530225048828125
-0.27053767578125,0.04296297607421875,0.9596852099609375
-0.1944334375,-0.04134809814453125,1.0530765185546875
-0.11784291015625001,-0.04968116943359375,1.1007552392578126
-0.2630001953125,0.08021670654296875,1.0348897900390626
-0.35612455078125,-0.048455717773437504,0.863098935546875
-0.29193439453125003,0.010611052246093749,0.7788009912109375
-0.22628537109375,-0.10727739746093751,0.661570322265625
-0.2552195703125,-0.05801424072265625,0.7751144921875
-0.24087404296875,-0.083258544921875,0.9513291455078126
-0.3320532421875,0.008405239257812499,1.1277895654296874
-0.29436583984375,0.083402880859375,1.16539185546875
-0.3952708203125,-0.0180645166015625,1.1140266357421875
-0.29825615234375,0.08903995849609375,0.9370746826171875
-0.22361078125,-0.008996174316406251,0.6416632275390625
0.006647089843749999,0.0221302978515625,0.66796025390625
-0.2133987109375,0.024581201171875,0.8687515673828125
-0.337402421875,0.02482629150390625,1.0975602734375
-0.30700935546875,0.1260485986328125,1.0879753759765625
-0.36536404296875,0.101049384765625,1.009575830078125
-0.31308796875,0.136342392578125,0.8997181591796874
-0.08331638671875,0.1427147412109375,0.992863701171875
-0.27540056640625,0.14737145751953126,1.09264494140625
-0.3344846875,0.0966377587890625,1.2020110791015626
-0.35661083984374997,-0.107767578125,1.1410609619140626
-0.338375,-0.012427438964843749,0.996795966796875
-0.19637859375,0.01208159423828125,0.933879716796875
-0.2561921484375,-0.0406128271484375,0.993355234375
-0.21072412109375,-0.01561361328125,1.06118681640625
-0.3656071875,-0.06340622802734375,0.996795966796875
-0.22336763671875,-0.05164189208984375,0.9257694189453125
-0.19224513671875,-0.1631579931640625,0.808047216796875
-0.31527626953125,-0.12369844970703125,0.87243806640625
-0.2610550390625,0.00717978759765625,0.8667854345703125
-0.14750654296875,-0.0994345068359375,0.875878798828125
-0.36050115234375,0.019434304199218752,1.0582376171875
-0.32159802734375,0.0417375244140625,1.0791277783203126
-0.27151025390625,0.065756376953125,0.8913620947265625
-0.12635296875,0.04443351806640625,0.863098935546875
-0.302389609375,0.14246965087890626,1.0442289208984374
-0.23357970703125,0.0672269189453125,1.1710444873046875
-0.31722142578125,0.1005592041015625,1.2295369384765624
-0.3330258203125,0.17653720703125,1.02972869140625
-0.22823052734375,0.04933532470703125,0.889641728515625
-0.2153438671875,0.13217585693359374,0.9493630126953125
-0.34056330078125,0.0574233056640625,1.1499085595703125
-0.30919765625,0.07090327392578125,1.24403716796875
-0.28391062499999997,0.05031568603515625,1.1676037548828124
-0.294608984375,0.08119706787109375,1.0936280078125
-0.25692158203125,-0.060710234375,0.959439443359375
-0.20586123046875,0.059874208984374996,0.97467697265625
-0.28196546875,0.0897752294921875,1.1007552392578126
-0.35077537109375,-0.01978014892578125,1.148188193359375
-0.299471875,0.01575794921875,1.2113502099609375
-0.2484115234375,-0.1131595654296875,1.1051790380859374
-0.18227621093750002,-0.0729647509765625,1.0044147314453125
-0.27540056640625,-0.104826494140625,0.867031201171875
-0.20342978515625,-0.1298257080078125,0.832623876953125
-0.2542469921875,-0.04723026611328125,0.896523193359375
-0.40864376953125,-0.0327699365234375,0.883743330078125
-0.16306779296875,-0.08644471923828125,0.9041419580078125
-0.31722142578125,0.00619942626953125,0.9626344091796875
-0.23212083984375,-0.0082609033203125,0.956490244140625
-0.08380267578125,-0.106787216796875,0.985982236328125
-0.35855599609375,-0.0013983740234375002,1.14671359375
-0.35272052734375,0.114774443359375,1.0511103857421875
-0.22361078125,0.11747043701171875,0.9881941357421875
-0.312115390625,0.083402880859375,0.9749227392578125
-0.19516287109375,0.06404074462890624,0.8662939013671875
-0.21072412109375,0.0103659619140625,0.871946533203125
-0.28585578125,0.14099910888671874,0.8800568310546875
-0.1025248046875,0.17384121337890626,0.948625712890625
-0.30457791015625,0.04247279541015625,1.077407412109375
-0.31576255859375,0.06894255126953125,1.1695698876953124
-0.2970404296875,-0.0038492773437499997,1.11427240234375
-0.2411171875,0.08953013916015624,1.0503730859375
-0.34737134765625,0.05962911865234375,0.9756600390625
-0.24306234375,-0.048945898437499996,0.991880634765625
-0.23260712890625002,0.04443351806640625,1.069542880859375
-0.216802734375,-0.09330724853515625,0.9931094677734374
-0.21266927734375,-0.13717841796875,0.9616513427734374
-0.240144609375,-0.06634731201171876,0.965337841796875
-0.23212083984375,-0.12026718505859375,0.8989808593749999
-0.29144810546875,-0.0415931884765625,0.866048134765625
-0.25838044921875,-0.0925719775390625,0.8328696435546875
-0.22871681640625,-0.06046514404296875,0.8250051123046875
-0.23649744140625,-0.059729873046875,0.8225474462890625
-0.268349375,-0.05752406005859375,0.8989808593749999
-0.321841171875,-0.01732924560546875,0.993355234375
-0.2707808203125,0.0544822216796875,0.9813126708984374
-0.23114826171875,0.03928662109375,0.9606682763671874
-0.26713365234374997,0.030463369140625002,1.011541962890625
-0.28074974609375003,0.15570452880859376,0.988931435546875
-0.203186640625,0.030463369140625002,0.8889044287109376
-0.22871681640625,0.03561026611328125,0.9031588916015625
-0.23795630859375,0.106931552734375,0.8913620947265625
-0.2411171875,0.046149150390625,0.9798380712890625
-0.23163455078125,0.1113431787109375,1.04152548828125
-0.331566953125,0.1231075146484375,1.0078554638671875
-0.2717533984375,0.120656611328125,1.055779951171875
-0.3252451953125,0.0373258984375,1.0560257177734376
-0.22701480468750002,-0.0016434643554687498,1.0575003173828126
-0.3573402734375,-0.00948635498046875,0.987948369140625
-0.314060546875,-0.0239466845703125,1.00416896484375
-0.1900568359375,0.0701680029296875,0.8559717041015625
-0.20780638671875,-0.069533486328125,0.7203085400390625
-0.25108611328125,-0.10556176513671875,0.7345630029296875
-0.1579617578125,-0.083258544921875,0.7768348583984375
-0.15358515625,-0.04330882080078125,0.851793671875
-0.27442798828125,-0.12418863037109375,1.0307117578125
-0.38043900390625,-0.0788469189453125,1.0948568408203125
-0.2221519140625,0.0799716162109375,0.934862783203125
-0.31624884765625,0.02752228515625,0.92355751953125
-0.40937320312500003,0.10766682373046875,0.9709904736328125
-0.3378887109375,-0.03987755615234375,0.9469053466796875
-0.20245720703125,0.1084020947265625,1.0117877294921875
-0.30166017578125,-0.0543378857421875,0.9009469921875
-0.16063634765625,0.03315936279296875,0.930438984375
-0.13000013671875,0.01600303955078125,0.9611598095703124
-0.426879609375,-0.00752563232421875,0.990897568359375
-0.1443456640625,0.08242251953125,1.0511103857421875
-0.2309051171875,0.0633054736328125,1.0339067236328126
-0.30214646484375,0.0010525292968750002,0.9493630126953125
-0.22579908203125,0.09835339111328124,0.997779033203125
-0.24914095703125,-0.03203466552734375,1.0815854443359374
-0.33813185546875,0.0593840283203125,1.051847685546875
-0.30141703125,0.1348718505859375,1.0147369287109376
-0.3505322265625,0.15276344482421875,0.9872110693359375
-0.38335673828125,0.152028173828125,0.99827056640625
-0.27831830078124997,0.08119706787109375,1.0127707958984375
-0.21364185546875,-0.01046671630859375,1.005643564453125
-0.27515742187500003,-0.02223105224609375,0.9245405859375
-0.1453182421875,-0.0371815625,0.8284458447265625
-0.14215736328125,-0.14036459228515624,0.8741584326171875
-0.37265837890625,-0.073454931640625,1.0078554638671875
-0.26032560546875,-0.0798272802734375,1.002694365234375
-0.35272052734375,0.0897752294921875,1.067576748046875
-0.3505322265625,0.0819323388671875,0.8928366943359375
-0.29631099609375,-0.04330882080078125,0.8795652978515625
-0.30020130859375,0.11379408203125,1.055779951171875
-0.11492517578125,0.019679394531249998,1.096085673828125
-0.30627992187499997,0.13364639892578126,1.1722733203125
-0.40037685546875,0.03904153076171875,1.0982975732421876
-0.07942607421875,-0.01585870361328125,0.9508376123046876
-0.253760703125,0.1157548046875,1.0486527197265625
-0.41788326171875,-0.0371815625,1.0737209130859375
-0.07115916015625,0.03757098876953125,1.0786362451171876
-0.23601115234375,0.108892275390625,1.1179589013671876
-0.40961634765625,-0.06536695068359374,1.1887396826171874
-0.34834392578125,0.06992291259765625,1.0555341845703126
-0.24281919921875,-0.05017135009765625,0.88816712890625
-0.2989855859375,-0.01953505859375,0.8537598046875
-0.19662173828125,-0.044534272460937496,0.8638362353515625
-0.23163455078125,0.063795654296875,1.0545511181640626
-0.18154677734375,-0.01781942626953125,1.246494833984375
-0.20051205078125,0.10129447509765625,1.282868291015625
-0.32986494140625,0.1603612451171875,1.3234197802734375
-0.26810623046875,-0.008996174316406251,1.213562109375
-0.2591098828125,-0.01928996826171875,1.09952640625
-0.2620276171875,0.0530116796875,1.100017939453125
-0.3427516015625,-0.02615249755859375,1.0009739990234374
-0.25011353515625,-0.030319033203124998,0.9242948193359375
-0.27442798828125,0.03904153076171875,0.89799779296875
-0.34153587890625,-0.1023755908203125,0.8200897802734375
-0.1589343359375,-0.09085634521484375,0.884726396484375
-0.34104958984375,-0.01683906494140625,0.98450763671875
-0.3699837890625,-0.1533543798828125,0.856217470703125
-0.11395259765625,-0.0043394580078125,0.766758427734375
-0.25692158203125,0.02139502685546875,0.8092760498046875
-0.24427806640625,0.014777587890624999,0.9164302880859375
-0.22725794921875,0.14590091552734374,1.043983154296875
-0.32889236328125,0.02923791748046875,1.06511908203125
-0.21461443359375,0.004973974609375,1.0766701123046876
-0.2591098828125,0.0878145068359375,1.0171945947265626
-0.267376796875,0.030463369140625002,0.947642646484375
-0.20537494140625,0.01012087158203125,0.979100771484375
-0.370470078125,0.02923791748046875,1.0228472265625
-0.325731484375,-0.05850442138671875,1.0103131298828125
-0.25692158203125,0.02041466552734375,0.9080742236328125
-0.2523018359375,0.01012087158203125,0.887675595703125
-0.16598552734375,-0.04306373046875,0.9129895556640625
-0.15723232421875,0.0003172583007812497,0.952557978515625
-0.25011353515625,-0.06659240234375,0.9837703369140625
-0.33861814453125,0.03610044677734375,1.0516019189453125
-0.27637314453125,0.09296140380859375,1.087729609375
-0.335457265625,0.04835496337890625,1.024813359375
-0.24306234375,-0.02909358154296875,0.9835245703125
-0.27394169921875,-0.06659240234375,0.8166490478515624
-0.209022109375,-0.06977857666015624,0.72497810546875
-0.16063634765625,-0.085219267578125,0.75840236328125
-0.24306234375,-0.0719843896484375,0.8775991650390624
-0.22968939453125,-0.04698517578125,0.9046334912109375
-0.25740787109375,0.093206494140625,1.009084296875
-0.3096839453125,0.0037485229492187503,1.0633987158203124
-0.2999581640625,0.067717099609375,1.039067822265625
-0.236254296875,0.07261890625,0.9945840673828125
-0.23309341796875,0.05521749267578125,0.9813126708984374
-0.25400384765625,0.04786478271484375,0.994829833984375
-0.38238416015625,0.0012976196289062499,0.8874298291015625
-0.17036212890625,0.06698182861328125,0.856217470703125
-0.27807515625,0.048109873046875,0.8043607177734375
-0.18859796875,0.00325834228515625,0.8544971044921875
-0.2007551953125,0.01551285888671875,1.0029401318359374
-0.39648654296875,0.018699033203125,1.0535680517578125
-0.12659611328125,0.00619942626953125,0.946659580078125
-0.27807515625,-0.01953505859375,0.8360646093749999
-0.2318776953125,0.06796218994140625,0.95796484375
-0.346155625,0.0691876416015625,0.999745166015625
-0.2513292578125,0.02433611083984375,1.0149826953125
-0.3466419140625,0.0843832421875,1.0535680517578125
-0.22142248046875002,0.00987578125,0.9857364697265625
-0.1579617578125,0.0633054736328125,0.8589209033203125
-0.12124693359375,0.0319339111328125,0.902421591796875
-0.2566784375,0.04100225341796875,0.9528037451171875
-0.18981369140625,-0.05850442138671875,0.9857364697265625
-0.28804408203125,-0.0013983740234375002,0.9520664453125
-0.29533841796875,0.0035034326171875,0.95698177734375
-0.27491427734375,0.0436982470703125,0.92945591796875
-0.23503857421875,0.00963069091796875,0.9154472216796875
-0.2309051171875,0.05889384765625,0.9324051171875
-0.29242068359375,0.046149150390625,0.9110234228515625
-0.25594900390624997,0.06992291259765625,0.9478884130859375
-0.3233000390625,0.1025199267578125,0.9650920751953125
-0.20683380859375,0.08634396484375,1.0068723974609375
-0.25838044921875,0.12531332763671876,1.078390478515625
-0.335457265625,0.06747200927734374,1.0466865869140625
-0.234309140625,-0.05311243408203125,0.9582106103515625
-0.14312994140625,-0.06389640869140625,0.88423486328125
-0.16063634765625,-0.0210056005859375,1.0044147314453125
-0.25497642578125,-0.0063001806640625,1.1307387646484375
-0.37411724609375,0.014777587890624999,1.1233657666015624
-0.354908828125,-0.03693647216796875,0.9906518017578125
-0.2630001953125,-0.030319033203124998,0.9115149560546875
-0.203186640625,-0.10016977783203125,0.8082929833984375
-0.15382830078125,-0.03938737548828125,0.8525309716796875
-0.22288134765625,-0.0837487255859375,0.758893896484375
-0.2454937890625,0.004973974609375,0.83311541015625
-0.1783858984375,0.00963069091796875,0.98450763671875
-0.216802734375,-0.00777072265625,1.130492998046875
-0.31089966796875,0.13511694091796875,1.130492998046875
-0.20051205078125,0.101049384765625,0.9559987109375
-0.300444453125,0.143204921875,0.9183964208984375
-0.27977716796875,0.157910341796875,1.0186691943359376
-0.3583128515625,0.067717099609375,1.0083469970703125
-0.2260422265625,0.040266982421875,1.053813818359375
-0.24962724609375,0.05717821533203125,0.9700074072265625
-0.1803310546875,-0.06487677001953125,0.9414984814453125
-0.23844259765625,-0.0249270458984375,1.02383029296875
-0.3874901953125,0.00472888427734375,1.1445016943359374
-0.40669861328125,0.07727562255859374,1.0963314404296876
-0.31041337890625,0.04786478271484375,1.0658563818359374
-0.25862359375,0.122617333984375,1.0982975732421876
-0.28196546875,0.0201695751953125,1.0088385302734375
-0.26713365234374997,-0.069533486328125,0.9031588916015625
-0.279047734375,-0.10727739746093751,0.810013349609375
-0.2357680078125,-0.0960032421875,0.7463597998046875
-0.21801845703125,-0.09232688720703125,0.820335546875
-0.2644590625,-0.14502130859375,0.944693447265625
-0.25594900390624997,-0.01438816162109375,1.03661015625
-0.3096839453125,-0.0023787353515625003,1.043000087890625
-0.3213548828125,0.0059543359375,1.0550426513671876
-0.30214646484375,0.055462583007812497,1.021372626953125
-0.26640421875,7.216796875000007e-05,0.9233117529296875
-0.234309140625,0.03806116943359375,0.9088115234375
-0.2678630859375,-0.0151234326171875,0.8874298291015625
-0.19516287109375,-0.0268877685546875,0.875878798828125
-0.213885,0.0299731884765625,0.978117705078125
-0.2610550390625,0.01747358154296875,1.0904330419921875
-0.3660934765625,0.1015395654296875,1.1961126806640625
-0.35369310546875,0.087324326171875,1.1368829296875
-0.26032560546875,0.05521749267578125,0.959439443359375
-0.27199654296875,-0.02149578125,0.7473428662109375
-0.14410251953125,-0.08007237060546875,0.783470556640625
-0.1890842578125,-0.0327699365234375,0.8721922998046875
-0.1735230078125,0.030708459472656248,1.0683140478515625
-0.2095083984375,0.048109873046875,1.3352165771484374
-0.34299474609375,0.1123235400390625,1.5819662451171874
-0.46748474609375,0.07384435791015626,1.571889814453125
-0.5000661132812501,-0.07173929931640625,1.3180129150390625
-0.39989056640625,-0.0033590966796874996,1.1329506640625
-0.15091056640625,-0.1430605859375,0.8707177001953125
-0.1258666796875,-0.208744794921875,0.6603414892578126
-0.1735230078125,-0.19183356201171875,0.7237492724609375
-0.125380390625,-0.22320512451171876,0.702859111328125
-0.1453182421875,0.026296833496093748,0.7556989306640625
-0.244034921875,0.12555841796875,0.953541044921875
-0.28950294921874997,-0.0455146337890625,1.151137392578125
-0.46262185546875,0.085363603515625,1.3101483837890624
-0.4691867578125,0.15619470947265626,1.1754682861328125
-0.337402421875,0.0486000537109375,0.9739396728515625
-0.2221519140625,0.06011929931640625,0.729401904296875
-0.16404037109375,0.0887948681640625,0.6220018994140625
-0.10519939453125,0.056933125,0.6905707812499999
-0.13948277343749999,0.05619785400390625,0.855234404296875
-0.2357680078125,-0.016593974609375,0.993846767578125
-0.29922873046875,-0.077376376953125,1.1749767529296875
-0.26567478515625,-0.1062970361328125,1.24796943359375
-0.2746711328125,-0.02076051025390625,1.30105501953125
-0.4079143359375,-0.0210056005859375,1.1120605029296875
-0.32305689453124997,0.05668803466796875,1.0425085546875
-0.28634207031250003,0.0544822216796875,0.914709921875
-0.2873146484375,-0.00801581298828125,0.8930824609375
-0.19808060546875,-0.02713285888671875,0.9397781152343749
-0.19370400390625,-0.065612041015625,0.978117705078125
-0.14021220703125,-0.1062970361328125,1.1290183984375
-0.09644619140624999,-0.0180645166015625,1.1862820166015624
-0.29096181640625,-0.00213364501953125,1.1454847607421874
-0.30214646484375,-0.07566074462890625,1.01989802734375
-0.28026345703125,-0.0582593310546875,1.040050888671875
-0.24573693359375,-0.1935491943359375,1.146222060546875
-0.3563676953125,-0.0935523388671875,1.16539185546875
-0.37849384765625,0.130460224609375,0.944693447265625
-0.426879609375,0.0633054736328125,0.7861739892578125
-0.2873146484375,0.15766525146484375,0.741690234375
-0.005510136718749999,0.019679394531249998,0.7121982421874999
-0.0052669921875,-0.0386521044921875,0.6571465234375
-0.14653396484375,0.01208159423828125,0.6431378271484375
-0.27005138671875,-0.0411030078125,0.5988998388671875
-0.21583015625000002,0.04688442138671875,0.62667146484375
-0.2022140625,0.155949619140625,0.78986048828125
-0.28220861328125,0.026541923828125,0.9552614111328125
-0.25449013671875,-0.047965537109375,1.1277895654296874
-0.32111173828125,0.05619785400390625,0.956490244140625
-0.21753216796875,-0.04526954345703125,0.859166669921875
-0.3145468359375,-0.08619962890625,0.8254966455078125
-0.41107521484375,-0.04379900146484375,1.008592763671875
-0.349073359375,0.07261890625,1.1243488330078124
-0.33959072265625,-0.18521612304687501,0.9999909326171875
-0.0004041015625000019,-0.0612004150390625,0.9164302880859375
-0.0762651953125,-0.11193411376953125,0.7139186083984375
-0.024232265625,-0.03497574951171875,0.7055625439453125
-0.012075039062500001,-0.0876701708984375,0.935845849609375
-0.3194097265625,0.0819323388671875,1.2627154296875
-0.52827087890625,0.1240878759765625,1.3597932373046875
-0.48547744140625,-0.04134809814453125,1.2469863671875
-0.42590703125,0.0956573974609375,0.8891501953125
-0.2649453515625,-0.1033559521484375,0.6052897705078125
-0.2532744140625,-0.17026561279296876,0.5568737500000001
-0.29971501953125,-0.18252012939453124,0.71907970703125
-0.2386857421875,-0.16242272216796874,0.7733941259765625
-0.14556138671875,-0.1945295556640625,0.75053783203125
-0.0490330078125,-0.0249270458984375,0.860149736328125
-0.16404037109375,-0.00997653564453125,0.816894814453125
-0.27637314453125,0.0280124658203125,0.8200897802734375
-0.222638203125,0.14933218017578126,0.8417172412109375
-0.22361078125,0.22482000244140626,0.9945840673828125
-0.3267040625,0.20521277587890624,1.0179318945312499
-0.5110076171875,0.02090484619140625,0.92650671875
-0.391866796875,0.197124794921875,0.8402426416015625
-0.26032560546875,0.1471263671875,0.7325968701171874
-0.02009880859375,0.023845930175781252,0.830657744140625
-0.052680175781250005,0.00963069091796875,0.990897568359375
-0.17133470703125,-0.0210056005859375,1.0289913916015625
-0.17182099609375,-0.0004180126953125,1.2197062744140625
-0.28974609375,0.1133039013671875,1.4261502197265625
-0.39697283203125,0.08315779052734375,1.4168110888671874
-0.46286499999999997,0.0407571630859375,1.2614865966796875
-0.38043900390625,0.03364954345703125,1.0543053515625
-0.399647421875,0.048109873046875,0.8254966455078125
-0.37654869140625,-0.0013983740234375002,0.695977646484375
-0.19637859375,-0.04968116943359375,0.7709364599609375
-0.21996361328125,0.04982550537109375,1.0250591259765625
-0.23139140625,-0.13595296630859374,1.107882470703125
-0.23844259765625,-0.0592396923828125,1.1189419677734376
-0.11638404296875,-0.11683592041015625,1.0304659912109375
-0.08039865234375,-0.02272123291015625,0.9614055761718749
-0.15625974609374998,0.012816865234374999,0.949608779296875
-0.20488865234375,0.0574233056640625,1.261240830078125
-0.4263933203125,0.01208159423828125,1.426395986328125
-0.3690112109375,0.0123266845703125,1.2747579931640625
-0.30360533203125,0.110852998046875,1.1017383056640626
-0.42225986328125,0.15325362548828125,1.1597392236328126
-0.518301953125,0.17433139404296874,1.1302472314453125
-0.41934212890625,-0.03105430419921875,0.895540126953125
-0.13778076171875,-0.03154448486328125,0.8702261669921875
-0.15091056640625,0.02923791748046875,0.8065726171875
-0.08915185546875,0.02041466552734375,0.859658203125
-0.06386482421875,0.0348749951171875,0.9847534033203125
-0.30798193359375,0.16746886474609374,1.093136474609375
-0.28853037109375,0.14982236083984374,1.2152824755859375
-0.2523018359375,-0.0004180126953125,1.4458115478515625
-0.50833302734375,0.17090012939453125,1.5495250537109375
-0.34421046875,0.04394333740234375,1.260257763671875
-0.3388612890625,-0.04698517578125,1.0810939111328124
-0.430769921875,0.1054610107421875,0.9385492822265625
-0.273212265625,-0.04821062744140625,0.890624794921875
-0.27005138671875,-0.13595296630859374,0.9046334912109375
-0.18495080078125,0.0525214990234375,0.9166760546875
-0.1871391015625,-0.13840386962890625,0.9940925341796875
-0.0889087109375,-0.13693332763671875,1.1054248046875
-0.3583128515625,-0.1994313623046875,1.217985908203125
-0.27880458984375,-0.1121792041015625,1.28729208984375
-0.500795546875,-0.06095532470703125,1.0889584423828125
-0.42712275390625,-0.077376376953125,0.83311541015625
-0.28220861328125,-0.020515419921875,0.5915268408203125
-0.20488865234375,-0.09012107421875,0.48707603515625
-0.11054857421875,-0.1690401611328125,0.5246783251953124
-0.08307324218750001,-0.19330410400390624,0.606518603515625
-0.08477525390625,-0.1288453466796875,0.9223286865234375
-0.2756437109375,0.0868341455078125,1.372327333984375
-0.423961875,0.05864875732421875,1.5701694482421875
-0.28415376953125,0.206928408203125,1.50749896484375
-0.35272052734375,0.1878113623046875,1.319241748046875
-0.3111428125,0.0731090869140625,1.1390948291015626
-0.2746711328125,0.05619785400390625,1.016948828125
-0.19321771484375,-0.0464949951171875,0.8195982470703125
-0.2450075,-0.0906112548828125,0.751029365234375
-0.3033621875,-0.091101435546875,0.785436689453125
-0.35855599609375,-0.15212892822265625,0.74463943359375
-0.40475345703125,0.0142874072265625,0.7070371435546875
-0.237226875,0.059874208984374996,0.6497735253906249
-0.05122130859375,-0.006790361328125,0.7869112890625
-0.1725504296875,0.16869431640625,1.1093570703125
-0.3709563671875,0.13756784423828125,1.3020380859375
-0.16744439453124998,-0.02664267822265625,1.3135891162109374
-0.3855450390625,0.05178622802734375,1.217494375
-0.335457265625,0.009140510253906251,1.0584833837890626
-0.2736985546875,-0.04477936279296875,0.91569298828125
-0.34688505859375,-0.03203466552734375,0.8186151806640625
-0.2299325390625,-0.0837487255859375,0.65223119140625
-0.15528716796875,-0.1533543798828125,0.664519521484375
-0.1628246484375,-0.1533543798828125,0.851302138671875
-0.17571130859375,-0.11928682373046876,0.9862280029296875
-0.26421591796875,-0.044044091796875,1.027271025390625
-0.41253408203124997,0.02580665283203125,0.961897109375
-0.23795630859375,0.0221302978515625,0.8294289111328125
-0.19346085937500002,0.12384278564453124,0.82328474609375
-0.2386857421875,0.1554594384765625,0.81640328125
-0.06435111328125,-0.012427438964843749,0.8456495068359375
-0.1414279296875,0.14197947021484375,1.139340595703125
-0.374360390625,0.2025167822265625,1.3111314501953124
-0.37265837890625,0.0765403515625,1.33251314453125
-0.36341888671875,0.2368294287109375,1.324157080078125
-0.2177753125,0.15300853515625001,1.1061621044921874
-0.30530734375,0.03462990478515625,0.8869382958984375
-0.17862904296875,-0.04379900146484375,0.781504423828125
-0.10714455078125,-0.04968116943359375,0.7200627734375
-0.2143712890625,-0.0631611376953125,0.7099863427734375
-0.24573693359375,-0.10311086181640625,0.739232568359375
-0.16841697265625,-0.16854998046875,0.92355751953125
-0.26664736328125,-0.18399067138671876,1.07494974609375
-0.41058892578125,-0.095022880859375,1.083305810546875
-0.31868029296875,-0.0915916162109375,0.9481341796875
-0.263486484375,0.0103659619140625,0.86457353515625
-0.11881548828124999,0.0010525292968750002,0.847369873046875
-0.3009307421875,0.17482157470703125,1.0975602734375
-0.2834243359375,0.267710810546875,1.2295369384765624
-0.1073876953125,0.10374537841796876,1.1705529541015625
-0.12805498046875,0.14050892822265626,1.147205126953125
-0.19078626953125,0.0319339111328125,1.1558069580078125
-0.2318776953125,0.057913486328125,1.1508916259765625
-0.41107521484375,0.11894097900390625,1.067576748046875
-0.415208671875,0.0907555908203125,0.8638362353515625
-0.397702265625,-0.006790361328125,0.768724560546875
-0.2843969140625,-0.0210056005859375,0.644858193359375
-0.22385392578125,-0.0028689160156250004,0.548517685546875
-0.1161408984375,0.03315936279296875,0.5492549853515625
-0.15917748046875,-0.02713285888671875,0.7384952685546875
-0.3135742578125,0.0633054736328125,0.9609140429687499
-0.46019041015625,-0.07860182861328124,0.9375662158203125
-0.25594900390624997,-0.1013952294921875,0.8574463037109374
-0.1866528125,0.00717978759765625,0.6814774169921874
-0.1205175,-0.14722712158203125,0.56572134765625
-0.14969484375,-0.21634259521484375,0.702859111328125
-0.2279873828125,-0.0847290869140625,1.0053977978515625
-0.23819945312500002,0.08242251953125,1.221918173828125
-0.37557611328125,0.2456526806640625,1.38953099609375
-0.47575166015625,0.23413343505859374,1.2944193212890625
-0.34445361328125,0.08511851318359374,1.0184234277343749
-0.3203823046875,0.1554594384765625,0.7323511035156249
-0.14750654296875,0.07776580322265625,0.605535537109375
-0.007455292968749999,-0.063651318359375,0.6755790185546875
-0.1210037890625,-0.08423890625,0.9994993994140625
-0.3631757421875,-0.05703387939453125,1.3175213818359375
-0.49131291015625,-0.0332601171875,1.3843698974609375
-0.368524921875,0.09933375244140626,1.182595517578125
-0.2668905078125,-0.05874951171875,0.8771076318359375
-0.16015005859375,0.02580665283203125,0.8380307421875
-0.23819945312500002,0.11992134033203125,0.8574463037109374
-0.1633109375,-0.01953505859375,0.9813126708984374
-0.16744439453124998,0.1250682373046875,1.1408151953125
-0.40086314453125,0.10472573974609375,1.275003759765625
-0.34445361328125,-0.0001729223632812504,1.1715360205078125
-0.31624884765625,0.022620478515625,1.0633987158203124
-0.19467658203125,-0.1680597998046875,1.0383305224609374
-0.30603677734375,-0.118551552734375,1.09952640625
-0.26567478515625,0.0030132519531249997,1.00023669921875
-0.28901666015625,-0.13350206298828124,0.823776279296875
-0.23917203125,-0.07664110595703125,0.8215643798828125
-0.27734572265625,0.0373258984375,0.8028861181640625
-0.2192341796875,0.124578056640625,0.9326508837890625
-0.34639876953125,0.0505607763671875,0.886692529296875
-0.2892598046875,0.004973974609375,0.784453623046875
-0.1210037890625,-0.08987598388671875,0.783470556640625
-0.32402947265625,-0.0229663232421875,0.991880634765625
-0.22677166015625,0.05031568603515625,1.1513831591796875
-0.299471875,0.0427178857421875,1.295648154296875
-0.46481015625,0.1927131689453125,1.206189111328125
-0.32013916015625,0.238299970703125,0.9709904736328125
-0.14945169921875,0.15521434814453125,0.7751144921875
-0.12610982421875,0.0451687890625,0.8210728466796875
-0.220693046875,0.011346323242187501,0.9739396728515625
-0.25059982421875,-0.0006631030273437505,1.0629071826171874
-0.30409162109375,-0.0268877685546875,0.9154472216796875
-0.32451576171875,-0.00213364501953125,0.8254966455078125
-0.22288134765625,-0.00654527099609375,0.875387265625
-0.26664736328125,-0.0651218603515625,1.0078554638671875
-0.28804408203125,-0.020515419921875,1.1754682861328125
-0.33181009765625,-0.0396324658203125,1.08478041015625
-0.26664736328125,-0.06095532470703125,0.9252778857421875
-0.168173828125,0.03512008544921875,0.88816712890625
-0.2644590625,0.026541923828125,0.8834975634765625
-0.234309140625,-0.03889719482421875,0.8751414990234375
-0.14264365234375,0.0721287255859375,0.9724650732421874
-0.230418828125,0.01183650390625,1.028745625
-0.24670951171875,-0.09967959716796874,1.0629071826171874
-0.25497642578125,-0.07222947998046875,1.102967138671875
-0.38676076171875,-0.06095532470703125,0.9744312060546875
-0.1321884375,-0.0798272802734375,0.8608870361328125
-0.30506419921875,0.0064445166015625,0.88816712890625
-0.21169669921875,-0.00948635498046875,1.0019570654296874
-0.2056180859375,-0.04968116943359375,1.0771616455078126
-0.36828177734375,0.06109966064453125,1.2076637109375
-0.2523018359375,0.04443351806640625,1.065610615234375
-0.19419029296875,0.0093856005859375,0.954032578125
-0.27248283203125,0.097127939453125,0.9191337207031249
-0.187625390625,0.004973974609375,0.9798380712890625
-0.28901666015625,0.14050892822265626,1.0742124462890625
-0.36366203125,0.04296297607421875,1.047915419921875
-0.1453182421875,-0.015368522949218751,0.9021758251953125
-0.30652306640625,0.0044837939453125,0.7935469873046875
-0.30846822265625,0.04124734375,0.8023945849609375
-0.23528171875,-0.0543378857421875,0.7837163232421875
-0.27005138671875,0.0211499365234375,0.870963466796875
-0.300444453125,0.033404453125,0.9395323486328125
-0.37898013671874997,0.06158984130859375,1.0334151904296875
-0.2853694921875,0.010611052246093749,1.0226014599609374
-0.26081189453125,0.161831787109375,1.040542421875
-0.30457791015625,0.0329142724609375,0.954524111328125
-0.2177753125,-0.0254172265625,0.9297016845703125
-0.2659179296875,0.03928662109375,0.8957858935546875
-0.15917748046875,-0.057769150390625,0.8476156396484374
-0.21947732421875,-0.0033590966796874996,1.0103131298828125
-0.40864376953125,0.02433611083984375,1.10837400390625
-0.40183572265625,-0.014633251953124999,1.08478041015625
-0.30603677734375,-0.07835673828125,0.9233117529296875
-0.3028758984375,-0.03889719482421875,0.9341254833984375
-0.4127772265625,-0.05801424072265625,0.9228202197265625
-0.20683380859375,0.02482629150390625,0.84884447265625
-0.1326747265625,0.01012087158203125,0.9134810888671875
-0.36779548828124997,0.03855135009765625,1.024321826171875
-0.24525064453125,0.02580665283203125,1.0339067236328126
-0.179844765625,0.1103628173828125,1.049881552734375
-0.31722142578125,0.00227798095703125,1.09067880859375
-0.38141158203125003,0.12139188232421876,1.1447474609375
-0.16063634765625,-0.020515419921875,1.0700344140625
-0.30992708984375,-0.01830960693359375,1.0840431103515624
-0.24865466796875,0.12237224365234375,1.23027423828125
-0.47648109375000003,0.03757098876953125,1.09854333984375
-0.2581373046875,-0.03350520751953125,0.9980247998046875
-0.37144265625,0.00178780029296875,0.8505648388671875
-0.2357680078125,-0.047965537109375,0.7468513330078125
-0.13000013671875,-0.00581,0.7886316552734375
-0.1997826171875,-0.10360104248046875,0.9611598095703124
-0.22434021484375,-0.06928839599609375,1.06708521484375
-0.20391607421875,-0.02076051025390625,1.16735798828125
-0.35417939453125,0.01845394287109375,1.124594599609375
-0.22823052734375,0.0740894482421875,1.040050888671875
-0.321841171875,0.1231075146484375,1.111814736328125
-0.3446967578125,-0.020515419921875,1.116730068359375
-0.31576255859375,0.06281529296875,1.1676037548828124
-0.29631099609375,0.0711483642578125,1.0289913916015625
-0.27807515625,-0.04379900146484375,0.8254966455078125
-0.068970859375,0.03659062744140625,0.8377849755859375
-0.21218298828125,0.0574233056640625,1.025304892578125
-0.2766162890625,0.05472731201171875,1.21454517578125
-0.352963671875,0.0289928271484375,1.2147909423828125
-0.29752671875000003,0.01575794921875,1.0609410498046874
-0.18981369140625,-0.0239466845703125,1.0019570654296874
-0.23114826171875,-0.09722869384765626,0.9749227392578125
-0.1842213671875,-0.010711806640625,1.0452119873046875
-0.2639727734375,0.06747200927734374,0.983033037109375
-0.31527626953125,-0.0018885546875000003,0.8957858935546875
-0.20488865234375,0.00178780029296875,0.9520664453125
-0.15723232421875,0.0809519775390625,1.06905134765625
-0.308225078125,0.00178780029296875,1.2152824755859375
-0.21510072265625,-0.03644629150390625,1.2723003271484374
-0.25935302734375,0.0103659619140625,1.1159927685546875
-0.2552195703125,-0.04968116943359375,0.9127437890625
-0.25886673828125,0.010611052246093749,0.870963466796875
-0.2717533984375,0.0270321044921875,0.777080625
-0.11322316406249999,-0.0055649096679687505,0.8235305126953125
-0.269321953125,-0.036201201171875,0.8987350927734374
-0.32086859375,0.05423713134765625,1.01203349609375
-0.28172232421875,-0.00997653564453125,0.878827998046875
-0.2630001953125,-0.03301502685546875,0.75643623046875
-0.2644590625,0.052031318359375,0.709740576171875
-0.213885,0.05276658935546875,0.71514744140625
-0.08355953125,0.0008074389648437498,0.9238032861328125
-0.33326896484375,0.1495772705078125,1.126560732421875
-0.3359435546875,0.089285048828125,1.2113502099609375
-0.30068759765624997,0.04884514404296875,1.1422897949218749
-0.34202216796875,0.07139345458984375,1.0997721728515626
-0.24379177734375002,-0.00581,0.993355234375
-0.23503857421875,-0.08742508056640624,0.8092760498046875
-0.107873984375,0.00570924560546875,0.793301220703125
-0.19273142578125,-0.01487834228515625,0.8746499658203125
-0.31916658203125,0.030708459472656248,0.99040603515625
-0.232363984375,0.16256705810546876,1.0255506591796875
-0.3096839453125,0.04590406005859375,1.0835515771484374
-0.30214646484375,0.03266918212890625,1.0228472265625
-0.268349375,0.10472573974609375,0.890624794921875
-0.24670951171875,-0.12271808837890624,0.772656826171875
-0.23552486328125,-0.1366882373046875,0.746114033203125
-0.1744955859375,-0.0016434643554687498,0.656654990234375
-0.21193984375,-0.08546435791015625,0.5431108203125
-0.14215736328125,-0.071494208984375,0.6215103662109375
-0.20537494140625,0.07923634521484375,0.80952181640625
-0.26178447265625,0.022620478515625,0.966320908203125
-0.30871136718750003,0.053992041015625,1.049881552734375
-0.21850474609375,0.0191892138671875,1.0830600439453124
-0.29339326171875,0.0633054736328125,1.0727378466796875
-0.237226875,0.089285048828125,0.991880634765625
-0.20440236328125,0.18217428466796876,0.9127437890625
-0.29436583984375,0.103010107421875,0.9449392138671875
-0.249870390625,0.1074217333984375,0.9188879541015624
-0.14118478515625,-0.01169216796875,0.90389619140625
-0.252788125,0.0003172583007812497,1.039067822265625
-0.22774423828125,0.02335574951171875,1.0516019189453125
-0.2980130078125,0.03536517578125,1.0702801806640625
-0.35223423828125,0.0358553564453125,1.0874838427734375
-0.2843969140625,0.14835181884765625,1.0506188525390625
-0.280992890625,0.0451687890625,1.028254091796875
-0.2542469921875,0.04933532470703125,1.0810939111328124
-0.280992890625,0.06894255126953125,1.0712632470703125
-0.30360533203125,-0.047965537109375,0.9599309765625
-0.2513292578125,-0.0161037939453125,0.7869112890625
-0.2523018359375,-0.0631611376953125,0.7298934375
-0.24038775390625,-0.0406128271484375,0.8269712451171874
-0.30166017578125,0.026296833496093748,0.9660751416015625
-0.2882872265625,0.03512008544921875,1.0589749169921876
-0.296554140625,0.085363603515625,1.1447474609375
-0.35758341796875,0.13756784423828125,1.0928907080078125
-0.23917203125,0.04541387939453125,0.9139726220703125
