ax,ay,az
-0.18300564453125,-0.01487834228515625,0.997779033203125
-0.3077387890625,0.04002189208984375,1.114763935546875
-0.12756869140625,-0.02272123291015625,1.134916796875
-0.277102578125,-0.038161923828125,1.1484339599609374
-0.38773333984375,-0.00703545166015625,1.1617053564453126
-0.38700390625000003,-0.1327667919921875,1.0700344140625
-0.43976626953125,-0.03203466552734375,1.0427543212890624
-0.512466484375,-0.028113220214843748,1.015474228515625
-0.40523974609375,-0.0710040283203125,1.0191607275390624
-0.27394169921875,-0.0567887890625,0.909303056640625
-0.3057936328125,-0.11536537841796875,0.7940385205078125
-0.28366748046875,-0.14134495361328125,0.7252238720703125
-0.20391607421875,-0.073454931640625,0.7168678076171875
-0.32111173828125,0.04737460205078125,0.680248583984375
-0.242089765625,0.067717099609375,0.6421547607421875
-0.15188314453125001,0.06600146728515625,0.7552073974609375
-0.30506419921875,-0.010221625976562499,0.8741584326171875
-0.39551396484375,0.04786478271484375,1.0142453955078126
-0.38627447265625,0.1711452197265625,1.17325638671875
-0.3719289453125,0.06502110595703126,1.1931634814453125
-0.3612305859375,0.10080429443359375,1.2305200048828124
-0.42906791015625,0.17874302001953124,1.3111314501953124
-0.4511940625,0.09051050048828126,1.0732293798828125
-0.32354318359375,0.0466393310546875,0.93142205078125
-0.33642984375,-0.013407800292968751,0.791335087890625
-0.19370400390625,-0.10605194580078126,0.66206185546875
-0.112736875,-0.14869766357421876,0.5777639111328124
-0.2007551953125,-0.1337471533203125,0.600128671875
-0.19248828125,-0.03497574951171875,0.751029365234375
-0.30214646484375,-0.08448399658203125,0.885709462890625
-0.48499115234375,-0.18521612304687501,0.8820229638671875
-0.156502890625,-0.09134652587890625,0.7365291357421875
-0.057299921875,-0.0778665576171875,0.6038151708984375
-0.08744984375,-0.1660990771484375,0.585874208984375
-0.14069849609375001,-0.1808044970703125,0.6335529296875
-0.1842213671875,-0.13497260498046876,0.654688857421875
-0.195406015625,-0.20457825927734374,0.6465785595703125
-0.1190586328125,-0.09624833251953124,0.7082659765625
-0.10106593750000001,0.0030132519531249997,0.7960046533203124
-0.38287044921875,0.1392834765625,0.7837163232421875
-0.277102578125,-0.163648173828125,0.8628531689453125
0.045793359374999995,0.20962440185546874,1.3514371728515624
-0.030067734375000002,0.41893154541015626,1.881555732421875
-0.2955815625,0.723578828125,2.129718558349609
-0.5041995703125,0.7667147265625,2.129718558349609
-0.70211921875,0.5522606860351562,1.9486500146484376
-0.90028201171875,0.3132976123046875,1.4807104052734374
-0.63768591796875,0.12972495361328126,0.7161305078125
-0.0714023046875,-0.10507158447265624,0.45488061035156246
-0.0363894921875,-0.1533543798828125,0.15283345703125
-0.0568136328125,-0.15286419921875,0.32978541015625
-0.12805498046875,-0.236194912109375,0.7753602587890625
-0.300444453125,-0.36486733642578123,1.2590289306640625
-0.79864759765625,-0.5062844580078125,1.99313376953125
-0.9058743359375,-0.075415654296875,2.0607195849609377
-0.58857072265625,-0.00311400634765625,1.7220532080078126
-0.3889490625,-0.03987755615234375,1.1513831591796875
-0.1929745703125,-0.21487205322265626,0.804114951171875
-0.166228671875,-0.28227189453125,0.460041708984375
-0.2075632421875,-0.222469853515625,0.3585401025390625
-0.14410251953125,-0.2004117236328125,0.3934389599609375
-0.1200312109375,-0.2180582275390625,0.3192174462890625
-0.205131796875,-0.280311171875,0.6303579638671875
-0.19905318359375002,-0.08791526123046875,1.031203291015625
-0.380195859375,-0.0788469189453125,1.5741017138671876
-0.749775546875,-0.0455146337890625,1.67462025390625
-0.5139253515625,0.1652630517578125,1.592534208984375
-0.405482890625,0.13903838623046874,1.2221639404296876
-0.339347578125,0.0476196923828125,0.8259881787109375
-0.21607330078125,0.08511851318359374,0.6075016699218749
-0.1744955859375,0.07286399658203124,0.5153391943359376
-0.03955037109375,0.042227705078125,0.45045681152343753
-0.060947089843749996,0.0765403515625,0.3673877001953125
-0.21558701171875,0.09835339111328124,0.3118444482421875
-0.253760703125,0.07041309326171875,0.234919501953125
-0.24914095703125,0.0584036669921875,0.25777579589843747
-0.2406308984375,0.07237381591796875,0.3167597802734375
-0.21121041015625,0.10031411376953125,0.4126087548828125
0.029259531249999998,0.093206494140625,0.8144371484375
0.2023784375,0.0294830078125,1.7132056103515625
0.07813158203125001,0.450058017578125,2.129718558349609
-0.73445744140625,0.2074185888671875,2.129718558349609
-0.62796013671875,0.5044680712890625,2.129718558349609
-0.76436421875,0.38167781494140623,1.8582079052734375
-0.78114119140625,0.2564366552734375,1.665281123046875
-0.1968648828125,0.45888126953125,1.6070344384765625
0.0384990234375,-0.07835673828125,0.7930554541015625
-0.12805498046875,-0.0268877685546875,0.43472774902343747
-0.32354318359375,-0.1700205224609375,0.2779286572265625
-0.2853694921875,-0.09624833251953124,0.11080736816406249
-0.284883203125,-0.116590830078125,0.094341005859375
-0.18008791015625,-0.153844560546875,0.2243515380859375
-0.0218008203125,-0.13301188232421876,0.56572134765625
0.051385683593749995,-0.23129310546875,1.540431689453125
-0.71062927734375,-0.14109986328125,1.3352165771484374
-0.80934595703125,-0.23594982177734375,1.4104211572265626
-0.5372672265625,-0.23300873779296874,0.9562444775390625
-0.10665826171875001,-0.0411030078125,0.8466325732421875
-0.17133470703125,0.12139188232421876,0.7812586572265625
-0.16938955078125,-0.0425735498046875,0.6269172314453125
-0.203186640625,-0.12958061767578125,0.63453599609375
-0.26251390625,-0.1641383544921875,0.663044921875
-0.15723232421875,-0.1376685986328125,0.7266984716796875
-0.16598552734375,0.00766996826171875,0.76233462890625
-0.26567478515625,0.06943273193359376,0.865065068359375
-0.28901666015625,-0.02860340087890625,1.0289913916015625
-0.3738741015625,0.09100068115234375,1.258291630859375
-0.65811005859375,0.212810576171875,1.293682021484375
-0.368524921875,0.06281529296875,1.09657720703125
-0.26640421875,0.057913486328125,1.01203349609375
-0.25351755859375,0.18707609130859376,0.938795048828125
-0.29144810546875,-0.04526954345703125,0.9080742236328125
-0.37752126953125,-0.03644629150390625,1.012525029296875
-0.3072525,0.083402880859375,0.8422087744140625
-0.13194529296875,-0.114630107421875,0.6962234130859375
-0.206104375,-0.07664110595703125,0.6618160888671875
-0.218747890625,-0.04306373046875,0.6244595654296875
-0.183735078125,-0.046004814453125,0.630112197265625
-0.33764556640625,-0.10188541015625,0.7011387451171875
-0.3388612890625,-0.022476142578125,0.7773263916015625
-0.34421046875,-0.0018885546875000003,0.887675595703125
-0.34299474609375,0.08119706787109375,0.992863701171875
-0.38821962890625,0.1157548046875,1.0565172509765626
-0.415208671875,0.07727562255859374,1.1076367041015625
-0.32840607421875,0.0593840283203125,1.1641630224609374
-0.185680234375,0.059874208984374996,1.1695698876953124
-0.36730919921875,-0.0582593310546875,1.1037044384765624
-0.2333365625,0.0123266845703125,1.067576748046875
-0.2785614453125,0.019434304199218752,0.830657744140625
-0.29387955078125,-0.09281706787109376,0.7404614013671875
-0.2333365625,-0.03742665283203125,0.739232568359375
-0.362689453125,-0.1445311279296875,0.6908165478515624
-0.27442798828125,-0.08497417724609375,0.6711552197265624
-0.22239505859375,0.05129604736328125,0.7743771923828124
-0.4118046484375,-0.151883837890625,0.7365291357421875
-0.28464005859375,-0.16438344482421874,0.8313950439453125
-0.28026345703125,-0.0523771630859375,0.8132083154296875
-0.29631099609375,-0.10164031982421876,0.7311222705078125
-0.2172890234375,-0.098944326171875,0.7768348583984375
-0.3349709765625,-0.060710234375,0.80165728515625
-0.2177753125,0.10129447509765625,0.9992536328125
-0.189570546875,0.087324326171875,1.207172177734375
-0.2202067578125,0.32163068359375,1.375276533203125
-0.3339983984375,0.33854191650390625,1.4239383203125
-0.37898013671874997,0.00521906494140625,1.2973685205078125
-0.5674171484375,0.2260454541015625,1.1054248046875
-0.5090624609375,0.18266446533203126,0.8419630078125
-0.17522501953125,-0.0523771630859375,0.674350185546875
-0.14312994140625,-0.0960032421875,0.5824334765625
-0.22385392578125,-0.03105430419921875,0.61487466796875
-0.20975154296875,-0.09869923583984375,0.7026133447265624
-0.28585578125,0.00227798095703125,0.9508376123046876
-0.42712275390625,0.05815857666015625,1.1233657666015624
-0.3203823046875,0.093206494140625,1.294665087890625
-0.405482890625,0.18805645263671875,1.32661474609375
-0.36536404296875,0.1289896826171875,1.269105361328125
-0.18981369140625,-0.02321141357421875,1.1386032958984376
-0.35344996093750003,0.0505607763671875,0.9402696484374999
-0.1949197265625,-0.0219859619140625,0.839996875
-0.2022140625,-0.13350206298828124,0.6249510986328125
-0.263486484375,-0.01389798095703125,0.5455684863281249
-0.29047552734375,-0.0210056005859375,0.6308494970703125
-0.23017568359375,-0.06144550537109375,0.6957318798828125
-0.3096839453125,0.15227326416015624,0.7242408056640625
-0.21947732421875,-0.027868129882812502,0.7478343994140625
-0.15917748046875,0.04198261474609375,0.853268271484375
-0.2221519140625,0.10619628173828125,1.0530765185546875
-0.38919220703125,0.0623251123046875,1.20471451171875
-0.23017568359375,0.08560869384765625,1.386090263671875
-0.28998923828125,0.06943273193359376,1.4644898095703125
-0.33715927734375,0.24687813232421876,1.4964394677734374
-0.321841171875,0.16795904541015624,1.3381657763671875
-0.38578818359375,0.18438009765625,1.2076637109375
-0.46797103515625,0.26060319091796874,1.1002637060546876
-0.46699845703125,0.238299970703125,1.009084296875
-0.407428046875,-0.0347306591796875,0.8250051123046875
-0.28804408203125,-0.10311086181640625,0.536720888671875
-0.117599765625,-0.15899145751953125,0.4209648193359375
-0.09134015625,-0.1455114892578125,0.48314376953125
-0.22531279296875,-0.03693647216796875,0.646824326171875
-0.17862904296875,-0.01585870361328125,0.9196252539062499
-0.26616107421875,0.0956573974609375,1.5163465624999999
-0.485234296875,0.2699166235351563,1.906132392578125
-0.60413197265625,0.32628739990234373,1.60285640625
-0.21558701171875,0.0564429443359375,1.4042769921875
-0.263486484375,0.06158984130859375,0.9852449365234375
-0.37314466796875,0.0133070458984375,0.98450763671875
-0.23357970703125,-0.1229631787109375,1.0778989453125
-0.36682291015625,0.0059543359375,0.94321884765625
-0.2853694921875,0.1314405859375,0.83213234375
-0.3096839453125,-0.00581,0.788877421875
-0.3378887109375,0.06281529296875,0.8242678125
-0.39745912109375,0.1740863037109375,0.9233117529296875
-0.3408064453125,0.152028173828125,0.9714820068359376
-0.42663646484375,0.15619470947265626,0.993846767578125
-0.299471875,0.06109966064453125,0.8790737646484375
-0.27442798828125,0.0711483642578125,0.9518206787109375
-0.3242726171875,0.14908708984375,1.1671122216796874
-0.46456701171875,-0.00948635498046875,1.1287726318359375
-0.3077387890625,-0.00948635498046875,1.0063808642578125
-0.42201671875,0.16452778076171876,0.9061080908203125
-0.31770771484375,0.02237538818359375,0.938795048828125
-0.22579908203125,-0.023456503906250002,1.0103131298828125
-0.5090624609375,0.14835181884765625,1.02776255859375
-0.3967296875,0.0044837939453125,0.7699533935546875
-0.2523018359375,-0.02762303955078125,0.5915268408203125
-0.06289224609374999,-0.008751083984375,0.55392455078125
-0.2357680078125,0.0721287255859375,0.6750874853515625
-0.222638203125,-0.02223105224609375,0.852285205078125
-0.206104375,0.1000690234375,1.2895039892578124
-0.35272052734375,0.09026541015625,1.4590829443359374
-0.34348103515625,-0.0063001806640625,1.4522014794921876
-0.312115390625,-0.030073942871093752,1.2875378564453124
-0.31819400390625,0.04884514404296875,1.2123332763671875
-0.36779548828124997,-0.01144707763671875,1.15752732421875
-0.36585033203125,-0.0739451123046875,1.072000546875
-0.302389609375,0.01159141357421875,0.89799779296875
-0.36536404296875,-0.01879978759765625,0.66402798828125
-0.259596171875,-0.0661022216796875,0.5455684863281249
-0.0927990234375,-0.09477779052734375,0.57161974609375
-0.23066197265625,0.05913893798828125,0.6650110546875
-0.3019033203125,0.1495772705078125,0.77019916015625
-0.39356880859375,0.1260485986328125,0.828691611328125
-0.26713365234374997,0.11207844970703125,0.8259881787109375
-0.30700935546875,0.174576484375,0.9402696484374999
-0.31041337890625,0.171635400390625,1.0501273193359375
-0.25473328125,0.15276344482421875,1.1430270947265626
-0.19078626953125,0.07384435791015626,1.3059703515625
-0.29874244140625,0.0780108935546875,1.3590559375
-0.3349709765625,0.01796376220703125,1.3804376318359375
-0.25886673828125,0.00521906494140625,1.2565712646484375
-0.3408064453125,0.01845394287109375,1.107882470703125
-0.27151025390625,0.03413972412109375,1.097068740234375
-0.372415234375,-0.11291447509765624,1.004660498046875
-0.4643238671875,-0.01928996826171875,1.0855177099609374
-0.39259623046875003,-0.042083369140625,0.84294607421875
-0.3028758984375,-0.05703387939453125,0.718096640625
-0.18446451171875,0.01698340087890625,0.7763433251953125
-0.33813185546875,0.03144373046875,0.8549886376953125
-0.39648654296875,0.06158984130859375,0.8741584326171875
-0.37071322265625,0.05227640869140625,0.90586232421875
-0.31576255859375,0.10202974609375,0.89406552734375
-0.179844765625,-0.02860340087890625,0.9429730810546875
-0.300444453125,0.071638544921875,1.0334151904296875
-0.2211793359375,-0.012427438964843749,0.9972875
-0.37071322265625,-0.04085791748046875,0.9277355517578125
-0.3729015234375,0.0020328906249999995,0.946168046875
-0.29971501953125,-0.06634731201171876,0.966320908203125
-0.33229638671875,-0.0063001806640625,0.94321884765625
-0.34785763671875003,0.06158984130859375,0.851302138671875
-0.3680386328125,-0.02027032958984375,0.8323781103515625
-0.23139140625,0.02874773681640625,0.88816712890625
-0.32013916015625,0.12776423095703124,1.00220283203125
-0.3466419140625,0.0848734228515625,1.0973145068359376
-0.39405509765625,0.0564429443359375,1.056763017578125
-0.2698082421875,0.15913579345703124,1.009084296875
-0.33181009765625,-0.0288484912109375,0.891116328125
-0.33229638671875,0.02874773681640625,0.8884128955078126
-0.37752126953125,0.0348749951171875,0.800182685546875
-0.3631757421875,-0.01487834228515625,0.7397241015625
-0.253760703125,0.08070688720703124,0.82131861328125
-0.3578265625,-0.05213207275390625,0.866048134765625
-0.34542619140624997,0.05815857666015625,0.969761640625
-0.3855450390625,0.07041309326171875,0.9016842919921875
-0.23114826171875,0.0270321044921875,0.8490902392578125
-0.2639727734375,0.03266918212890625,0.9134810888671875
-0.34396732421875,0.048109873046875,1.0245675927734375
-0.29922873046875,0.03512008544921875,1.0329236572265625
-0.315033125,0.0446786083984375,0.8962774267578125
-0.2581373046875,0.01306195556640625,0.8984893261718749
-0.30871136718750003,-0.02419177490234375,0.946168046875
-0.3962433984375,0.0069346972656249995,0.9763973388671875
-0.347128203125,0.03413972412109375,0.934862783203125
-0.32086859375,0.01992448486328125,0.8948028271484375
-0.31138595703125,-0.05115171142578125,0.8726838330078125
-0.29436583984375,0.112813720703125,0.9552614111328125
-0.2960678515625,-0.0425735498046875,0.844420673828125
-0.2814791796875,0.0221302978515625,0.8815314306640625
-0.23552486328125,0.0373258984375,1.0638902490234374
-0.37119951171875,0.0069346972656249995,1.138357529296875
-0.38773333984375,0.0280124658203125,1.115747001953125
-0.3466419140625,0.034384814453125,0.936828916015625
-0.35393625,0.0059543359375,0.8530225048828125
-0.23941517578125,0.036345537109375,0.93928658203125
-0.2999581640625,-0.0082609033203125,0.9631259423828125
-0.27029453125,0.0535018603515625,1.03759322265625
-0.41302037109375,-0.016593974609375,0.9434646142578125
-0.27442798828125,0.0691876416015625,0.9228202197265625
-0.30020130859375,-0.06193568603515625,0.862115869140625
-0.39697283203125,-0.09845414550781251,0.8653108349609375
-0.29096181640625,0.0505607763671875,0.9454307470703125
-0.284883203125,0.0030132519531249997,0.94911724609375
-0.2644590625,-0.018554697265625,1.00613509765625
-0.39016478515624997,0.10325519775390625,1.1046875048828124
-0.26081189453125,0.05178622802734375,1.076424345703125
-0.32791978515625,0.04296297607421875,1.0068723974609375
-0.28220861328125,0.036345537109375,1.1213996337890624
-0.3967296875,-0.02860340087890625,1.132459130859375
-0.41156150390625,-0.076396015625,0.8215643798828125
-0.23406599609375,0.00791505859375,0.8554801708984375
-0.2192341796875,0.0270321044921875,0.9483799462890625
-0.40378087890625003,-0.0337502978515625,0.926015185546875
-0.23139140625,0.04835496337890625,0.9134810888671875
-0.2610550390625,-0.02321141357421875,0.9267524853515625
-0.34250845703125,0.01796376220703125,0.950591845703125
-0.34980279296875,0.0829127001953125,0.9174133544921875
-0.36244630859375,-0.00360418701171875,0.9390408154296875
-0.24281919921875,0.00423870361328125,0.9729566064453125
-0.27029453125,-0.040122646484374996,1.002694365234375
-0.3495596484375,-0.0298288525390625,1.0058893310546875
-0.3301080859375,-0.046740085449218746,0.95108337890625
-0.376305546875,0.10178465576171875,0.9508376123046876
-0.27637314453125,0.00276816162109375,0.954032578125
-0.31868029296875,0.06894255126953125,1.0874838427734375
-0.37849384765625,0.14246965087890626,1.1258234326171874
-0.34032015625,0.00816014892578125,0.9532952783203125
-0.25643529296875,0.0838930615234375,0.8731753662109375
-0.28123603515625,-0.01389798095703125,0.89504859375
-0.273212265625,-0.0072805419921875,0.97369390625
-0.35344996093750003,0.07457962890625,0.9503460791015625
-0.2785614453125,-0.030319033203124998,0.8805483642578125
-0.31673513671875,0.00717978759765625,0.9346170166015625
-0.20537494140625,0.026051743164062502,1.0629071826171874
-0.34104958984375,0.0182088525390625,1.0393135888671874
-0.37752126953125,0.0059543359375,1.0491442529296875
-0.3894353515625,0.01551285888671875,1.0024485986328124
-0.31138595703125,-0.0523771630859375,0.948625712890625
-0.290718671875,-0.1004148681640625,0.9360916162109375
-0.29971501953125,-0.03301502685546875,0.93437125
-0.32111173828125,0.00570924560546875,0.8766160986328125
-0.27613,-0.03742665283203125,0.8456495068359375
-0.32791978515625,0.061834931640625,0.9587021435546875
-0.36293259765625,0.10521592041015625,1.0014655322265624
-0.4137498046875,-0.00605509033203125,0.9213456201171875
-0.2878009375,0.07776580322265625,0.9110234228515625
-0.24087404296875,0.011346323242187501,0.9316678173828125
-0.31576255859375,-0.0082609033203125,1.004660498046875
-0.24816837890625,-0.053847705078125,1.134916796875
-0.36463460937500003,-0.04698517578125,1.13983212890625
-0.3592854296875,-0.01953505859375,1.0452119873046875
-0.27418484375,-0.07664110595703125,0.8643277685546875
-0.203186640625,-0.05899460205078125,0.797233486328125
-0.316005703125,-0.04281864013671875,0.871946533203125
-0.35661083984374997,-0.0161037939453125,0.955507177734375
-0.298499296875,-0.03056412353515625,0.925032119140625
-0.26081189453125,-0.0082609033203125,0.977626171875
-0.35174794921875,-0.0376717431640625,1.0071181640625
-0.33861814453125,0.00325834228515625,1.0427543212890624
-0.37654869140625,-0.013407800292968751,0.9992536328125
-0.29436583984375,0.03315936279296875,0.9700074072265625
-0.280992890625,0.093206494140625,0.92159138671875
-0.37703498046875,-0.04379900146484375,0.8903790283203125
-0.38335673828125,0.10717664306640624,1.020389560546875
-0.2882872265625,0.0843832421875,1.0014655322265624
-0.2639727734375,-0.0239466845703125,0.907336923828125
-0.29874244140625,0.0780108935546875,1.0167030615234376
-0.3281629296875,0.0451687890625,1.05135615234375
-0.3967296875,0.0544822216796875,0.9127437890625
-0.2581373046875,0.036345537109375,0.9395323486328125
-0.28804408203125,-0.0053198193359375,0.984016103515625
-0.43587595703125,-0.006790361328125,1.0307117578125
-0.3874901953125,-0.01561361328125,0.9835245703125
-0.29533841796875,-0.00850599365234375,0.851793671875
-0.1647698046875,-0.0788469189453125,0.895540126953125
-0.300444453125,-0.083258544921875,1.02972869140625
-0.39867484375,-0.026397587890625,1.0464408203125
-0.38773333984375,-0.05899460205078125,0.9375662158203125
-0.27637314453125,-0.03840701416015625,0.9026673583984375
-0.21218298828125,-0.02958376220703125,0.8756330322265625
-0.36779548828124997,-0.0543378857421875,0.9818042041015624
-0.31284482421875,0.0162481298828125,1.0452119873046875
-0.30166017578125,-0.0009081933593750001,0.88030259765625
-0.35223423828125,-0.00605509033203125,0.868997333984375
-0.24184662109375,0.04345315673828125,1.030220224609375
-0.30992708984375,0.01747358154296875,1.048898486328125
-0.3719289453125,0.061834931640625,0.9953213671875
-0.2824517578125,0.06551128662109375,0.9488714794921875
-0.2450075,0.012816865234374999,0.8458952734375
-0.26227076171875,0.03315936279296875,0.8537598046875
-0.31308796875,0.033404453125,0.9070911572265625
-0.38092529296875,-0.018554697265625,0.9365831494140625
-0.27540056640625,0.012816865234374999,0.9822957373046874
-0.3466419140625,-0.00777072265625,0.95894791015625
-0.33253953125,0.011346323242187501,0.9729566064453125
-0.29509527343749997,0.01306195556640625,0.915201455078125
-0.21753216796875,0.030463369140625002,0.91765912109375
-0.3826273046875,0.01159141357421875,0.9638632421875
-0.2299325390625,0.0593840283203125,1.040050888671875
-0.29971501953125,-0.0562986083984375,0.9267524853515625
-0.3301080859375,0.0417375244140625,0.9881941357421875
-0.26713365234374997,0.028502646484374998,0.949608779296875
-0.3096839453125,-0.01144707763671875,0.9444476806640625
-0.2746711328125,0.08609887451171874,1.0476696533203125
-0.42128728515625,-0.0006631030273437505,0.986965302734375
-0.24427806640625,0.0780108935546875,1.08478041015625
-0.361716875,0.026051743164062502,0.973202373046875
-0.2882872265625,0.01649322021484375,0.9481341796875
-0.27272597656249997,-0.0004180126953125,0.969761640625
-0.3339983984375,-0.01487834228515625,0.9397781152343749
-0.3466419140625,-0.013162709960937501,0.930438984375
-0.4098594921875,-0.00262382568359375,0.8938197607421875
-0.16112263671875,-0.0009081933593750001,0.8893959619140624
-0.271267109375,-0.0190448779296875,0.880794130859375
-0.32840607421875,0.06551128662109375,0.9778719384765625
-0.29752671875000003,-0.04723026611328125,0.8948028271484375
-0.3164919921875,0.03855135009765625,0.948625712890625
-0.24038775390625,0.09982393310546875,1.0801108447265624
-0.36487775390625,-0.12712971435546874,1.077407412109375
-0.27199654296875,0.0995788427734375,1.1395863623046876
-0.37217208984375,0.0338946337890625,0.9739396728515625
-0.35028908203125,-0.022476142578125,0.933879716796875
-0.26154132812499997,0.1064413720703125,1.0700344140625
-0.33278267578125,0.009140510253906251,1.0029401318359374
-0.4122909375,0.03757098876953125,0.920116787109375
-0.17960162109375,0.09418685546875,0.92355751953125
-0.314060546875,-0.00654527099609375,0.8136998486328125
-0.27053767578125,0.00717978759765625,0.9670582080078125
-0.358799140625,0.024581201171875,1.0230929931640624
-0.4166675390625,-0.04526954345703125,0.9051250244140625
-0.30530734375,0.06060947998046875,0.864082001953125
-0.28074974609375003,-0.03889719482421875,0.800182685546875
-0.3641483203125,0.0633054736328125,0.906353857421875
-0.23406599609375,0.110852998046875,1.009084296875
-0.36366203125,0.0005623486328125002,0.94223578125
-0.26251390625,0.12188206298828125,1.0594664501953126
-0.26713365234374997,-0.02664267822265625,1.0899415087890625
-0.37265837890625,0.06060947998046875,1.1164843017578125
-0.2644590625,0.0701680029296875,1.0857634765625
-0.4049966015625,0.03536517578125,0.9483799462890625
-0.22725794921875,0.14148928955078124,1.0009739990234374
-0.30652306640625,-0.044534272460937496,0.8458952734375
-0.35612455078125,0.06257020263671875,0.9402696484374999
-0.2484115234375,-0.01095689697265625,0.892590927734375
-0.28707150390625,-0.0602200537109375,0.7788009912109375
-0.16015005859375,0.0064445166015625,0.8567090039062499
-0.39891798828125,0.05913893798828125,0.9813126708984374
-0.34202216796875,-0.01169216796875,0.9626344091796875
-0.3189234375,0.073599267578125,0.9097945898437501
-0.2639727734375,0.0373258984375,0.922082919921875
-0.27053767578125,0.034384814453125,0.977134638671875
-0.32743349609375,-0.012672529296875,0.9660751416015625
-0.2707808203125,0.04786478271484375,0.9700074072265625
-0.3446967578125,-0.00458454833984375,0.90193005859375
-0.32597462890625,0.0525214990234375,0.9380577490234375
-0.2299325390625,0.034384814453125,0.99040603515625
-0.30919765625,-0.028113220214843748,0.976151572265625
-0.32062544921875,0.1564397998046875,1.0383305224609374
-0.25740787109375,-0.0141430712890625,0.9439561474609375
-0.34250845703125,0.11698025634765626,1.001711298828125
-0.26081189453125,0.07825598388671876,1.0776531787109376
-0.40086314453125,0.055462583007812497,1.03661015625
-0.222638203125,0.09835339111328124,1.0363643896484376
-0.339347578125,0.0103659619140625,0.92552365234375
-0.3359435546875,0.016738310546875,1.0117877294921875
-0.26470220703125,0.0008074389648437498,0.9891772021484375
-0.3811684375,-0.0249270458984375,0.9203625537109374
-0.3573402734375,-0.068553125,0.915201455078125
-0.31673513671875,0.00325834228515625,0.8889044287109376
-0.22336763671875,-0.0724745703125,0.7994453857421875
-0.354908828125,0.0020328906249999995,0.8633447021484375
-0.29096181640625,0.01208159423828125,0.9306847509765624
-0.28561263671875,0.02041466552734375,0.9287186181640625
-0.28512634765625,0.06845237060546874,1.03661015625
-0.3573402734375,-0.0175743359375,1.026287958984375
-0.302389609375,0.06894255126953125,1.11034013671875
-0.29728357421875,0.03315936279296875,1.0707717138671875
-0.44511544921875,-0.045024453125,0.9095488232421876
-0.23212083984375,0.018699033203125,0.9591936767578125
-0.27272597656249997,0.0505607763671875,0.9429730810546875
-0.27296912109375,0.0289928271484375,0.9370746826171875
-0.28707150390625,0.03757098876953125,0.9501003125
-0.38530189453125,0.0946770361328125,0.9759058056640625
-0.29436583984375,0.09051050048828126,0.9046334912109375
-0.2630001953125,-0.0082609033203125,0.907336923828125
-0.35223423828125,0.0922261328125,0.9636174755859375
-0.30627992187499997,-0.09012107421875,0.8834975634765625
-0.3563676953125,0.0191892138671875,0.8908705615234375
-0.3962433984375,-0.022476142578125,0.8962774267578125
-0.25862359375,0.0191892138671875,0.98843990234375
-0.29825615234375,0.00472888427734375,0.9985163330078125
-0.38870591796875,0.04590406005859375,0.9803296044921875
-0.2566784375,0.0843832421875,0.973202373046875
-0.35199109375,-0.0386521044921875,0.9631259423828125
-0.22044990234375,0.0878145068359375,1.03661015625
-0.3028758984375,-0.04330882080078125,0.8557259375
-0.40815748046875,0.1035002880859375,0.9400238818359374
-0.3048210546875,0.0152677685546875,0.9429730810546875
-0.2571647265625,0.04639424072265625,0.9837703369140625
-0.3826273046875,-0.04281864013671875,1.0196522607421874
-0.3923530859375,0.0966377587890625,1.0874838427734375
-0.29679728515625,-0.06193568603515625,0.866048134765625
-0.3777644140625,-0.0023787353515625003,0.856217470703125
-0.1375376171875,0.079481435546875,0.9056165576171875
-0.3009307421875,-0.07860182861328124,0.8451579736328125
-0.34737134765625,0.07776580322265625,0.9591936767578125
-0.31576255859375,0.0054641552734375,0.9518206787109375
-0.25059982421875,-0.0464949951171875,0.9223286865234375
-0.22823052734375,0.00423870361328125,1.0019570654296874
-0.2785614453125,0.03806116943359375,1.146222060546875
-0.30068759765624997,-0.0055649096679687505,1.0501273193359375
-0.461892421875,0.016738310546875,0.986965302734375
-0.29193439453125003,0.0765403515625,0.9911433349609375
-0.26616107421875,0.05325677001953125,0.9759058056640625
-0.3524773828125,0.07678544189453125,1.0506188525390625
-0.35515197265625,0.03168882080078125,1.0343982568359376
-0.32743349609375,0.01747358154296875,0.9105318896484375
-0.30798193359375,0.130460224609375,0.8820229638671875
-0.20829267578125,-0.034240478515625,0.84097994140625
-0.2746711328125,0.0201695751953125,0.913235322265625
-0.34785763671875003,0.00325834228515625,1.022355693359375
-0.41423609375,-0.091101435546875,0.983033037109375
-0.30311904296875003,0.0020328906249999995,0.92945591796875
-0.27005138671875,-0.02419177490234375,0.8662939013671875
-0.38238416015625,0.01551285888671875,0.8859552294921875
-0.27491427734375,0.026051743164062502,0.8825144970703125
-0.43368765625,-0.0016434643554687498,0.82328474609375
-0.31187224609374997,0.0064445166015625,0.935845849609375
-0.11881548828124999,0.03904153076171875,0.977626171875
-0.2980130078125,-0.11830646240234374,0.92945591796875
-0.33521412109375,0.067717099609375,1.083305810546875
-0.2722396875,0.021640117187500002,1.1233657666015624
-0.32208431640625,-0.00458454833984375,1.121645400390625
-0.33253953125,0.13021513427734374,1.1803836181640626
-0.3500459375,-0.0001729223632812504,1.0845346435546874
-0.411318359375,0.06551128662109375,0.9316678173828125
-0.325731484375,0.06011929931640625,0.87243806640625
-0.2007551953125,0.08854977783203125,0.8898874951171875
-0.39600025390625,0.08242251953125,0.9719735400390626
-0.32500205078125,-0.0028689160156250004,1.00810123046875
-0.2853694921875,-0.00850599365234375,0.9424815478515625
-0.33083751953125,0.026051743164062502,0.9233117529296875
-0.2255559375,-0.05752406005859375,0.9007012255859375
-0.29776986328125,-0.0651218603515625,0.858183603515625
-0.2450075,0.02776737548828125,0.9129895556640625
-0.35272052734375,-0.01487834228515625,0.8648193017578125
-0.34542619140624997,-0.00458454833984375,0.9238032861328125
-0.2318776953125,0.0476196923828125,0.95108337890625
-0.38821962890625,-0.0053198193359375,0.951574912109375
-0.35077537109375,0.11894097900390625,1.037101689453125
-0.29242068359375,0.053992041015625,0.91372685546875
-0.26859251953125,0.015022678222656249,0.85081060546875
-0.2192341796875,0.03168882080078125,1.043000087890625
-0.3349709765625,0.008895419921875,1.119679267578125
-0.35028908203125,0.057913486328125,1.058729150390625
-0.2644590625,0.032424091796875,0.9188879541015624
-0.31916658203125,0.0740894482421875,0.942727314453125
-0.32937865234375,-0.0013983740234375002,0.9695158740234375
-0.23795630859375,0.04737460205078125,0.95698177734375
-0.251815546875,0.08634396484375,0.8726838330078125
-0.33861814453125,0.13021513427734374,0.8544971044921875
-0.25862359375,0.028257556152343752,0.871946533203125
-0.25643529296875,-0.012672529296875,0.9061080908203125
-0.31284482421875,0.1201664306640625,1.0078554638671875
-0.33083751953125,-0.03889719482421875,1.015474228515625
-0.31138595703125,0.05497240234375,0.9975332666015625
-0.27515742187500003,-0.013162709960937501,0.9675497412109375
-0.28804408203125,0.079481435546875,1.0088385302734375
-0.34785763671875003,0.09100068115234375,0.999745166015625
-0.25157240234375,0.0201695751953125,0.9208540869140625
-0.30141703125,0.0686974609375,0.8854636962890625
-0.220693046875,0.028502646484374998,0.9783634716796875
-0.24379177734375002,-0.04575972412109375,0.926998251953125
-0.335457265625,-0.0612004150390625,0.9351085498046875
-0.32791978515625,0.110852998046875,0.9744312060546875
-0.3281629296875,0.033404453125,0.830657744140625
-0.19175884765625,0.116735166015625,0.89603166015625
-0.37654869140625,0.1064413720703125,1.0368559228515626
-0.273212265625,0.01306195556640625,1.0117877294921875
-0.34737134765625,0.140263837890625,1.002694365234375
-0.1910294140625,0.0044837939453125,0.8662939013671875
-0.27929087890625,0.024581201171875,0.8343442431640625
-0.33083751953125,0.02286556884765625,0.9990078662109375
-0.2902323828125,0.03904153076171875,1.0363643896484376
-0.358799140625,-0.03693647216796875,0.902421591796875
-0.3515048046875,0.0672269189453125,0.8984893261718749
-0.27053767578125,-0.0308092138671875,0.856217470703125
-0.19662173828125,0.096147578125,0.871946533203125
-0.31868029296875,0.0358553564453125,0.9503460791015625
-0.32548833984375003,0.00325834228515625,1.05725455078125
-0.3729015234375,0.06060947998046875,1.061678349609375
-0.25157240234375,0.02580665283203125,1.054796884765625
-0.38092529296875,0.11943115966796874,1.0739666796875
-0.35199109375,0.02433611083984375,1.0619241162109374
-0.4511940625,0.05815857666015625,0.8938197607421875
-0.221665625,0.03144373046875,0.8476156396484374
-0.245980078125,-0.01978014892578125,0.8097675830078125
-0.3189234375,0.04933532470703125,0.9011927587890625
-0.27515742187500003,-0.00777072265625,0.9356000830078125
-0.34810078125,0.04051207275390625,0.881777197265625
-0.222638203125,0.10521592041015625,0.99827056640625
-0.32305689453124997,0.00619942626953125,0.9744312060546875
-0.36974064453125,0.00399361328125,1.0511103857421875
-0.4341739453125,0.1505576318359375,1.0314490576171875
-0.3378887109375,0.0672269189453125,0.9127437890625
-0.3456693359375,0.008405239257812499,0.78494515625
-0.22579908203125,0.12923477294921876,0.9717277734375
-0.263486484375,-0.01438816162109375,0.89504859375
-0.3344846875,0.04002189208984375,1.0284998583984375
-0.12756869140625,0.10987263671875,1.17718865234375
-0.42858162109375,-0.01928996826171875,1.1307387646484375
-0.3855450390625,0.0922261328125,1.1012467724609376
-0.33667298828125003,0.12090170166015625,0.98254150390625
-0.35101851562499997,0.02335574951171875,0.8697346337890625
-0.33083751953125,0.01404231689453125,0.8717007666015625
-0.28391062499999997,0.08756941650390625,0.89013326171875
-0.1579617578125,0.02874773681640625,0.8144371484375
-0.36220316406249997,-0.0994345068359375,0.7945300537109374
-0.34202216796875,0.01698340087890625,0.9196252539062499
-0.234309140625,0.03757098876953125,0.8844806298828125
-0.268349375,7.216796875000007e-05,0.8989808593749999
-0.2435486328125,0.0686974609375,1.057746083984375
-0.40694175781249997,-0.01683906494140625,1.1014925390624999
-0.32111173828125,0.10864718505859375,1.1489254931640625
-0.32597462890625,0.06404074462890624,1.0299744580078125
-0.33983386718749997,0.06502110595703126,0.9724650732421874
-0.368524921875,0.018699033203125,0.969270107421875
-0.32062544921875,-0.0366913818359375,0.90782845703125
-0.2989855859375,0.0037485229492187503,0.866048134765625
-0.1968648828125,0.04002189208984375,0.891116328125
-0.25400384765625,-0.0371815625,0.9532952783203125
-0.38967849609375,0.06306038330078124,1.1921804150390625
-0.3485870703125,0.02678701416015625,1.1169758349609376
-0.29582470703125,0.09639266845703125,1.085271943359375
-0.47234763671875,0.03512008544921875,1.0343982568359376
-0.3816547265625,-0.0474753564453125,0.914709921875
-0.31187224609374997,-0.098944326171875,0.7645465283203124
-0.162338359375,0.00963069091796875,0.7527497314453125
-0.175954453125,-0.01953505859375,0.722520439453125
-0.26081189453125,-0.10409122314453124,0.7529954980468749
-0.35199109375,0.03217900146484375,0.9749227392578125
-0.45775896484375,0.04051207275390625,1.02186416015625
-0.32257060546875,0.0255615625,0.9631259423828125
-0.2722396875,0.1417343798828125,0.9896687353515625
-0.30992708984375,0.01453249755859375,1.0093300634765625
-0.35855599609375,0.0221302978515625,1.06905134765625
-0.33326896484375,-0.0033590966796874996,1.0464408203125
-0.32451576171875,0.042227705078125,0.8795652978515625
-0.28853037109375,0.03168882080078125,0.7335799365234374
-0.244034921875,-0.01978014892578125,0.7109694091796875
-0.26129818359375,-0.040122646484374996,0.78396208984375
-0.27151025390625,0.10178465576171875,0.819844013671875
-0.1842213671875,0.07237381591796875,0.91176072265625
-0.29776986328125,0.05178622802734375,0.987948369140625
-0.3729015234375,0.11207844970703125,1.058729150390625
-0.31527626953125,0.140263837890625,1.0899415087890625
-0.43004048828125,0.14345001220703124,1.0739666796875
-0.2843969140625,0.03315936279296875,1.015474228515625
-0.1637972265625,0.12163697265625,1.0383305224609374
-0.29825615234375,0.0299731884765625,1.0663479150390625
-0.2445212109375,0.040266982421875,1.1454847607421874
-0.38724705078125,0.0946770361328125,1.110831669921875
-0.53653779296875,-0.0798272802734375,0.9965502001953125
-0.2411171875,-0.14967802490234375,0.7733941259765625
-0.26907880859375,-0.06193568603515625,0.64338359375
-0.24233291015625,-0.11389483642578124,0.6549346240234375
-0.143859375,-0.1268846240234375,0.723503505859375
-0.24136033203125,0.02972809814453125,0.95698177734375
-0.32475890625,0.1623219677734375,1.149171259765625
-0.38700390625000003,0.10276501708984374,1.270088427734375
-0.45630009765625,0.19344843994140626,1.207172177734375
-0.44511544921875,0.22040837646484374,1.0491442529296875
-0.25473328125,0.0530116796875,0.849336005859375
-0.23212083984375,0.13217585693359374,0.867522734375
-0.2357680078125,0.040266982421875,0.9822957373046874
-0.30652306640625,-0.02321141357421875,1.157035791015625
-0.4122909375,-0.05115171142578125,1.2600119970703125
-0.35904228515625003,-0.0180645166015625,0.999745166015625
-0.22482650390625,-0.032279755859375,0.6613245556640625
-0.0976619140625,-0.0759058349609375,0.6111881689453125
-0.1997826171875,-0.18202994873046874,0.7704449267578125
-0.242089765625,0.0191892138671875,1.114763935546875
-0.40815748046875,-0.03056412353515625,1.3263689794921876
-0.40621232421875,-0.0151234326171875,1.2064348779296874
-0.3145468359375,0.0613447509765625,0.98254150390625
-0.3242726171875,-0.07443529296875,0.790352021484375
-0.329621796875,-0.0425735498046875,0.6200357666015625
-0.221665625,-0.03399538818359375,0.5411446875
-0.11322316406249999,-0.0239466845703125,0.49297443359375
-0.06580998046875,-0.0038492773437499997,0.781504423828125
-0.27296912109375,0.108892275390625,1.1211538671875
-0.55015388671875,0.08315779052734375,1.28139369140625
-0.5635268359375,-0.00752563232421875,1.0825685107421874
-0.28415376953125,-0.06928839599609375,0.68762158203125
-0.08380267578125,-0.06879821533203125,0.375497998046875
0.02609865234375,-0.09379742919921875,0.34133644042968747
0.0394716015625,-0.03889719482421875,0.5163222607421875
-0.26956509765625,-0.02223105224609375,0.618315400390625
-0.4147223828125,-0.0249270458984375,0.8682600341796876
-0.1920019921875,0.124578056640625,1.38264953125
-0.17960162109375,0.43902895263671876,1.7736641943359375
-0.30311904296875003,0.5956416748046875,1.955285712890625
-0.38724705078125,0.5610839379882813,1.9673282763671875
-0.5781155078125,0.3632960400390625,1.4453200146484375
-0.4448723046875,0.3005529150390625,1.02579642578125
-0.2878009375,-0.08938580322265625,0.8289373779296875
-0.01572220703125,-0.20163717529296876,0.652722724609375
-0.05073501953125,-0.22737166015625,0.5745689453125
-0.26859251953125,-0.1808044970703125,0.5620348486328125
-0.3291355078125,-0.110708662109375,0.4371854150390625
-0.1637972265625,-0.23889090576171876,0.5915268408203125
-0.33108066406250003,-0.29134023681640625,0.9847534033203125
-0.5917316015625,-0.17516741943359376,1.42885365234375
-0.44535859375,0.310846708984375,1.730163505859375
-0.422989296875,0.3985890478515625,1.4782527392578124
-0.36682291015625,-0.04379900146484375,1.2668934619140626
-0.33642984375,-0.030073942871093752,1.000728232421875
-0.29387955078125,-0.0018885546875000003,0.710232109375
-0.2347954296875,-0.044044091796875,0.402040791015625
-0.119544921875,-0.07860182861328124,0.3256073779296875
-0.004537558593750001,-0.04183827880859375,0.2926746533203125
-0.04100923828125,-0.01585870361328125,0.6529684912109375
-0.2172890234375,0.05717821533203125,1.11525546875
-0.5226785546875,0.08560869384765625,1.48587150390625
-0.8168834375,0.081442158203125,1.602364873046875
-0.736159453125,0.111833359375,1.402310859375
-0.39162365234375,0.0319339111328125,1.1184504345703126
-0.13923962890625,-0.0038492773437499997,0.9198710205078124
-0.2591098828125,-0.00654527099609375,0.73775796875
-0.15480087890625,0.14908708984375,0.7271900048828125
-0.0665394140625,0.018699033203125,0.71514744140625
-0.13948277343749999,0.11747043701171875,0.8004284521484375
-0.362689453125,0.07923634521484375,0.9341254833984375
-0.4147223828125,0.08168724853515624,1.1164843017578125
-0.44171142578125,0.122617333984375,1.157035791015625
-0.3096839453125,0.044188427734375,0.9434646142578125
-0.3592854296875,0.08070688720703124,0.853268271484375
-0.3213548828125,0.03364954345703125,0.9056165576171875
-0.39210994140625,0.0770305322265625,0.8530225048828125
-0.397702265625,-0.0298288525390625,0.7448852001953125
-0.08817927734375,0.056933125,0.667468720703125
-0.1744955859375,0.1564397998046875,0.6121712353515625
-0.22701480468750002,0.07261890625,0.6229849658203125
-0.41447923828125,0.04835496337890625,0.66206185546875
-0.36244630859375,-0.1259042626953125,0.5942302734375
0.043605058593749996,-0.14624676025390626,0.6819689501953125
0.12432904296875,-0.055073156738281254,0.8485987060546875
0.121654453125,0.08953013916015624,1.271071494140625
-0.2814791796875,0.2083989501953125,1.631856865234375
-0.47380650390625,0.25521120361328126,1.7505621337890624
-0.732269140625,0.19393862060546874,1.6198143017578124
-0.64303509765625,0.07531489990234375,1.2983515869140625
-0.16209521484375,0.2368294287109375,1.2319946044921875
-0.40572603515625,0.08560869384765625,0.932896650390625
-0.3077387890625,0.03561026611328125,0.88030259765625
-0.31089966796875,-0.03693647216796875,0.6721382861328125
-0.32402947265625,-0.0680629443359375,0.552941484375
-0.36001486328125,-0.02223105224609375,0.40326962402343747
-0.0976619140625,0.012816865234374999,0.42391401855468747
0.09320654296875,0.020659755859375,0.59324720703125
0.08980251953125,0.1564397998046875,1.0781447119140626
-0.312115390625,0.29295511474609376,1.4738289404296876
-0.7074683984375,0.146146005859375,1.4959479345703124
-0.7103861328125,0.02335574951171875,1.1543323583984375
-0.37946642578125,0.110852998046875,1.00416896484375
-0.2255559375,-0.1347275146484375,0.8544971044921875
-0.22336763671875,-0.1719812451171875,0.79969115234375
-0.2630001953125,0.0255615625,0.7355460693359375
-0.17279357421875,-0.00703545166015625,0.6465785595703125
-0.061676523437500005,0.06943273193359376,0.754961630859375
-0.015235917968750002,0.09982393310546875,1.05332228515625
-0.2445212109375,0.132420947265625,1.3590559375
-0.40937320312500003,0.0593840283203125,1.477515439453125
-0.35758341796875,-0.04772044677734375,1.2836055908203126
-0.267376796875,0.18119392333984374,1.1184504345703126
-0.33642984375,0.0544822216796875,0.7960046533203124
-0.3349709765625,0.06649164794921875,0.763809228515625
-0.26956509765625,0.0505607763671875,0.8431918408203125
-0.436605390625,0.0686974609375,0.999745166015625
-0.44268400390625,0.05962911865234375,1.0179318945312499
-0.24087404296875,0.06992291259765625,1.0265337255859375
-0.24427806640625,0.13903838623046874,1.0697886474609375
-0.304334765625,0.03119864013671875,1.1415524951171876
-0.24136033203125,0.0721287255859375,1.0936280078125
-0.24306234375,0.11992134033203125,0.846386806640625
-0.23114826171875,0.026051743164062502,0.7987080859375
-0.251815546875,0.0368357177734375,0.778555224609375
-0.11395259765625,0.02580665283203125,0.9945840673828125
-0.38870591796875,-0.0808076416015625,1.21454517578125
-0.58540984375,-0.0170841552734375,1.23617263671875
-0.57933123046875,0.11845079833984375,0.9021758251953125
-0.42906791015625,-0.016593974609375,0.6672229541015625
-0.23601115234375,-0.05311243408203125,0.5915268408203125
-0.1229489453125,0.057668395996093746,0.6497735253906249
-0.1385101953125,0.02090484619140625,0.7217831396484375
-0.18008791015625,-0.0425735498046875,0.8166490478515624
-0.0699434375,0.026051743164062502,0.913235322265625
-0.08817927734375,0.10521592041015625,1.080356611328125
-0.29533841796875,0.1706550390625,1.2256046728515626
-0.39454138671875,0.12090170166015625,1.2241300732421876
-0.4176401171875,0.20619313720703125,1.168832587890625
-0.38432931640625,0.15300853515625001,1.0855177099609374
-0.35758341796875,0.103010107421875,1.0110504296875
-0.32013916015625,0.16403760009765625,0.9675497412109375
-0.34396732421875,0.1623219677734375,0.8721922998046875
-0.34226531250000003,0.1740863037109375,0.767741494140625
-0.23212083984375,0.1005592041015625,0.715638974609375
-0.09741876953125,0.0069346972656249995,0.7751144921875
-0.15966376953125,0.1314405859375,0.864082001953125
-0.2231244921875,0.0843832421875,0.9714820068359376
-0.26275705078125,0.15962597412109375,1.0776531787109376
-0.31478998046875,0.16844922607421875,0.9356000830078125
-0.2532744140625,0.130460224609375,0.84786140625
-0.30409162109375,0.02286556884765625,0.871455
-0.4370916796875,0.06796218994140625,0.8161575146484374
-0.32354318359375,0.08168724853515624,0.7566819970703125
-0.3417790234375,0.11943115966796874,0.6475616259765625
-0.265431640625,0.208889130859375,0.6571465234375
-0.16744439453124998,0.23168253173828124,0.7851909228515626
-0.2172890234375,0.27530861083984376,0.975168505859375
-0.30166017578125,0.23511379638671875,1.1027213720703124
-0.43538966796875,0.24785849365234375,1.1100943701171875
-0.263486484375,0.14908708984375,1.0481611865234375
-0.12805498046875,0.14590091552734374,1.056271484375
-0.11589775390625,0.05497240234375,1.1435186279296874
-0.2386857421875,0.07065818359375,1.217002841796875
-0.3544225390625,0.01257177490234375,1.1769428857421875
-0.41836955078125,0.1191860693359375,1.0476696533203125
-0.389921640625,-0.006790361328125,0.9685328076171875
-0.37898013671874997,-0.01438816162109375,1.014491162109375
-0.32597462890625,-0.073454931640625,1.0584833837890626
-0.3855450390625,-0.079337099609375,0.8544971044921875
-0.22190876953125,0.01845394287109375,0.685163916015625
-0.1851939453125,-0.042328459472656246,0.5286105908203125
-0.0490330078125,-0.081297822265625,0.5443396533203125
0.037526445312500004,0.0030132519531249997,0.810996416015625
-0.16841697265625,0.11943115966796874,1.3150637158203125
-0.66248666015625,0.19344843994140626,1.5215076611328124
-0.3738741015625,0.1780077490234375,1.2673849951171876
-0.32281375,0.158890703125,1.1073909375
-0.36050115234375,0.16207687744140625,0.8419630078125
-0.280992890625,0.195164072265625,0.8667854345703125
-0.35320681640625,0.190262265625,0.8240220458984375
-0.33959072265625,0.16599832275390625,0.6544430908203125
-0.35126166015625,0.1427147412109375,0.6259341650390625
-0.19078626953125,-0.0009081933593750001,0.6603414892578126
-0.14191421875,0.118695888671875,0.861132802734375
-0.25983931640625,-0.0097314453125,0.9410069482421874
-0.2678630859375,0.1123235400390625,1.040050888671875
-0.44219771484375,0.1554594384765625,1.0860092431640624
-0.44414287109375,0.16942958740234376,1.105916337890625
-0.392839375,0.20619313720703125,1.02579642578125
-0.17814275390625,0.1701648583984375,1.0324321240234375
-0.2425760546875,0.146146005859375,1.061678349609375
-0.30700935546875,0.05325677001953125,0.9985163330078125
-0.3811684375,0.09639266845703125,1.0407881884765624
-0.3573402734375,0.01453249755859375,0.8736668994140625
-0.349073359375,-0.00948635498046875,0.9473968798828125
-0.24573693359375,0.009140510253906251,1.141306728515625
-0.294608984375,-0.00801581298828125,1.079865078125
-0.18859796875,0.096147578125,1.0570087841796876
-0.31770771484375,-0.0190448779296875,0.8608870361328125
-0.32354318359375,0.04835496337890625,0.7947758203124999
-0.1424005078125,0.04982550537109375,0.7625803955078125
-0.3330258203125,-0.02737794921875,0.8648193017578125
-0.24695265625,0.10472573974609375,0.992863701171875
-0.2610550390625,0.04982550537109375,1.036118623046875
-0.2289599609375,0.1358522119140625,0.9532952783203125
-0.23114826171875,0.057913486328125,0.8505648388671875
-0.3544225390625,0.059874208984374996,0.9154472216796875
-0.3524773828125,0.05717821533203125,1.092153408203125
-0.27831830078124997,-0.030073942871093752,1.1754682861328125
-0.35709712890625,-0.02713285888671875,1.1774344189453125
-0.3524773828125,-0.0455146337890625,1.0953483740234375
-0.30627992187499997,-0.03987755615234375,0.892590927734375
-0.35466568359375,0.03757098876953125,0.7144101416015625
-0.3038484765625,0.03266918212890625,0.620281533203125
-0.15917748046875,0.110852998046875,0.620281533203125
-0.14556138671875,0.10570610107421875,0.7593854296875
-0.28391062499999997,0.04124734375,0.839505341796875
-0.345183046875,0.0613447509765625,0.9198710205078124
-0.401592578125,-0.0268877685546875,0.938303515625
-0.286828359375,0.1270289599609375,1.0697886474609375
-0.263486484375,0.1466361865234375,1.06905134765625
-0.2600824609375,0.08266760986328126,1.174730986328125
-0.44414287109375,0.1035002880859375,1.1722733203125
-0.3096839453125,0.0868341455078125,0.9926179345703126
-0.18203306640625,0.13070531494140625,1.0432458544921874
-0.44997833984375,0.16648850341796875,1.0801108447265624
-0.2386857421875,0.019679394531249998,1.091170341796875
-0.2488978125,0.14835181884765625,1.13393373046875
-0.31308796875,0.1706550390625,1.0181776611328126
-0.2552195703125,0.02531647216796875,0.9655836083984375
-0.34250845703125,0.05031568603515625,0.9874568359375
-0.38627447265625,0.032424091796875,1.00810123046875
-0.299471875,-0.050661530761718754,0.8982435595703124
-0.31430369140625003,-0.0001729223632812504,0.76921609375
-0.14410251953125,-0.00409436767578125,0.7665126611328125
-0.345183046875,-0.00581,0.748080166015625
-0.29193439453125003,0.08021670654296875,0.82328474609375
-0.1647698046875,0.032424091796875,0.893573994140625
-0.27418484375,0.09051050048828126,0.9756600390625
-0.34591248046875,0.0309535498046875,1.0751955126953125
-0.470645625,0.03708080810546875,1.032186357421875
-0.14945169921875,0.06673673828125,0.873912666015625
-0.18981369140625,-0.1053166748046875,0.7537327978515624
-0.2644590625,0.02874773681640625,0.862115869140625
-0.294608984375,-0.06389640869140625,0.8923451611328125
-0.3301080859375,-0.03203466552734375,0.9402696484374999
-0.3777644140625,0.132420947265625,0.8903790283203125
-0.28950294921874997,-0.03203466552734375,0.8014115185546875
-0.177899609375,0.0044837939453125,0.7881401220703125
-0.300444453125,0.04247279541015625,0.851302138671875
-0.24962724609375,0.1309504052734375,0.887675595703125
-0.38287044921875,-0.023456503906250002,0.8783364648437499
-0.2805066015625,0.12384278564453124,1.009084296875
-0.35320681640625,0.0456589697265625,0.936828916015625
-0.36585033203125,-0.0151234326171875,0.93928658203125
-0.30311904296875003,0.0387964404296875,0.9380577490234375
-0.29728357421875,0.0015427099609375003,0.90193005859375
-0.32111173828125,0.05472731201171875,0.9599309765625
-0.3194097265625,0.05178622802734375,1.0457035205078125
-0.32597462890625,0.163792509765625,1.0874838427734375
-0.3787369921875,0.118695888671875,0.90389619140625
-0.3223274609375,0.10227483642578125,0.8830060302734375
-0.2581373046875,0.0446786083984375,0.8891501953125
-0.29825615234375,0.04002189208984375,1.0211268603515624
-0.3670660546875,0.07972652587890625,1.1037044384765624
-0.35661083984374997,-0.03644629150390625,1.0407881884765624
-0.280992890625,-0.0999246875,0.9803296044921875
-0.34542619140624997,-0.0006631030273437505,1.08674654296875
-0.372415234375,-0.1504132958984375,1.03661015625
-0.36974064453125,-0.07370002197265625,0.9223286865234375
-0.2566784375,-0.0876701708984375,0.80952181640625
-0.28391062499999997,-0.08938580322265625,0.65911265625
-0.21169669921875,-0.1190417333984375,0.6809858837890626
-0.24719580078125,-0.1665892578125,0.6308494970703125
-0.1190586328125,-0.0406128271484375,0.7173593408203125
-0.18932740234375,-0.03840701416015625,0.85277673828125
-0.3339983984375,0.0133070458984375,1.033169423828125
-0.40937320312500003,0.04394333740234375,1.1990618798828125
-0.33959072265625,0.0642858349609375,1.3347250439453124
-0.31235853515625,0.169674677734375,1.3219451806640625
-0.31333111328125,0.059874208984374996,1.1961126806640625
-0.42906791015625,0.06502110595703126,1.13589986328125
-0.43782111328125,0.13266603759765624,0.9196252539062499
-0.48450486328125,-0.00777072265625,0.7404614013671875
-0.257651015625,-0.1513936572265625,0.656654990234375
-0.18251935546875,-0.0268877685546875,0.5507295849609375
-0.146777109375,-0.00801581298828125,0.5399158544921875
-0.21169669921875,-0.06585713134765625,0.6750874853515625
-0.24695265625,0.04712951171875,0.9267524853515625
-0.39697283203125,0.0191892138671875,1.214053642578125
-0.44730375,-0.029338671875,1.4315570849609376
-0.38773333984375,0.079481435546875,1.4711255078125
-0.53605150390625,0.0221302978515625,1.31481794921875
-0.39308251953125,-0.073454931640625,1.1405694287109376
-0.44292714843750003,-0.0317895751953125,1.035135556640625
-0.37411724609375,-0.14330567626953125,0.90586232421875
-0.331566953125,-0.10727739746093751,0.7006472119140625
-0.2644590625,-0.1352176953125,0.5900522412109375
-0.11638404296875,-0.1778634130859375,0.6328156298828125
-0.21193984375,-0.071494208984375,0.8304119775390625
-0.30846822265625,-0.01634888427734375,1.0884669091796875
-0.33132380859375,-0.07468038330078125,1.2732833935546874
-0.50103869140625,0.00227798095703125,1.246494833984375
-0.3573402734375,0.0446786083984375,1.1602307568359376
-0.3612305859375,-0.07958218994140626,1.0697886474609375
-0.35588140625,-0.05164189208984375,1.065610615234375
-0.3106565234375,-0.10727739746093751,0.9795923046875
-0.3811684375,-0.12320826904296875,0.885709462890625
-0.26761994140625,-0.106787216796875,0.8451579736328125
-0.2591098828125,-0.12173772705078124,0.75840236328125
-0.2202067578125,-0.10262068115234375,0.7117067089843749
-0.13607875,-0.14722712158203125,0.6984353125
-0.197351171875,-0.1798241357421875,0.7217831396484375
-0.2688356640625,-0.104826494140625,0.7561904638671875
-0.26324333984375,-0.08203309326171875,0.8023945849609375
-0.27734572265625,-0.00605509033203125,0.8427003076171875
-0.30311904296875003,0.06698182861328125,0.9154472216796875
-0.3320532421875,0.1000690234375,1.011541962890625
-0.4477900390625,0.036345537109375,1.0466865869140625
-0.3524773828125,0.16673359375,0.9763973388671875
-0.30555048828125,0.09884357177734375,0.8225474462890625
-0.310170234375,0.04688442138671875,0.8869382958984375
-0.32937865234375,0.0280124658203125,0.9483799462890625
-0.1929745703125,0.0137972265625,0.8653108349609375
-0.1647698046875,-0.081297822265625,0.775606025390625
-0.25351755859375,0.028502646484374998,0.81148794921875
-0.07748091796875001,-0.06389640869140625,0.9606682763671874
-0.15042427734375,-0.02321141357421875,1.2961396875
-0.41423609375,0.02041466552734375,1.577788212890625
-0.6520314453125,-0.0011532836914062497,1.4868545703125
-0.5547736328125,-0.04919098876953125,1.1223827001953124
-0.43368765625,-0.11340465576171875,0.890624794921875
-0.2328502734375,-0.0533575244140625,0.922082919921875
-0.37922328125,-0.1327667919921875,1.0255506591796875
-0.41618125,-0.1710008837890625,1.034152490234375
-0.2668905078125,-0.2445279833984375,0.8694888671875
-0.22701480468750002,-0.17565760009765624,0.775606025390625
-0.15188314453125001,-0.12173772705078124,0.8466325732421875
-0.1676875390625,-0.14281549560546875,1.134425263671875
-0.26324333984375,-0.05899460205078125,1.3691323681640626
-0.52875716796875,-0.0411030078125,1.3465218408203126
-0.57106431640625,-0.071494208984375,1.2152824755859375
-0.3680386328125,-0.091101435546875,0.950591845703125
-0.39308251953125,-0.1680597998046875,0.8023945849609375
-0.26251390625,-0.21193096923828125,0.7871570556640625
-0.31187224609374997,-0.26143921630859374,0.8058353173828126
-0.335457265625,-0.191098291015625,0.9134810888671875
-0.29096181640625,-0.110708662109375,1.04939001953125
-0.3344846875,-0.1229631787109375,1.1263149658203124
-0.34785763671875003,-0.07468038330078125,1.0968229736328126
-0.335457265625,-0.08399381591796876,1.0098215966796875
-0.2659179296875,-0.046740085449218746,0.8879213623046875
-0.36001486328125,-0.13105115966796876,0.849336005859375
-0.35466568359375,-0.09330724853515625,0.8181236474609375
-0.331566953125,-0.17271651611328126,0.7591396630859375
-0.26251390625,-0.13203152099609375,0.8105048828125
-0.37338781249999997,-0.0053198193359375,0.9262609521484375
-0.393811953125,-0.06389640869140625,0.9675497412109375
-0.43587595703125,-0.123453359375,0.897506259765625
-0.39089421875,-0.07860182861328124,0.80165728515625
-0.36439146484375,-0.07468038330078125,0.6618160888671875
-0.26470220703125,-0.19036302001953126,0.5728485791015625
-0.228473671875,-0.13791368896484374,0.48584720214843746
-0.10811712890625,-0.091101435546875,0.41629525390625
-0.1073876953125,-0.11977700439453125,0.40892225585937503
-0.06386482421875,-0.08350363525390625,0.6362563623046875
-0.1744955859375,0.0819323388671875,0.9100403564453124
-0.28853037109375,0.169674677734375,1.415582255859375
-0.47672423828125,0.15668489013671874,1.7358161376953125
-0.685585390625,0.1848702783203125,1.65102666015625
-0.5567187890625,0.158890703125,1.3573355712890625
-0.4458448828125,-0.0513968017578125,0.9051250244140625
-0.199296328125,-0.18595139404296876,0.765283828125
-0.18543708984375,-0.24771415771484376,0.61290853515625
-0.1365650390625,-0.2406065380859375,0.4499652783203125
-0.1034973828125,-0.21683277587890626,0.48166916992187503
-0.1492085546875,-0.24183198974609374,0.565229814453125
-0.21072412109375,-0.28839915283203127,0.611433935546875
-0.09547361328125001,-0.228352021484375,0.775606025390625
-0.19419029296875,-0.11634573974609375,1.041033955078125
-0.19905318359375002,-0.060710234375,1.32661474609375
-0.42979734375,-0.0504164404296875,1.5264229931640625
-0.33035123046875,0.2427115966796875,1.5780339794921874
-0.3972159765625,0.09247122314453125,1.4305740185546876
-0.45630009765625,-0.0396324658203125,1.44556578125
-0.63865849609375,-0.06242586669921875,1.2295369384765624
-0.50784673828125,-0.03497574951171875,0.9857364697265625
-0.282938046875,-0.23644000244140626,0.633061396484375
-0.15577345703125,-0.21536223388671874,0.43988884765625
-0.008184726562500001,-0.20384298828125,0.446278779296875
0.010294257812499999,-0.171491064453125,0.7168678076171875
-0.23139140625,-0.1798241357421875,1.1250861328125
-0.49228548828125,-0.1523740185546875,1.4055058251953125
-0.6238266796875,-0.23104801513671874,1.47604083984375
-0.64887056640625,0.01845394287109375,1.268122294921875
-0.40086314453125,-0.0254172265625,0.9975332666015625
-0.3865176171875,-0.2692821069335937,0.8422087744140625
-0.35806970703125,-0.196980458984375,0.7738856591796874
-0.2347954296875,-0.23791054443359375,0.7640549951171876
-0.2600824609375,-0.24477307373046875,0.8026403515625
-0.20926525390625,-0.17908886474609376,0.811979482421875
-0.2678630859375,-0.2690370166015625,0.741198701171875
-0.09936392578125,-0.051886982421875,0.9149556884765625
-0.34883021484375,-0.00777072265625,1.0643817822265624
-0.38967849609375,-0.1151202880859375,1.1449932275390624
-0.125380390625,-0.0268877685546875,1.2624696630859376
-0.48401857421875,-0.09281706787109376,1.2767241259765625
-0.6880168359375,-0.130315888671875,1.11525546875
-0.493014921875,-0.16487362548828124,0.7424275341796875
-0.32208431640625,-0.11095375244140625,0.4602874755859375
-0.251815546875,-0.02468195556640625,0.3472348388671875
-0.2386857421875,-0.006790361328125,0.3241327783203125
-0.051950742187499996,-0.08227818359375,0.3118444482421875
-0.0016198242187499996,-0.15212892822265625,0.47724537109375
-0.000890390625000001,-0.13644314697265625,0.752012431640625
-0.2085358203125,-0.00777072265625,0.97074470703125
-0.25789416015625,0.0843832421875,1.1489254931640625
-0.32889236328125,0.05497240234375,1.3165383154296875
-0.3787369921875,0.0446786083984375,1.46424404296875
-0.54529099609375,0.12972495361328126,1.5121685302734376
-0.50638787109375,-0.046249904785156254,1.2039772119140626
-0.44730375,0.0030132519531249997,0.810996416015625
-0.46870046875,0.01453249755859375,0.6453497265625
-0.3889490625,-0.0386521044921875,0.5767808447265625
-0.3378887109375,-0.14894275390625,0.536720888671875
-0.33667298828125003,-0.07517056396484376,0.5050169970703124
-0.10106593750000001,-0.0612004150390625,0.514110361328125
0.06159775390625,-0.0710040283203125,0.7404614013671875
0.0851827734375,-0.09036616455078125,1.098051806640625
0.06694693359375001,-0.1979608203125,1.6615946240234374
-0.7201119140625,-0.15556019287109374,1.978879306640625
-0.5751977734375,-0.15507001220703126,1.6040852392578124
-0.41836955078125,-0.14918784423828124,1.4322943847656249
-0.502740703125,-0.15997181884765624,1.4745662402343749
-0.60875171875,-0.04698517578125,1.275003759765625
-0.5168430859375,-0.1857063037109375,1.0206353271484374
-0.41010263671875,-0.2540865063476562,0.7797840576171875
-0.21583015625000002,-0.31535908935546875,0.6731213525390625
-0.0918264453125,-0.33398595458984376,0.8284458447265625
-0.1453182421875,-0.37663167236328127,0.9100403564453124
-0.2542469921875,-0.349916826171875,0.9046334912109375
-0.3155194140625,-0.26879192626953125,0.9429730810546875
-0.40572603515625,-0.1484525732421875,0.92159138671875
-0.335457265625,-0.0621807763671875,0.9095488232421876
-0.28415376953125,-0.1357078759765625,0.9975332666015625
-0.471618203125,-0.2371752734375,0.964354775390625
-0.4030514453125,-0.2371752734375,1.0437373876953124
-0.44146828125,-0.36829860107421875,1.0402966552734374
-0.4575158203125,-0.21977385986328124,0.8358188427734374
-0.24670951171875,-0.236194912109375,0.7163762744140625
-0.2688356640625,-0.2249207568359375,0.7291561376953125
-0.15188314453125001,-0.19134338134765624,0.907336923828125
-0.144831953125,-0.1739419677734375,1.025304892578125
-0.1706052734375,-0.14673694091796874,1.0137538623046876
-0.220693046875,-0.19403937500000001,0.86260740234375
-0.35344996093750003,0.013552136230468751,0.830657744140625
-0.42371873046874997,0.01992448486328125,0.8576920703124999
-0.2542469921875,0.00325834228515625,1.0240760595703124
-0.45824525390625,0.11967625,1.1073909375
-0.413263515625,0.1917328076171875,1.0176861279296876
-0.372415234375,-0.029338671875,0.9070911572265625
-0.47477908203125,-0.0298288525390625,0.80853875
-0.226528515625,-0.08105273193359375,0.6650110546875
-0.1268392578125,-0.07517056396484376,0.615366201171875
-0.05024873046875,-0.13644314697265625,0.7947758203124999
-0.230418828125,-0.15408965087890625,0.9763973388671875
-0.23649744140625,-0.1200220947265625,1.086255009765625
-0.35223423828125,-0.1778634130859375,0.9351085498046875
-0.2552195703125,-0.048945898437499996,0.976151572265625
-0.2912049609375,-0.20751934326171875,0.9680412744140625
-0.46262185546875,-0.11536537841796875,0.965829375
-0.430769921875,-0.15457983154296875,0.8122252490234375
-0.2941226953125,-0.16046199951171874,0.6785282177734375
-0.3184371484375,-0.1406096826171875,0.5738316455078125
-0.1399690625,-0.11977700439453125,0.71711357421875
-0.345183046875,-0.14502130859375,1.0742124462890625
-0.28196546875,-0.1587463671875,1.0464408203125
-0.1813036328125,-0.14575657958984375,0.87440419921875
-0.2099946875,-0.1102184814453125,0.78986048828125
-0.06629626953125001,-0.17957904541015626,0.8368019091796874
-0.1774133203125,-0.12663953369140624,1.0191607275390624
-0.2970404296875,-0.11781628173828125,1.065610615234375
-0.23066197265625,-0.27712499755859377,0.933879716796875
-0.30603677734375,-0.23349891845703125,0.8122252490234375
-0.30530734375,-0.1866866650390625,0.756927763671875
-0.24938410156250002,-0.07222947998046875,0.8309035107421875
-0.36196001953125,-0.08154291259765625,1.0329236572265625
-0.2114535546875,0.112813720703125,1.1469593603515624
-0.18300564453125,0.1574201611328125,1.306461884765625
-0.35661083984374997,0.2211436474609375,1.4944733349609374
-0.37314466796875,0.23217271240234374,1.4841511376953125
-0.43174250000000003,0.13854820556640626,1.1818582177734376
-0.405482890625,0.07065818359375,0.94911724609375
-0.36147373046875,-0.128355166015625,0.7119524755859374
-0.3019033203125,-0.14502130859375,0.54212775390625
-0.24330548828125,-0.2254109375,0.42612591796875
-0.08769298828125,-0.2582530419921875,0.5566279833984376
-0.23503857421875,-0.17320669677734374,0.8559717041015625
-0.41447923828125,-0.13056097900390626,1.103458671875
-0.4575158203125,-0.16854998046875,1.2624696630859376
-0.53556521484375,0.02972809814453125,1.239613369140625
-0.4691867578125,0.11501953369140624,1.191443115234375
-0.48401857421875,0.02727719482421875,1.16244265625
-0.37898013671874997,-0.0808076416015625,1.1022298388671874
-0.251815546875,-0.20800952392578126,0.8510563720703125
-0.31770771484375,-0.0063001806640625,0.914218388671875
-0.25400384765625,0.023845930175781252,0.931913583984375
-0.22142248046875002,0.015022678222656249,0.863098935546875
-0.240144609375,-0.008751083984375,0.8294289111328125
-0.14580453125,0.00399361328125,0.9621428759765625
-0.4312562109375,0.01575794921875,0.99433830078125
-0.4332013671875,0.0064445166015625,1.0737209130859375
-0.4672416015625,0.10276501708984374,1.0063808642578125
-0.434660234375,0.0015427099609375003,0.80067421875
-0.20051205078125,-0.07517056396484376,0.6952403466796875
-0.30068759765624997,-0.065612041015625,0.56375521484375
-0.24670951171875,-0.09183670654296874,0.515093427734375
-0.109819140625,-0.06781785400390625,0.480686103515625
-0.23990146484375,-0.07762146728515625,0.4661858740234375
-0.21972046875,-0.0259074072265625,0.554416083984375
-0.07407689453124999,-0.05752406005859375,0.788877421875
-0.131215859375,0.05374695068359375,1.0132623291015626
0.035338144531250004,0.1035002880859375,1.31088568359375
-0.05657048828125,0.17825283935546876,1.5937630419921875
-0.413263515625,0.0819323388671875,1.6778152197265626
-0.4745359375,0.01992448486328125,1.4522014794921876
-0.473563359375,-0.14109986328125,1.06315294921875
-0.34810078125,0.0466393310546875,0.931913583984375
-0.26032560546875,0.11894097900390625,0.91569298828125
-0.2892598046875,-0.0641414990234375,0.7758517919921875
-0.3203823046875,0.0922261328125,0.748080166015625
-0.438550546875,0.010611052246093749,0.730384970703125
-0.37168580078125,-0.12958061767578125,0.610450869140625
0.0029999218749999987,0.00472888427734375,0.72694423828125
-0.011831894531250001,0.2098694921875,1.0378389892578126
0.005674511718750001,0.29418056640625,1.3607763037109375
-0.389921640625,-0.0016434643554687498,1.5455927880859375
-0.5567187890625,0.0020328906249999995,1.49570216796875
-0.5440752734375,-0.17026561279296876,1.21651130859375
-0.34250845703125,-0.16242272216796874,0.9980247998046875
-0.3349709765625,-0.14869766357421876,1.011541962890625
-0.24427806640625,-0.10580685546875,0.9139726220703125
-0.33570041015625,-0.17957904541015626,0.808047216796875
-0.333512109375,-0.19085320068359374,0.791335087890625
-0.16501294921875,-0.06193568603515625,0.8871840625
-0.16452666015625,-0.09036616455078125,1.1329506640625
-0.0801555078125,0.03512008544921875,1.405751591796875
-0.3301080859375,-0.018554697265625,1.4408962158203125
-0.46116298828125,0.02482629150390625,1.3946920947265624
-0.45192349609375,0.02972809814453125,1.2241300732421876
-0.48304599609375,-0.055073156738281254,0.979100771484375
-0.35344996093750003,0.03512008544921875,0.7633176953125
-0.23795630859375,-0.08595453857421875,0.7026133447265624
-0.32986494140625,-0.16389326416015626,0.702859111328125
-0.23528171875,-0.106787216796875,0.8102591162109375
-0.302389609375,-0.08987598388671875,0.7751144921875
-0.2639727734375,-0.13717841796875,0.851793671875
-0.16404037109375,-0.063651318359375,1.107882470703125
-0.33715927734375,-0.0631611376953125,1.210121376953125
-0.35344996093750003,0.04296297607421875,1.260257763671875
-0.40767119140625,0.03610044677734375,1.022355693359375
-0.43587595703125,-0.02076051025390625,0.810996416015625
-0.29728357421875,0.0152677685546875,0.7498005322265625
-0.252788125,0.04149243408203125,0.7436563671875001
-0.37411724609375,-0.00850599365234375,0.789368955078125
-0.34810078125,0.1289896826171875,0.853268271484375
-0.26154132812499997,0.0059543359375,0.6839350830078125
-0.3446967578125,-0.02860340087890625,0.5984083056640626
-0.191515703125,0.12237224365234375,0.6632906884765625
-0.09523046875,-0.05458297607421875,0.656654990234375
-0.30555048828125,-0.00801581298828125,0.8397511083984375
-0.35806970703125,0.179478291015625,1.0339067236328126
-0.38700390625000003,0.04051207275390625,1.032186357421875
-0.3466419140625,0.05276658935546875,0.9287186181640625
-0.27588685546875,0.126538779296875,0.895540126953125
-0.21850474609375,0.04296297607421875,0.90782845703125
-0.4088869140625,0.0574233056640625,0.9992536328125
-0.23406599609375,0.148106728515625,1.1666206884765624
-0.27977716796875,0.10570610107421875,1.128526865234375
-0.5275414453125,0.0010525292968750002,1.087729609375
-0.185680234375,0.18438009765625,1.0112961962890625
-0.12027435546875,0.030708459472656248,0.89799779296875
-0.2328502734375,0.0985984814453125,1.072000546875
-0.263486484375,-0.07762146728515625,1.1703071875
-0.4701593359375,-0.21879349853515626,1.07494974609375
-0.36682291015625,-0.07811164794921875,0.8908705615234375
-0.27491427734375,-0.11536537841796875,0.6475616259765625
-0.2435486328125,-0.18448085205078124,0.556382216796875
-0.2999581640625,-0.15408965087890625,0.7463597998046875
-0.41423609375,0.00865032958984375,0.886692529296875
-0.22434021484375,-0.03399538818359375,0.9252778857421875
-0.2678630859375,0.019679394531249998,0.89996392578125
-0.3320532421875,0.04541387939453125,0.8884128955078126
-0.25449013671875,-0.0464949951171875,0.897506259765625
-0.2221519140625,0.130460224609375,0.9557529443359375
-0.382141015625,-0.0161037939453125,0.8721922998046875
-0.152612578125,0.026541923828125,1.01203349609375
-0.26518849609375,0.075559990234375,1.0506188525390625
-0.52049025390625,-0.0011532836914062497,1.0004824658203124
-0.42979734375,-0.00581,1.0019570654296874
-0.3033621875,0.0740894482421875,1.0130165625
-0.31527626953125,0.1084020947265625,0.9822957373046874
-0.2746711328125,-0.04281864013671875,0.8422087744140625
-0.1555303125,0.018699033203125,0.8891501953125
-0.411318359375,0.09541230712890625,0.9410069482421874
-0.18057419921875,0.0672269189453125,0.97860923828125
-0.29582470703125,0.0544822216796875,1.0633987158203124
-0.24427806640625,0.07261890625,1.1526119921875
-0.3967296875,-0.014633251953124999,0.9675497412109375
-0.22361078125,0.11894097900390625,0.956490244140625
-0.237226875,0.0074248779296875,0.9075826904296875
-0.4244481640625,0.0378160791015625,0.927981318359375
-0.329621796875,0.01796376220703125,0.9650920751953125
-0.323786328125,-0.011201987304687501,0.8830060302734375
-0.28074974609375003,0.075559990234375,0.8230389794921875
-0.27540056640625,-0.06389640869140625,0.8618701025390625
-0.2542469921875,0.07139345458984375,0.9365831494140625
-0.2620276171875,-0.02076051025390625,0.97369390625
-0.34104958984375,-0.013162709960937501,1.007609697265625
-0.21801845703125,0.1133039013671875,0.9252778857421875
-0.12635296875,-0.04330882080078125,0.964354775390625
-0.3913805078125,0.04492369873046875,1.049881552734375
-0.24914095703125,0.1280093212890625,1.1037044384765624
-0.23260712890625002,-0.032279755859375,0.9488714794921875
-0.36244630859375,0.05815857666015625,0.934862783203125
-0.25205869140625,0.016738310546875,0.9680412744140625
-0.269321953125,0.0436982470703125,0.9685328076171875
-0.3719289453125,0.03659062744140625,0.94715111328125
-0.172064140625,0.06551128662109375,0.98057537109375
-0.37898013671874997,0.00717978759765625,0.9164302880859375
-0.22336763671875,-0.01487834228515625,1.07101748046875
-0.32597462890625,-0.0249270458984375,1.0717547802734375
-0.34250845703125,-0.06389640869140625,1.001219765625
-0.20804953125,0.07629526123046874,1.003677431640625
-0.28707150390625,0.09100068115234375,0.9262609521484375
-0.24038775390625,0.1574201611328125,0.9636174755859375
-0.31746457031249997,0.083402880859375,0.9717277734375
-0.36876806640625,0.16011615478515626,1.022355693359375
-0.40937320312500003,0.04296297607421875,1.0063808642578125
-0.341292734375,0.0476196923828125,0.96877857421875
-0.22434021484375,0.05668803466796875,0.965337841796875
-0.34785763671875003,-0.06340622802734375,0.97860923828125
-0.3184371484375,0.08364797119140625,1.039067822265625
-0.327676640625,0.03413972412109375,0.9972875
-0.1783858984375,-0.02321141357421875,0.9857364697265625
-0.32791978515625,-0.02149578125,1.0742124462890625
-0.3417790234375,0.0373258984375,1.1705529541015625
-0.24768208984375,-0.051886982421875,0.9572275439453125
-0.3252451953125,0.0868341455078125,0.86653966796875
-0.33472783203125,0.0008074389648437498,0.80165728515625
-0.2396583203125,-0.08007237060546875,0.8834975634765625
-0.411318359375,0.0299731884765625,0.9464138134765625
-0.35393625,0.00987578125,0.8436833740234375
-0.20877896484375,-0.06046514404296875,0.8191067138671875
-0.3077387890625,0.0064445166015625,0.8205813134765625
-0.17522501953125,0.0608545703125,1.0088385302734375
-0.39478453125,-0.0239466845703125,0.920116787109375
-0.32354318359375,0.057913486328125,0.972219306640625
-0.28561263671875,0.1113431787109375,0.871946533203125
-0.19905318359375002,0.05080586669921875,0.7279273046875
-0.07650833984375,0.044188427734375,0.8589209033203125
-0.2532744140625,0.17040994873046875,0.9677955078125
-0.4215304296875,0.095167216796875,0.934862783203125
-0.20683380859375,0.13658748291015624,0.9591936767578125
-0.24038775390625,0.12139188232421876,1.02972869140625
-0.28123603515625,0.04737460205078125,1.176697119140625
-0.42906791015625,0.07261890625,1.0535680517578125
-0.354908828125,0.0584036669921875,0.8766160986328125
-0.25157240234375,-0.032279755859375,0.7296476708984375
-0.292663828125,-0.01978014892578125,0.6573922900390625
-0.20342978515625,0.05129604736328125,0.70924904296875
-0.2163164453125,-0.1111988427734375,0.743164833984375
-0.25983931640625,0.1093824560546875,0.86260740234375
-0.27540056640625,0.18952699462890624,0.870963466796875
-0.10908970703125,0.146146005859375,0.86260740234375
-0.2065906640625,0.15766525146484375,0.9262609521484375
-0.3271903515625,0.073599267578125,1.1041959716796874
-0.4332013671875,0.1093824560546875,1.2432998681640626
-0.43587595703125,0.03168882080078125,1.1587561572265626
-0.29096181640625,0.132420947265625,0.9749227392578125
-0.38238416015625,0.02360083984375,0.9464138134765625
-0.32281375,0.11207844970703125,0.966320908203125
-0.23503857421875,0.018699033203125,1.015474228515625
-0.42469130859375,-0.01291761962890625,1.07101748046875
-0.14750654296875,0.0750698095703125,1.0766701123046876
-0.210967265625,-0.0915916162109375,0.95894791015625
-0.3417790234375,0.0917359521484375,0.9709904736328125
-0.2552195703125,0.05717821533203125,0.918150654296875
-0.15917748046875,-0.030073942871093752,0.8923451611328125
-0.30603677734375,-0.0249270458984375,1.031203291015625
-0.39478453125,0.08609887451171874,1.2521474658203124
-0.41156150390625,-0.038161923828125,1.2133163427734375
-0.37800755859375,-0.0386521044921875,1.1341794970703125
-0.33278267578125,-0.0332601171875,1.0442289208984374
-0.22871681640625,-0.12173772705078124,0.967303974609375
-0.33910443359375,-0.0661022216796875,0.944693447265625
-0.360744296875,-0.02419177490234375,0.817877880859375
-0.237226875,-0.04379900146484375,0.7384952685546875
-0.21169669921875,0.073599267578125,0.8289373779296875
-0.3388612890625,0.22187891845703125,0.9198710205078124
-0.34785763671875003,0.11796061767578125,0.8957858935546875
-0.3563676953125,0.0436982470703125,0.82131861328125
-0.29047552734375,0.12384278564453124,0.69941837890625
-0.21193984375,0.0574233056640625,0.645841259765625
-0.23698373046875,0.0770305322265625,0.67975705078125
-0.36196001953125,0.104970830078125,0.789368955078125
-0.4545980859375,0.09541230712890625,0.93338818359375
-0.3767918359375,0.14884199951171875,0.9955671337890625
-0.31916658203125,0.1623219677734375,1.1179589013671876
-0.29363640625,-0.013652890625,1.139340595703125
-0.15528716796875,0.05864875732421875,1.2155282421875
-0.28901666015625,-0.055073156738281254,1.1762055859375
-0.31965287109375,0.01575794921875,1.16539185546875
-0.32305689453124997,-0.01291761962890625,0.98450763671875
-0.34834392578125,0.073599267578125,0.914709921875
-0.44146828125,0.03610044677734375,0.893573994140625
-0.40329458984375,-0.0033590966796874996,0.85081060546875
-0.2114535546875,-0.0651218603515625,0.7507835986328125
-0.1710915625,-0.0621807763671875,0.78396208984375
-0.18154677734375,-0.04281864013671875,0.8834975634765625
-0.3126016796875,-0.13742350830078126,1.03169482421875
-0.45532751953125,0.008405239257812499,1.2737749267578125
-0.3641483203125,0.0142874072265625,1.193409248046875
-0.34591248046875,-0.13203152099609375,1.12803533203125
-0.2591098828125,0.00178780029296875,1.0063808642578125
-0.21266927734375,0.08560869384765625,0.948625712890625
-0.32986494140625,0.04933532470703125,0.8879213623046875
-0.24281919921875,0.03413972412109375,0.861132802734375
-0.2484115234375,0.05962911865234375,0.9464138134765625
-0.4200715625,-0.0332601171875,0.9793465380859375
-0.1988100390625,0.04786478271484375,0.9867195361328125
-0.1569891796875,-0.07419020263671874,0.8972604931640625
-0.34396732421875,-0.14575657958984375,0.91077765625
-0.329621796875,-0.1670794384765625,0.9061080908203125
-0.36974064453125,-0.1366882373046875,1.00416896484375
-0.2552195703125,-0.0332601171875,1.1754682861328125
-0.15358515625,-0.11830646240234374,1.168832587890625
-0.33570041015625,0.02923791748046875,1.20864677734375
-0.38238416015625,0.04443351806640625,1.0909245751953125
-0.3690112109375,0.0005623486328125002,0.93338818359375
-0.2017277734375,-0.00409436767578125,1.04545775390625
-0.35806970703125,0.099088662109375,1.1703071875
-0.38700390625000003,0.04712951171875,1.0874838427734375
-0.33642984375,-0.0268877685546875,0.7606142626953125
-0.226528515625,-0.044044091796875,0.61487466796875
-0.14604767578125,-0.07443529296875,0.57555201171875
-0.2036729296875,-0.202862626953125,0.7751144921875
-0.296554140625,-0.19600009765625,1.03366095703125
-0.3767918359375,-0.09624833251953124,1.31875021484375
-0.4672416015625,-0.1337471533203125,1.262223896484375
-0.3865176171875,-0.02468195556640625,1.16539185546875
-0.31746457031249997,0.057913486328125,1.0496357861328125
-0.33326896484375,0.00963069091796875,0.8839890966796875
-0.23066197265625,-0.0028689160156250004,0.8333611767578125
-0.1307295703125,0.04198261474609375,0.959439443359375
-0.299471875,-0.0847290869140625,1.0938737744140625
-0.323786328125,-0.0641414990234375,1.1565442578125
-0.4156949609375,-0.15678564453125,1.0712632470703125
-0.40621232421875,0.00399361328125,0.8790737646484375
-0.22701480468750002,-0.1445311279296875,0.7306307373046875
-0.35515197265625,-0.16095218017578125,0.73480876953125
-0.38311359375,-0.02615249755859375,0.8908705615234375
-0.294608984375,-0.2004117236328125,1.0004824658203124
-0.37946642578125,-0.20604880126953126,0.996795966796875
-0.2878009375,-0.12516899169921875,0.9690243408203125
-0.3223274609375,-0.12541408203125,0.861132802734375
-0.27029453125,-0.06732767333984375,0.8559717041015625
-0.3145468359375,-0.08105273193359375,0.8363103759765624
-0.32864921874999997,-0.06267095703125,0.859658203125
-0.2736985546875,0.06281529296875,0.955507177734375
-0.2736985546875,0.0012976196289062499,0.89996392578125
-0.33813185546875,-0.050661530761718754,0.9154472216796875
-0.3223274609375,-0.0915916162109375,0.9606682763671874
-0.42712275390625,-0.07051384765625,0.91176072265625
-0.3437241796875,-0.12467881103515625,0.84884447265625
-0.23260712890625002,-0.13693332763671875,0.809030283203125
-0.2785614453125,-0.153844560546875,0.9483799462890625
-0.3894353515625,-0.19232374267578126,1.1228742333984374
-0.31697828125,-0.126394443359375,1.1386032958984376
-0.55987966796875,0.030463369140625002,1.0029401318359374
-0.26470220703125,0.02727719482421875,0.908319990234375
-0.22190876953125,-0.09722869384765626,0.73874103515625
-0.1278118359375,-0.04306373046875,0.8181236474609375
-0.218747890625,-0.16683434814453124,0.8240220458984375
-0.25983931640625,-0.14673694091796874,0.923065986328125
-0.33253953125,-0.09281706787109376,0.938303515625
-0.417153828125,-0.11438501708984375,1.02383029296875
-0.36098744140625,-0.10213050048828125,1.216019775390625
-0.34737134765625,-0.1239435400390625,1.226833505859375
-0.33667298828125003,-0.19330410400390624,0.991880634765625
-0.18470765625,-0.1239435400390625,0.9009469921875
-0.2688356640625,-0.10213050048828125,0.89603166015625
