ax,ay,az
-0.39551396484375,-0.18521612304687501,0.9783634716796875
-0.38238416015625,-0.112669384765625,0.6485446923828125
-0.28074974609375003,-0.04330882080078125,0.6603414892578126
-0.4438997265625,0.13536203125,0.853268271484375
-0.325731484375,0.197124794921875,0.7380037353515625
-0.28998923828125,0.25374066162109377,0.8557259375
-0.42663646484375,0.11747043701171875,0.859166669921875
-0.236254296875,0.1917328076171875,0.9267524853515625
-0.3544225390625,-0.044044091796875,0.737266435546875
-0.17717017578125,0.03315936279296875,0.7335799365234374
-0.28609892578125,0.09247122314453125,0.761843095703125
-0.40329458984375,-0.04036773681640625,0.859166669921875
-0.415208671875,0.01404231689453125,1.088221142578125
-0.31722142578125,0.1809488330078125,1.19095158203125
-0.2104809765625,0.053992041015625,1.23420650390625
-0.4186126953125,0.10399046875,1.2000449462890626
-0.41034578125,0.108892275390625,0.9031588916015625
-0.22482650390625,-0.0053198193359375,0.7930554541015625
-0.34202216796875,0.1633023291015625,0.931913583984375
-0.31333111328125,0.038306259765625,1.00613509765625
-0.23552486328125,0.197124794921875,0.9759058056640625
-0.16841697265625,-0.00777072265625,0.7117067089843749
-0.033958046875,-0.09428760986328125,0.8972604931640625
0.0161297265625,-0.09379742919921875,1.2624696630859376
-0.687530546875,-0.098944326171875,1.5490335205078125
-0.34591248046875,-0.11046357177734376,1.4256586865234375
-0.43101306640625,-0.18202994873046874,1.178663251953125
-0.24768208984375,0.06355056396484375,1.026287958984375
-0.210967265625,-0.04772044677734375,0.9749227392578125
-0.32864921874999997,0.08021670654296875,1.10837400390625
-0.50760359375,0.14492055419921876,1.15162892578125
-0.54529099609375,0.14908708984375,0.9277355517578125
-0.2775888671875,-0.050661530761718754,0.5873488085937499
-0.0091573046875,-0.146001669921875,0.569162080078125
-0.00016095703124999888,-0.20016663330078124,0.7851909228515626
-0.04878986328125,-0.35947534912109375,1.0457035205078125
-0.28172232421875,-0.3886410986328125,1.2467406005859374
-0.54042810546875,0.05864875732421875,1.3774884326171875
-0.436605390625,0.08756941650390625,1.1813666845703126
-0.44365658203125,0.06649164794921875,1.2452660009765626
-0.2357680078125,0.1623219677734375,1.337920009765625
-0.25205869140625,0.1015395654296875,1.091661875
-0.2299325390625,-0.0210056005859375,0.942727314453125
-0.21558701171875,-0.0798272802734375,0.9075826904296875
-0.13194529296875,-0.18791211669921876,0.878827998046875
-0.21850474609375,-0.19918627197265626,1.0643817822265624
-0.18397822265625,-0.21095060791015624,1.1287726318359375
-0.28901666015625,-0.14575657958984375,1.1248403662109374
-0.39794541015625,-0.13497260498046876,0.81935248046875
-0.45338236328125,-0.07271966064453125,0.684180849609375
-0.38043900390625,0.04933532470703125,0.6539515576171875
-0.14361623046875,0.0593840283203125,0.585874208984375
-0.12562353515625,0.16673359375,0.716622041015625
-0.2211793359375,0.05325677001953125,0.8712092333984375
-0.21218298828125,0.12776423095703124,1.12606919921875
-0.4575158203125,0.13903838623046874,1.1211538671875
-0.31308796875,-0.10409122314453124,0.9046334912109375
-0.2785614453125,0.00987578125,0.8952943603515625
-0.40232201171875,-0.057278969726562504,0.851302138671875
-0.21996361328125,0.0005623486328125002,0.8309035107421875
-0.2649453515625,0.03266918212890625,0.6372394287109375
-0.24865466796875,-0.00654527099609375,0.5389327880859375
-0.16720125,-0.0768861962890625,0.6807401171875
-0.26956509765625,0.0456589697265625,0.8844806298828125
-0.42031470703125,0.0721287255859375,1.075441279296875
-0.3164919921875,0.0397768017578125,1.0840431103515624
-0.4341739453125,-0.013652890625,0.9756600390625
-0.26907880859375,0.00399361328125,0.9407611816406249
-0.26859251953125,-0.05311243408203125,0.8773533984374999
-0.2124261328125,-0.146001669921875,0.8043607177734375
-0.1686601171875,-0.08056255126953125,0.9144641552734375
-0.34226531250000003,-0.17835359375,1.0245675927734375
-0.3427516015625,-0.15948163818359376,1.014491162109375
-0.315033125,0.0476196923828125,1.0267794921875
-0.3553951171875,0.04124734375,0.95698177734375
-0.27345541015625,0.1544790771484375,0.9228202197265625
-0.3038484765625,0.1319307666015625,0.9547698779296875
-0.384086171875,0.17237067138671874,1.0334151904296875
-0.27977716796875,0.1142842626953125,0.9896687353515625
-0.32743349609375,-0.05017135009765625,0.9483799462890625
-0.34396732421875,0.09786321044921875,1.0471781201171875
-0.3767918359375,-0.04870080810546875,0.909303056640625
-0.1229489453125,0.11305881103515625,0.9405154150390624
-0.42055785156250003,0.077520712890625,0.9503460791015625
-0.33181009765625,0.06281529296875,1.163917255859375
-0.34639876953125,0.14737145751953126,1.2192147412109375
-0.329621796875,0.20668331787109376,1.21061291015625
-0.22531279296875,0.0966377587890625,1.1997991796875
-0.30020130859375,0.1289896826171875,1.242562568359375
-0.24914095703125,0.17384121337890626,1.2767241259765625
-0.4584883984375,-0.07909200927734375,1.05332228515625
-0.28609892578125,-0.05409279541015625,1.027271025390625
-0.33229638671875,0.101049384765625,0.9282270849609375
-0.20877896484375,-0.1651187158203125,0.8043607177734375
-0.237226875,-0.18252012939453124,0.765775361328125
-0.265431640625,-0.0063001806640625,0.875387265625
-0.1492085546875,-0.2357047314453125,0.9179048876953125
-0.23747001953125,-0.09820905517578125,1.209138310546875
-0.30700935546875,-0.0053198193359375,1.222901240234375
-0.3155194140625,-0.1430605859375,0.9520664453125
-0.23114826171875,0.0123266845703125,0.8461410400390625
-0.25594900390624997,0.0427178857421875,0.896523193359375
-0.2396583203125,-0.025662316894531252,0.9051250244140625
-0.23649744140625,0.0020328906249999995,0.8309035107421875
-0.2036729296875,0.0003172583007812497,0.70531677734375
-0.17717017578125,-0.09477779052734375,0.602586337890625
-0.19637859375,-0.0612004150390625,0.6052897705078125
-0.17571130859375,-0.01732924560546875,0.650756591796875
-0.2163164453125,0.1191860693359375,0.8009199853515625
-0.2333365625,0.17090012939453125,0.9267524853515625
-0.26178447265625,0.23756469970703126,1.0997721728515626
-0.30311904296875003,0.2887885791015625,1.2506728662109374
-0.18884111328125,0.26942644287109374,1.1997991796875
-0.29679728515625,0.22727090576171874,0.9414984814453125
-0.190543125,0.24001560302734376,0.8613785693359375
-0.13583560546875,0.1084020947265625,0.8481071728515625
-0.2289599609375,0.0789912548828125,0.8962774267578125
-0.32451576171875,-0.034240478515625,0.9238032861328125
-0.12173322265625,0.0721287255859375,1.1612138232421876
-0.30117388671875,0.01453249755859375,1.152120458984375
-0.3894353515625,-0.06389640869140625,1.05135615234375
-0.296554140625,0.19099753662109376,1.1091113037109375
-0.4118046484375,0.02360083984375,0.9650920751953125
-0.2309051171875,0.056933125,0.92552365234375
-0.21461443359375,-0.035711020507812496,0.94223578125
-0.40767119140625,-0.09134652587890625,1.0855177099609374
-0.30166017578125,-0.1602169091796875,0.8773533984374999
-0.2795340234375,-0.07762146728515625,0.6313410302734375
-0.23212083984375,-0.1195319140625,0.5551533837890625
-0.0859909765625,-0.1523740185546875,0.54900921875
-0.1297569921875,-0.09796396484375,0.6689433203125
-0.259596171875,-0.0386521044921875,1.0933822412109375
-0.26372962890625,0.03928662109375,1.4148449560546874
-0.54577728515625,0.18217428466796876,1.44654884765625
-0.601943671875,0.205948046875,1.2413337353515626
-0.3155194140625,0.16085142578125,1.024321826171875
-0.33108066406250003,0.01159141357421875,0.9795923046875
-0.3446967578125,0.14394019287109375,0.8053437841796875
-0.26275705078125,0.01110123291015625,0.60701013671875
-0.156502890625,0.00227798095703125,0.5273817578125
-0.16136578125,0.09100068115234375,0.694011513671875
-0.34542619140624997,0.04590406005859375,1.0329236572265625
-0.532890625,0.08511851318359374,1.2627154296875
-0.4808576953125,0.205948046875,1.0820769775390624
-0.33132380859375,0.2250650927734375,0.8122252490234375
-0.24038775390625,0.22580036376953125,0.780521357421875
-0.2630001953125,0.2603581005859375,0.8377849755859375
-0.27613,0.13266603759765624,1.0385762890625
-0.3612305859375,0.20178151123046875,1.2231470068359376
-0.25862359375,0.0035034326171875,1.198324580078125
-0.335457265625,0.030708459472656248,1.2398591357421875
-0.49179919921875,-0.008996174316406251,1.2496897998046874
-0.360744296875,0.07384435791015626,1.145238994140625
-0.36925435546875,-0.07835673828125,0.993355234375
-0.2357680078125,0.0417375244140625,1.1282810986328125
-0.23892888671875,0.11256863037109376,1.274020693359375
-0.40280830078125,-0.10899302978515625,1.150645859375
-0.372415234375,0.09835339111328124,0.8972604931640625
-0.1365650390625,-0.120512275390625,0.6706636865234374
-0.14215736328125,-0.0945327001953125,0.7566819970703125
-0.34737134765625,-0.004829638671875,0.9090572900390625
-0.3578265625,-0.0406128271484375,1.0383305224609374
-0.292663828125,0.12874459228515625,1.1140266357421875
-0.5158705078125,0.077520712890625,0.9837703369140625
-0.2800203125,0.1074217333984375,1.028745625
-0.18835482421875,0.12923477294921876,1.15752732421875
-0.02301654296875,0.07433453857421875,1.2949108544921875
-0.1599069140625,0.15570452880859376,1.4514641796875
-0.578601796875,0.0010525292968750002,1.3334962109375
-0.30068759765624997,0.030708459472656248,1.072492080078125
-0.296554140625,-0.02125069091796875,0.853268271484375
-0.20975154296875,-0.049926259765625,0.9881941357421875
-0.2172890234375,-0.05801424072265625,1.1054248046875
-0.19613544921875,-0.15065838623046876,1.001711298828125
-0.2610550390625,-0.0915916162109375,0.9414984814453125
-0.33375525390625,-0.022476142578125,1.0545511181640626
-0.2960678515625,0.0642858349609375,1.3099026171875
-0.31916658203125,0.1338914892578125,1.5033209326171875
-0.4137498046875,0.22482000244140626,1.3509456396484376
-0.33326896484375,0.24491740966796874,1.1880023828125
-0.2542469921875,0.26060319091796874,1.1848074169921876
-0.36244630859375,0.06306038330078124,1.053813818359375
-0.30944080078125,0.0731090869140625,1.1150097021484375
-0.13729447265625,-0.0562986083984375,0.986965302734375
-0.2736985546875,-0.1994313623046875,1.1508916259765625
-0.28074974609375003,-0.1376685986328125,1.3686408349609376
-0.35806970703125,-0.233253828125,1.384124130859375
-0.37557611328125,-0.10948321044921874,1.3352165771484374
-0.43636224609375,-0.02713285888671875,1.1951296142578125
-0.45630009765625,-0.02125069091796875,1.0196522607421874
-0.34396732421875,-0.04281864013671875,0.907336923828125
-0.32889236328125,0.12335260498046875,1.0171945947265626
-0.22677166015625,-0.01095689697265625,0.9223286865234375
-0.1851939453125,-0.112669384765625,0.8574463037109374
-0.12951384765625001,-0.13840386962890625,0.855234404296875
-0.27637314453125,-0.16854998046875,0.9277355517578125
-0.3962433984375,-0.0396324658203125,1.0815854443359374
-0.339347578125,0.13658748291015624,1.0987891064453126
-0.29776986328125,0.18438009765625,1.05528841796875
-0.42201671875,0.08903995849609375,1.075441279296875
-0.20537494140625,0.08609887451171874,0.9926179345703126
-0.2464663671875,0.10619628173828125,0.8009199853515625
-0.28707150390625,-0.010221625976562499,0.788877421875
-0.28755779296875,-0.2160975048828125,0.7741314257812499
-0.35952857421875,-0.24869451904296874,0.692045380859375
-0.42712275390625,-0.20800952392578126,0.627162998046875
-0.25643529296875,-0.07835673828125,0.5546618505859375
-0.1200312109375,-0.09012107421875,0.5954591064453125
-0.11832919921875,-0.15457983154296875,0.709740576171875
-0.16160892578125,0.12090170166015625,0.8087845166015625
-0.1827625,0.01747358154296875,0.85474287109375
-0.21218298828125,0.08756941650390625,0.925032119140625
-0.30700935546875,0.1917328076171875,0.883743330078125
-0.024232265625,0.01575794921875,1.009084296875
-0.2484115234375,-0.23447927978515626,1.1447474609375
-0.54188697265625,-0.28643843017578124,0.9247863525390625
-0.4507077734375,-0.269527197265625,0.6396970947265626
-0.3972159765625,-0.2298225634765625,0.5227121923828125
-0.32281375,-0.2494297900390625,0.348463671875
-0.24038775390625,-0.247959248046875,0.301768017578125
-0.026420566406250002,-0.07051384765625,0.41236298828125
-0.0266637109375,-0.1759026904296875,0.6097135693359375
-0.033958046875,-0.18791211669921876,0.86850580078125
-0.08137123046875,-0.087179990234375,1.19291771484375
-0.5411575390625,0.0505607763671875,1.5667287158203125
-0.67026728515625,0.2255552734375,1.5800001123046874
-0.51027818359375,0.2966314697265625,1.4332774511718749
-0.59246103515625,0.15300853515625001,1.2290454052734374
-0.46164927734375,0.205948046875,0.8761245654296875
-0.20148462890625,0.2162418408203125,0.8313950439453125
-0.27613,0.1162449853515625,0.8183694140625
-0.1676875390625,0.1123235400390625,0.89209939453125
-0.2698082421875,-0.07051384765625,0.989914501953125
-0.384086171875,0.07482471923828125,0.904387724609375
-0.3126016796875,0.02752228515625,0.7672499609375
-0.23406599609375,0.01159141357421875,0.6745959521484375
-0.22093619140625,0.01796376220703125,0.5738316455078125
-0.25400384765625,0.0789912548828125,0.60504400390625
-0.21072412109375,-0.07271966064453125,0.8564632373046875
-0.4468174609375,-0.034240478515625,1.342835341796875
-0.6393879296875,-0.01193725830078125,1.5844239111328124
-0.4759948046875,-0.1925688330078125,1.3981328271484375
-0.2450075,-0.06438658935546875,1.09952640625
-0.12221951171875,-0.11732610107421874,0.88620099609375
-0.07893978515625,-0.00409436767578125,0.7999369189453125
-0.2678630859375,0.0535018603515625,0.82721701171875
-0.3874901953125,0.10129447509765625,0.7684787939453125
-0.41691068359375,0.0701680029296875,0.65812958984375
-0.1205175,-0.112669384765625,0.5836623095703125
0.08785736328125,-0.13840386962890625,0.7674957275390625
0.13016451171875,-0.23202837646484376,1.2904870556640624
-0.41739697265625,-0.3758964013671875,1.8894202636718749
-0.7013897851562501,0.01600303955078125,1.501109033203125
-0.64498025390625,-0.09869923583984375,1.2423168017578126
-0.3656071875,-0.22663638916015624,1.245020234375
-0.2250696484375,-0.17124597412109374,1.49275296875
-0.27005138671875,0.0348749951171875,1.303512685546875
-0.40913005859375,0.15913579345703124,0.8223016796875
-0.4166675390625,0.08266760986328126,0.474787705078125
-0.2396583203125,0.116735166015625,0.2617080615234375
0.06159775390625,-0.069533486328125,0.410888388671875
0.0890730859375,-0.06291604736328126,1.0550426513671876
-0.06143337890625,-0.034240478515625,1.555177685546875
-0.72667681640625,0.07433453857421875,1.8093003515625
-0.7687408203125,0.20374223388671875,1.4337689843749999
-0.467727890625,-0.09477779052734375,0.8761245654296875
-0.2659179296875,0.05521749267578125,0.79575888671875
-0.24379177734375002,0.24785849365234375,0.8485987060546875
-0.15625974609374998,0.1466361865234375,0.787402822265625
-0.25011353515625,-0.12663953369140624,0.922082919921875
-0.3301080859375,0.0407571630859375,1.1683410546875
-0.26567478515625,-0.120512275390625,1.2973685205078125
-0.1910294140625,-0.29722240478515627,1.357581337890625
-0.16938955078125,-0.03987755615234375,1.2246216064453126
-0.29922873046875,-0.24918469970703125,1.028745625
-0.3106565234375,-0.02762303955078125,0.90586232421875
-0.3456693359375,0.00987578125,0.6682060205078125
-0.35320681640625,0.03757098876953125,0.65616345703125
-0.286828359375,0.00791505859375,0.6893419482421875
-0.28634207031250003,0.0985984814453125,0.8309035107421875
-0.41058892578125,-0.00581,0.92552365234375
-0.35417939453125,-0.029338671875,1.021372626953125
-0.33570041015625,-0.0332601171875,1.065610615234375
-0.35199109375,-0.1670794384765625,1.08084814453125
-0.190543125,-0.15507001220703126,1.0982975732421876
-0.27540056640625,-0.22173458251953124,1.087729609375
-0.386031328125,-0.208744794921875,0.980083837890625
-0.212912421875,-0.14085477294921875,0.86260740234375
-0.3344846875,-0.1778634130859375,0.7161305078125
-0.1657423828125,-0.09134652587890625,0.6910623144531249
-0.25789416015625,-0.00752563232421875,0.6925369140625
-0.34396732421875,-0.091101435546875,0.7738856591796874
-0.284883203125,-0.0396324658203125,0.8795652978515625
-0.4312562109375,-0.059484782714843754,0.9097945898437501
-0.3952708203125,-0.0827683642578125,1.0058893310546875
-0.4468174609375,-0.02370159423828125,1.0648733154296874
-0.4147223828125,-0.023456503906250002,0.9940925341796875
-0.2610550390625,-0.16854998046875,0.9520664453125
-0.33326896484375,-0.21781313720703124,0.8567090039062499
-0.23941517578125,-0.08007237060546875,0.8269712451171874
-0.27005138671875,-0.06389640869140625,0.8019030517578125
-0.32111173828125,-0.0406128271484375,0.771673759765625
-0.2688356640625,-0.02370159423828125,0.85081060546875
-0.30530734375,0.0858537841796875,0.8603955029296875
-0.2980130078125,-0.0161037939453125,0.8891501953125
-0.28901666015625,-0.0332601171875,0.8736668994140625
-0.374360390625,-0.06585713134765625,0.8417172412109375
-0.2163164453125,-0.11561046875,0.8525309716796875
-0.2411171875,-0.12271808837890624,0.969761640625
-0.296554140625,-0.07615092529296875,1.152120458984375
-0.44462916015625,-0.0759058349609375,1.205697578125
-0.29533841796875,0.0015427099609375003,1.136391396484375
-0.31308796875,-0.09036616455078125,0.991880634765625
-0.25643529296875,-0.04281864013671875,1.0171945947265626
-0.1530988671875,-0.02958376220703125,1.012525029296875
-0.17911533203125,-0.0680629443359375,0.95796484375
-0.19370400390625,0.01159141357421875,0.92552365234375
-0.22750109375,-0.0739451123046875,0.8825144970703125
-0.26324333984375,-0.01585870361328125,0.9650920751953125
-0.31624884765625,-0.08840544189453126,1.0653648486328124
-0.39551396484375,-0.07173929931640625,1.13983212890625
-0.3694975,-0.03742665283203125,1.0668394482421875
-0.2503566796875,0.03610044677734375,0.934862783203125
-0.3427516015625,-0.034240478515625,0.827708544921875
-0.29047552734375,0.10080429443359375,0.9759058056640625
-0.34032015625,0.07286399658203124,1.037101689453125
-0.28074974609375003,0.15178308349609376,1.07494974609375
-0.15091056640625,0.09492212646484376,1.074458212890625
-0.16258150390625,0.11649007568359375,1.1582646240234376
-0.280992890625,0.103010107421875,1.2192147412109375
-0.3203823046875,0.04688442138671875,1.2054518115234374
-0.2970404296875,0.0966377587890625,1.1567900244140625
-0.38821962890625,0.019434304199218752,1.01596576171875
-0.38967849609375,0.01845394287109375,1.0117877294921875
-0.372415234375,0.0211499365234375,0.93732044921875
-0.30919765625,-0.01389798095703125,0.862115869140625
-0.28318119140625,-0.0960032421875,0.7837163232421875
-0.214857578125,0.0515411376953125,0.9267524853515625
-0.349073359375,-0.0151234326171875,0.9901602685546875
-0.21193984375,0.0966377587890625,0.9614055761718749
-0.19248828125,0.08413815185546875,0.890624794921875
-0.20877896484375,-0.0415931884765625,0.9965502001953125
-0.16015005859375,0.01110123291015625,1.154578125
-0.267376796875,-0.0298288525390625,1.17325638671875
-0.23990146484375,-0.023456503906250002,1.1553154248046875
-0.36585033203125,-0.04698517578125,1.102967138671875
-0.33108066406250003,-0.07713128662109375,1.0614325830078124
-0.33715927734375,0.02360083984375,0.9837703369140625
-0.39502767578125,0.00521906494140625,0.8879213623046875
-0.40086314453125,0.0255615625,0.8068183837890625
-0.2022140625,0.0760501708984375,0.7741314257812499
-0.21218298828125,0.1289896826171875,0.70531677734375
-0.1944334375,0.12335260498046875,0.73874103515625
-0.20804953125,0.1534987158203125,0.8338527099609375
-0.218747890625,0.15031254150390624,1.0319405908203125
-0.29582470703125,0.138303115234375,1.192426181640625
-0.374360390625,0.19687970458984375,1.223884306640625
-0.384086171875,0.17090012939453125,1.121645400390625
-0.382141015625,0.146146005859375,1.0108046630859375
-0.33181009765625,-0.012672529296875,0.873912666015625
-0.32208431640625,0.036345537109375,0.7596311962890625
-0.199296328125,0.02360083984375,0.647315859375
-0.220693046875,-0.010711806640625,0.6564092236328125
-0.22579908203125,0.0397768017578125,0.71121517578125
-0.25789416015625,0.1123235400390625,0.7711822265625
-0.19613544921875,0.110852998046875,0.9410069482421874
-0.24622322265625,0.07972652587890625,1.18701931640625
-0.28658521484375,0.14443037353515625,1.2098756103515624
-0.2805066015625,0.15962597412109375,1.170798720703125
-0.30627992187499997,-0.032279755859375,1.089204208984375
-0.17473873046875,-0.140119501953125,1.0147369287109376
-0.27613,0.01404231689453125,1.097068740234375
-0.2542469921875,-0.1611972705078125,0.9609140429687499
-0.34737134765625,-0.08007237060546875,0.7670041943359375
-0.16841697265625,0.00399361328125,0.654688857421875
-0.19564916015625,-0.0013983740234375002,0.61487466796875
-0.2250696484375,0.06060947998046875,0.84491220703125
-0.2182616015625,0.20374223388671875,1.07494974609375
-0.279047734375,0.15717507080078125,1.1641630224609374
-0.32305689453124997,0.1672237744140625,1.1735021533203125
-0.26640421875,0.17335103271484376,1.1592476904296876
-0.24695265625,-0.00213364501953125,1.13196759765625
-0.23552486328125,0.1182057080078125,1.1911973486328125
-0.2454937890625,-0.0254172265625,1.0112961962890625
-0.32889236328125,0.21403602783203124,1.181612451171875
-0.33375525390625,0.1623219677734375,1.0245675927734375
-0.46529644531250003,0.0069346972656249995,0.909303056640625
-0.28391062499999997,0.2025167822265625,0.970253173828125
-0.3485870703125,0.0721287255859375,0.8505648388671875
-0.23357970703125,0.04541387939453125,0.7891231884765625
-0.18835482421875,0.04100225341796875,0.75840236328125
-0.10325423828125,0.04198261474609375,0.7984623193359375
-0.195406015625,0.00570924560546875,0.987948369140625
-0.28391062499999997,0.012816865234374999,1.33251314453125
-0.37581925781250003,-0.00458454833984375,1.3366911767578125
-0.35417939453125,-0.023456503906250002,1.2133163427734375
-0.370470078125,0.0191892138671875,1.027271025390625
-0.30798193359375,-0.027868129882812502,0.788385888671875
-0.21899103515625,-0.02174087158203125,0.78592822265625
-0.4244481640625,0.06894255126953125,0.810996416015625
-0.2561921484375,-0.0386521044921875,0.7790467578125
-0.18300564453125,0.13315621826171875,0.7994453857421875
-0.2717533984375,0.12482314697265626,0.7399698681640625
-0.06872771484375,0.02433611083984375,0.9090572900390625
-0.2698082421875,0.2309472607421875,1.1538408251953125
-0.30506419921875,0.08658905517578125,1.2899955224609374
-0.2722396875,0.1157548046875,1.3927259619140624
-0.43538966796875,0.14590091552734374,1.287783623046875
-0.38238416015625,0.1956542529296875,1.2364184033203125
-0.4400094140625,0.12433296630859375,0.9233117529296875
-0.38821962890625,0.052031318359375,0.7340714697265625
-0.26640421875,0.00227798095703125,0.70924904296875
-0.2163164453125,0.1652630517578125,0.7266984716796875
-0.32986494140625,0.1652630517578125,0.7945300537109374
-0.27783201171875,0.23168253173828124,0.8574463037109374
-0.28391062499999997,0.2495741259765625,0.86850580078125
-0.29776986328125,0.27628897216796877,0.9206083203125
-0.2289599609375,0.14786163818359374,1.0324321240234375
-0.265431640625,0.01575794921875,0.9916348681640625
-0.25449013671875,-0.038161923828125,1.0108046630859375
-0.378250703125,-0.0009081933593750001,1.168832587890625
-0.4049966015625,0.03021827880859375,1.31875021484375
-0.5362946484375,0.12923477294921876,1.2904870556640624
-0.29874244140625,0.0037485229492187503,1.058729150390625
-0.26178447265625,0.106931552734375,0.9665666748046875
-0.27880458984375,0.11207844970703125,0.9542783447265625
-0.22677166015625,0.079481435546875,1.0152284619140626
-0.38821962890625,0.17482157470703125,0.9346170166015625
-0.2250696484375,0.08634396484375,0.8318865771484375
-0.1034973828125,0.07923634521484375,0.82328474609375
-0.2386857421875,0.079481435546875,0.99433830078125
-0.28950294921874997,0.093206494140625,1.1243488330078124
-0.33326896484375,0.0451687890625,1.1346710302734375
-0.2231244921875,0.17923320068359375,1.1155012353515625
-0.20415921875,0.20276187255859374,1.166374921875
-0.22628537109375,0.0848734228515625,1.239613369140625
-0.2542469921875,0.24344686767578125,1.202256845703125
-0.37922328125,-0.042328459472656246,1.1341794970703125
-0.28220861328125,0.0613447509765625,1.0560257177734376
-0.0665394140625,0.02727719482421875,0.8778449316406249
0.09806943359375,-0.18350049072265626,1.0245675927734375
-0.27102396484375,-0.42344392578125,1.2560797314453125
-0.4332013671875,-0.389131279296875,0.8225474462890625
-0.31187224609374997,-0.3170747216796875,0.55982294921875
-0.315033125,-0.3013889404296875,0.3796760302734375
-0.14361623046875,-0.198941181640625,0.1695455859375
0.02026318359375,-0.0661022216796875,0.26834375976562497
0.04165990234375,0.02923791748046875,0.5733401123046875
0.09661056640625,0.10399046875,0.969270107421875
-0.29533841796875,0.2456526806640625,1.5514911865234375
-0.6646749609375,0.29221984375,1.8763946337890625
-0.68388337890625,0.4485874755859375,1.857962138671875
-0.50784673828125,0.4770179541015625,1.70017998046875
-0.50298384765625,0.4034908544921875,1.31678408203125
-0.327676640625,0.35961968505859376,0.8918536279296875
-0.1783858984375,0.2956511083984375,0.9459222802734375
-0.11006228515625,0.1113431787109375,0.9252778857421875
-0.1988100390625,0.07433453857421875,0.932896650390625
-0.2912049609375,-0.13448242431640625,0.813945615234375
-0.30311904296875003,-0.1866866650390625,0.6534600244140625
-0.358799140625,0.069677822265625,0.75053783203125
-0.34226531250000003,0.126538779296875,0.8338527099609375
-0.32451576171875,0.150067451171875,1.1427813281249999
-0.5601228125,0.03708080810546875,1.374785
-0.42809533203125,-0.0504164404296875,1.387073330078125
-0.5187882421875,-0.14183513427734376,1.1671122216796874
-0.27515742187500003,-0.149923115234375,1.0599579833984376
-0.28998923828125,-0.09477779052734375,0.94715111328125
-0.2775888671875,-0.1759026904296875,0.798216552734375
-0.25546271484375,-0.25947849365234377,0.7522581982421875
-0.2892598046875,-0.25212578369140626,0.6052897705078125
-0.18543708984375,-0.13693332763671875,0.491499833984375
-0.1783858984375,-0.0827683642578125,0.3428110400390625
-0.0801555078125,-0.1278649853515625,0.23344490234374998
-0.09450103515625,-0.14502130859375,0.25802156249999997
-0.21753216796875,-0.0562986083984375,0.39663392578125
-0.27005138671875,-0.0562986083984375,0.6279002978515625
-0.1112780078125,-0.19403937500000001,0.923065986328125
0.07594328125,0.0446786083984375,1.7628504638671876
0.08177875,0.18952699462890624,2.129718558349609
-0.8251503515625,0.14516564453125,2.129718558349609
-0.76071705078125,0.3054547216796875,1.9093273583984374
-0.56814658203125,-0.08546435791015625,0.970253173828125
-0.47040248046875,-0.08399381591796876,0.5984083056640626
-0.0067258593750000005,-0.21340151123046874,0.4880591015625
0.057707441406250004,-0.1592365478515625,0.3275735107421875
-0.15528716796875,0.030708459472656248,0.363701201171875
-0.2532744140625,0.021885207519531248,0.246224765625
-0.2600824609375,0.06649164794921875,0.3025053173828125
-0.23844259765625,0.093206494140625,0.368125
-0.31089966796875,0.1574201611328125,0.50673736328125
-0.40694175781249997,0.1476165478515625,0.6205272998046875
-0.29631099609375,0.26256391357421877,0.9734481396484375
-0.46797103515625,0.4701554248046875,1.858453671875
-0.78260005859375,0.5257909301757813,1.9270225537109376
-0.90174087890625,0.0037485229492187503,1.695756181640625
-0.224583359375,0.1446754638671875,1.256325498046875
-0.23139140625,0.01649322021484375,0.81738634765625
-0.1336473046875,-0.008996174316406251,0.8245135791015625
-0.09134015625,-0.00605509033203125,0.784453623046875
-0.1161408984375,0.143204921875,0.8038691845703125
-0.380195859375,0.0927163134765625,0.7114609423828124
-0.337402421875,0.26697553955078124,0.7999369189453125
0.049197382812499996,0.00766996826171875,0.9444476806640625
-0.09498732421875,-0.01193725830078125,1.2614865966796875
-0.50881931640625,0.1329111279296875,1.5652541162109375
-0.42615017578125003,0.15521434814453125,1.4797273388671874
-0.5912453125,0.044188427734375,1.1789090185546875
-0.3578265625,0.1887917236328125,1.0756870458984376
-0.5003092578125,0.00619942626953125,0.84491220703125
-0.251815546875,-0.068553125,0.7139186083984375
-0.18106048828125,0.071638544921875,0.5588398828125
-0.14847912109375,0.06600146728515625,0.44480417968749997
-0.07650833984375,0.062080021972656246,0.514110361328125
-0.09790505859375,0.05889384765625,0.714164375
-0.26056875,0.10202974609375,1.0604495166015624
-0.34931650390625,0.2250650927734375,1.4232010205078125
-0.30555048828125,0.27530861083984376,1.5544403857421876
-0.41836955078125,0.2412410546875,1.475549306640625
-0.3874901953125,0.22089855712890624,1.246494833984375
-0.389921640625,0.16869431640625,1.02972869140625
-0.39478453125,0.203006962890625,1.0520934521484375
-0.23941517578125,0.27138716552734377,0.9407611816406249
-0.20464550781250002,0.13340130859375,0.7746229589843749
-0.0621628125,0.15129290283203126,0.8721922998046875
-0.1706052734375,0.130460224609375,0.968287041015625
-0.30020130859375,0.091245771484375,1.021372626953125
-0.20780638671875,0.15300853515625001,1.0727378466796875
-0.29169125,0.230457080078125,1.0211268603515624
-0.312115390625,0.189281904296875,0.942727314453125
-0.191515703125,0.253005390625,1.07691587890625
-0.23066197265625,0.21599675048828126,1.1592476904296876
-0.403537734375,0.38854034423828127,1.3185044482421875
-0.49277177734375,0.4020203125,1.3838783642578125
-0.35393625,0.14933218017578126,1.44261658203125
-0.44706060546875,0.21183021484375,1.441141982421875
-0.2153438671875,0.148106728515625,1.3730646337890624
-0.39891798828125,0.01257177490234375,0.9913891015625
-0.2027003515625,0.11550971435546875,0.8304119775390625
-0.195406015625,-0.05556333740234375,0.6731213525390625
-0.216802734375,-0.11781628173828125,0.6888504150390625
-0.22044990234375,0.00766996826171875,0.7994453857421875
-0.3709563671875,0.04712951171875,0.927981318359375
-0.4973915234375,0.0897752294921875,0.9365831494140625
-0.39551396484375,-0.0308092138671875,0.79969115234375
-0.31478998046875,-0.047965537109375,0.714655908203125
-0.265431640625,0.00276816162109375,0.7404614013671875
-0.3164919921875,0.053992041015625,0.8102591162109375
-0.2902323828125,-0.013652890625,0.8033776513671875
-0.2931501171875,-0.00997653564453125,1.005643564453125
-0.3267040625,0.1044806494140625,1.026287958984375
-0.31478998046875,0.13805802490234376,1.0221099267578124
-0.2678630859375,0.12090170166015625,0.9405154150390624
-0.2688356640625,0.16256705810546876,0.8930824609375
-0.26470220703125,0.008405239257812499,0.832623876953125
-0.1764407421875,0.0329142724609375,0.7350545361328125
-0.300444453125,0.06992291259765625,0.657638056640625
-0.2878009375,0.0358553564453125,0.640925927734375
-0.28366748046875,0.0564429443359375,0.6578838232421875
-0.34396732421875,0.138303115234375,0.7812586572265625
-0.35320681640625,0.1976149755859375,0.98450763671875
-0.43976626953125,0.1387932958984375,1.1110774365234375
-0.39405509765625,0.18511536865234374,1.174239453125
-0.30700935546875,0.08707923583984375,1.0147369287109376
-0.20415921875,0.064776015625,1.0029401318359374
-0.22288134765625,0.12090170166015625,0.98843990234375
-0.3408064453125,-0.0210056005859375,0.9346170166015625
-0.30798193359375,0.05325677001953125,1.0525849853515625
-0.37119951171875,0.019679394531249998,0.99630443359375
-0.325731484375,0.05889384765625,0.9827872705078124
-0.2775888671875,0.0387964404296875,1.0427543212890624
-0.337402421875,-0.051886982421875,1.1211538671875
-0.41253408203124997,0.0373258984375,1.18112091796875
-0.41618125,-0.09575815185546875,1.074458212890625
-0.47234763671875,-0.06242586669921875,1.0653648486328124
-0.49204234375,0.03561026611328125,1.1479424267578124
-0.41423609375,-0.0415931884765625,1.0417712548828124
-0.230418828125,-0.12075736572265625,0.8643277685546875
-0.28658521484375,-0.09477779052734375,0.813945615234375
-0.25886673828125,-0.08742508056640624,0.8102591162109375
-0.23917203125,-0.0955130615234375,0.76036849609375
-0.30627992187499997,0.057913486328125,0.7529954980468749
-0.3826273046875,0.106931552734375,0.679265517578125
-0.20780638671875,0.12286242431640625,0.6795112841796875
-0.29242068359375,0.021640117187500002,0.7080202099609375
-0.35855599609375,0.10202974609375,0.8785822314453124
-0.3694975,0.065756376953125,1.0511103857421875
-0.41399294921875,0.04712951171875,1.1779259521484375
-0.32354318359375,0.1157548046875,1.2600119970703125
-0.22093619140625,0.13119549560546875,1.280410625
-0.3194097265625,0.085363603515625,1.2676307617187499
-0.455084375,0.07825598388671876,1.1513831591796875
-0.3057936328125,0.12433296630859375,1.09067880859375
-0.2756437109375,0.0123266845703125,0.777572158203125
-0.29776986328125,-0.059729873046875,0.584891142578125
-0.28974609375,-0.09526797119140624,0.5988998388671875
-0.24938410156250002,-0.106787216796875,0.56473828125
-0.352963671875,-0.10801266845703125,0.6711552197265624
-0.4497351953125,-0.0092412646484375,0.747097099609375
-0.35855599609375,-0.1337471533203125,0.6244595654296875
-0.0932853125,-0.11487519775390626,0.539670087890625
-0.05997451171875,-0.14918784423828124,0.5502380517578125
-0.08963814453125,-0.159726728515625,0.658621123046875
-0.0699434375,-0.1504132958984375,0.7355460693359375
-0.035173769531249996,-0.18889247802734374,0.7748687255859374
-0.1842213671875,-0.1572758251953125,0.7350545361328125
-0.0315266015625,-0.0219859619140625,0.7591396630859375
-0.12270580078125,0.009140510253906251,0.8313950439453125
-0.2659179296875,0.11550971435546875,0.8554801708984375
-0.4555706640625,0.11599989501953126,0.8805483642578125
-0.041495527343750005,0.093206494140625,1.071509013671875
0.04457763671875,0.2961412890625,1.4463030810546875
-0.20464550781250002,0.6512771801757813,2.129718558349609
-0.4438997265625,0.7934295727539062,2.129718558349609
-0.626258125,0.707893046875,2.129718558349609
-0.76606623046875,0.5495646923828125,1.6244838671875
-0.8290406640625,0.3745701953125,1.3017923193359375
-0.39989056640625,-0.01144707763671875,0.7232577392578124
-0.059245078125,-0.10948321044921874,0.5123899951171875
0.0258555078125,-0.10311086181640625,0.22164810546875
-0.01766736328125,-0.159726728515625,0.5055085302734375
-0.26956509765625,-0.25457668701171876,0.8259881787109375
-0.4925286328125,-0.33325068359375,1.3878106298828126
-0.99997126953125,-0.30261439208984375,2.0029644335937498
-1.0058067382812501,0.18045865234375,1.8483772412109376
-0.56620142578125,0.02139502685546875,1.42885365234375
-0.444386015625,-0.12149263671875,1.0444746875
-0.2435486328125,-0.27050755859375,0.6809858837890626
-0.190543125,-0.2357047314453125,0.439397314453125
-0.12756869140625,-0.24967488037109375,0.480686103515625
-0.1881116796875,-0.259723583984375,0.3954050927734375
-0.20026890625,-0.2484494287109375,0.3622266015625
-0.2785614453125,-0.27246828125,0.7158847412109375
-0.40645546875,-0.100905048828125,0.9481341796875
-0.48888146484375,-0.02272123291015625,1.36003900390625
-0.7094135546875,0.1240878759765625,1.7771049267578125
-0.7473441015625,0.15815543212890626,1.5387113232421874
-0.3408064453125,0.00423870361328125,1.1671122216796874
-0.2853694921875,0.021885207519531248,0.7842078564453125
-0.14167107421875,0.1084020947265625,0.6175781005859375
-0.08477525390625,0.1157548046875,0.511161162109375
-0.07577890625,0.0956573974609375,0.48609296874999997
-0.0626491015625,0.0843832421875,0.3976169921875
-0.14604767578125,0.1231075146484375,0.4573382763671875
-0.2707808203125,0.07923634521484375,0.34035337402343746
-0.1920019921875,0.03021827880859375,0.227054970703125
-0.13680818359375,0.033404453125,0.27473369140625
-0.16914640625,0.0574233056640625,0.2779286572265625
-0.05219388671875,0.08854977783203125,0.5942302734375
0.089559375,0.06600146728515625,1.283851357421875
0.25368193359375,0.15374380615234376,2.129718558349609
-0.057056777343750004,0.4976055419921875,2.129718558349609
-0.61483033203125,0.26084828125,2.129718558349609
-0.6423056640625,0.45569509521484375,2.1157713037109374
-0.83366041015625,0.29295511474609376,1.8960559619140624
-0.97468423828125,0.452018740234375,1.800944287109375
-0.18981369140625,0.3172190576171875,1.004660498046875
-0.1205175,-0.046740085449218746,0.5369666552734375
-0.1005796484375,-0.1219828173828125,0.2897254541015625
-0.3106565234375,-0.1111988427734375,0.183308515625
-0.28074974609375003,-0.06291604736328126,0.1309602294921875
-0.25059982421875,-0.14134495361328125,0.2105886083984375
-0.16501294921875,-0.19036302001953126,0.4509483447265625
-0.06824142578125,-0.2562923193359375,0.9945840673828125
-0.52146283203125,-0.22859711181640624,1.59597494140625
-0.917058984375,-0.1425704052734375,1.470633974609375
-0.85992001953125,-0.20948006591796875,1.1037044384765624
-0.43830740234375,-0.081297822265625,0.7040879443359375
-0.06970029296875,-0.01953505859375,0.69745224609375
-0.076751484375,0.04100225341796875,0.6355190625
-0.08769298828125,-0.10164031982421876,0.6500192919921874
-0.18227621093750002,-0.028358310546875,0.84097994140625
-0.224583359375,-0.16095218017578125,0.8648193017578125
-0.08817927734375,0.0564429443359375,0.7178508740234375
-0.0855046875,0.07433453857421875,0.84294607421875
-0.237226875,0.0466393310546875,1.0149826953125
-0.25303126953125,0.09100068115234375,1.1268064990234374
-0.48596373046875,0.16844922607421875,1.300071953125
-0.5450478515625,0.2804555078125,1.2555881982421875
-0.4526529296875,0.0535018603515625,1.0457035205078125
-0.3057936328125,0.03610044677734375,0.97074470703125
-0.308225078125,0.199085517578125,0.9641090087890625
-0.20877896484375,-0.03546593017578125,0.8707177001953125
-0.3709563671875,0.0037485229492187503,0.8815314306640625
-0.28561263671875,0.0956573974609375,0.75053783203125
-0.11857234375,-0.0847290869140625,0.593738740234375
-0.271267109375,-0.035711020507812496,0.6470700927734375
-0.2454937890625,0.10521592041015625,0.6510023583984375
-0.34785763671875003,-0.0063001806640625,0.6608330224609374
-0.421044140625,-0.03301502685546875,0.69548611328125
-0.45168035156249997,0.1172253466796875,0.776589091796875
-0.36220316406249997,0.0780108935546875,0.8299204443359375
-0.3874901953125,0.0907555908203125,0.9596852099609375
-0.392839375,0.1917328076171875,1.0845346435546874
-0.3865176171875,0.1784979296875,1.1307387646484375
-0.2445212109375,0.03364954345703125,1.1523662255859375
-0.26227076171875,0.1505576318359375,1.1784174853515625
-0.19953947265625,-0.04698517578125,1.0756870458984376
-0.1229489453125,-0.051886982421875,1.036118623046875
-0.442440859375,0.050070595703125,0.937811982421875
-0.26907880859375,-0.048945898437499996,0.8692431005859375
-0.40864376953125,-0.11830646240234374,0.702367578125
-0.33764556640625,-0.0719843896484375,0.6291291308593749
-0.3378887109375,-0.03522083984375,0.6256883984375
-0.29825615234375,0.0172284912109375,0.653705791015625
-0.29679728515625,0.080461796875,0.821810146484375
-0.3690112109375,-0.14502130859375,0.8382765087890625
-0.43247193359375,-0.1102184814453125,0.92355751953125
-0.2367405859375,-0.04183827880859375,0.7930554541015625
-0.13145900390625,-0.05997496337890625,0.6839350830078125
-0.2124261328125,-0.06389640869140625,0.7183424072265625
-0.329621796875,0.0544822216796875,0.8171405810546875
-0.23212083984375,0.03021827880859375,0.9955671337890625
-0.1278118359375,0.1936935302734375,1.17915478515625
-0.4254207421875,0.34908080078125,1.424429853515625
-0.5110076171875,0.2152614794921875,1.40722619140625
-0.57300947265625,0.197124794921875,1.3180129150390625
-0.58079009765625,0.2436919580078125,0.9503460791015625
-0.39259623046875003,0.13217585693359374,0.7134270751953125
-0.1589343359375,-0.040122646484374996,0.6800028173828125
-0.2231244921875,-0.07419020263671874,0.61487466796875
-0.2698082421875,-0.011201987304687501,0.64043439453125
-0.1210037890625,-0.0063001806640625,0.822793212890625
-0.42177357421875,0.0603643896484375,0.9827872705078124
-0.40913005859375,0.1407540185546875,1.1926719482421875
-0.368524921875,0.1240878759765625,1.2902412890625
-0.487179453125,0.1858506396484375,1.2772156591796875
-0.39478453125,0.1054610107421875,1.1931634814453125
-0.269321953125,-0.032279755859375,0.985982236328125
-0.397702265625,0.01012087158203125,0.83114927734375
-0.28415376953125,-0.1200220947265625,0.7729025927734375
-0.24914095703125,-0.09379742919921875,0.6382224951171875
-0.2785614453125,-0.00581,0.592755673828125
-0.3578265625,0.01992448486328125,0.65812958984375
-0.34202216796875,-0.03350520751953125,0.66009572265625
-0.2503566796875,0.15300853515625001,0.73874103515625
-0.18227621093750002,-0.01169216796875,0.7144101416015625
-0.16938955078125,0.022620478515625,0.9110234228515625
-0.3116291015625,0.1549692578125,1.1567900244140625
-0.4935012109375,0.0740894482421875,1.3037584521484376
-0.30360533203125,0.12384278564453124,1.4035396923828125
-0.29971501953125,0.1044806494140625,1.4463030810546875
-0.40329458984375,0.2005560595703125,1.401819326171875
-0.34299474609375,0.20864404052734375,1.31875021484375
-0.48936775390625,0.2137909375,1.1720275537109375
-0.45581380859375,0.2451625,1.097068740234375
-0.49812095703125,0.2054578662109375,1.0346440234375
-0.5119801953125,-0.07713128662109375,0.8340984765625
-0.26640421875,-0.11879664306640625,0.53819548828125
-0.1477496875,-0.13105115966796876,0.4121172216796875
-0.11978806640625,-0.13742350830078126,0.508211962890625
-0.30700935546875,-0.04772044677734375,0.6689433203125
-0.2834243359375,0.0456589697265625,1.0948568408203125
-0.38384302734375,0.1025199267578125,1.5057785986328125
-0.54529099609375,0.25079957763671873,1.841250009765625
-0.61969322265625,0.24589777099609375,1.6207973681640624
-0.25254498046875,-0.07468038330078125,1.2786902587890625
-0.32257060546875,0.0593840283203125,1.0216183935546874
-0.36730919921875,-0.036201201171875,1.1970957470703125
-0.34980279296875,-0.022476142578125,1.24108796875
-0.3592854296875,0.02360083984375,0.8766160986328125
-0.37217208984375,0.122617333984375,0.73874103515625
-0.382141015625,0.03561026611328125,0.7149016748046875
-0.38578818359375,0.09149086181640625,0.8250051123046875
-0.55428734375,0.15521434814453125,0.9724650732421874
-0.44073884765625,0.1927131689453125,0.9390408154296875
-0.41399294921875,0.05668803466796875,0.820827080078125
-0.2240970703125,0.10913736572265625,0.890624794921875
-0.26713365234374997,0.0035034326171875,1.0152284619140626
-0.46481015625,0.04884514404296875,1.2312573046875
-0.40086314453125,-0.08203309326171875,1.136391396484375
-0.38773333984375,0.10276501708984374,0.947642646484375
-0.343237890625,0.03266918212890625,0.8377849755859375
-0.380195859375,-0.0366913818359375,0.9331424169921875
-0.292663828125,0.09418685546875,1.064627548828125
-0.54577728515625,0.03928662109375,0.9503460791015625
-0.3855450390625,-0.01144707763671875,0.749554765625
-0.3057936328125,-0.037916833496093746,0.521974892578125
-0.18251935546875,0.05472731201171875,0.5546618505859375
-0.42274615234375,-0.03644629150390625,0.61192546875
-0.15674603515625,-0.00213364501953125,0.9572275439453125
-0.23357970703125,0.06943273193359376,1.2998261865234375
-0.44900576171875,0.0008074389648437498,1.4735831738281249
-0.43174250000000003,0.0059543359375,1.4789900390625
-0.3135742578125,-0.03448556884765625,1.288766689453125
-0.4079143359375,-0.0749254736328125,1.1368829296875
-0.44171142578125,-0.00850599365234375,1.120662333984375
-0.4040240234375,-0.044534272460937496,1.0442289208984374
-0.3573402734375,-0.02174087158203125,0.771673759765625
-0.36876806640625,-0.03546593017578125,0.6062728369140625
-0.23528171875,-0.05654369873046875,0.6170865673828125
-0.18008791015625,0.0191892138671875,0.643875126953125
-0.38287044921875,0.103010107421875,0.654688857421875
-0.30141703125,0.13364639892578126,0.7121982421874999
-0.41253408203124997,0.08070688720703124,0.7153932080078125
-0.30117388671875,0.16403760009765625,0.82918314453125
-0.338375,0.1868310009765625,0.9650920751953125
-0.31430369140625003,0.1338914892578125,1.0810939111328124
-0.2717533984375,0.0642858349609375,1.252393232421875
-0.26567478515625,0.09198104248046875,1.387073330078125
-0.325731484375,0.026296833496093748,1.3946920947265624
-0.3806821484375,0.09639266845703125,1.355615205078125
-0.30895451171875,0.0231106591796875,1.204222978515625
-0.36755234375,0.02776737548828125,1.1164843017578125
-0.43198564453125,-0.00507472900390625,1.046932353515625
-0.36487775390625,-0.03399538818359375,1.0658563818359374
-0.46553958984375,-0.03203466552734375,0.9105318896484375
-0.28026345703125,-0.01291761962890625,0.77609755859375
-0.26227076171875,-0.06095532470703125,0.698926845703125
-0.39356880859375,0.00987578125,0.7733941259765625
-0.349073359375,0.06943273193359376,0.9095488232421876
-0.40086314453125,-0.0170841552734375,0.858183603515625
-0.3660934765625,0.0348749951171875,0.840488408203125
-0.27783201171875,-0.01634888427734375,0.9936010009765625
-0.335457265625,0.11796061767578125,1.0363643896484376
-0.23941517578125,-0.0161037939453125,0.989914501953125
-0.4234755859375,0.0182088525390625,0.990897568359375
-0.47623794921875,0.053992041015625,1.0425085546875
-0.29776986328125,-0.01928996826171875,0.9277355517578125
-0.356853984375,0.02139502685546875,0.847369873046875
-0.3378887109375,0.010856142578125,0.843437607421875
-0.31187224609374997,0.1191860693359375,0.9075826904296875
-0.2668905078125,0.02972809814453125,0.9257694189453125
-0.37144265625,0.12923477294921876,0.9990078662109375
-0.3500459375,0.12163697265625,1.0857634765625
-0.3456693359375,0.095167216796875,1.0452119873046875
-0.40426716796875,0.05717821533203125,0.9503460791015625
-0.3262177734375,0.0883046875,0.9292101513671875
-0.36220316406249997,0.05717821533203125,0.8461410400390625
-0.45727267578124997,0.0152677685546875,0.7940385205078125
-0.32694720703125,0.09492212646484376,0.911269189453125
-0.35758341796875,0.08413815185546875,0.8540055712890625
-0.39575710937499997,0.08953013916015624,0.880794130859375
-0.32500205078125,0.06624655761718751,0.893573994140625
-0.34056330078125,0.065756376953125,0.828691611328125
-0.25157240234375,0.021640117187500002,0.856217470703125
-0.38141158203125003,0.1000690234375,0.9311762841796875
-0.22774423828125,0.04443351806640625,0.92748978515625
-0.36293259765625,0.050070595703125,0.8997181591796874
-0.37265837890625,0.1250682373046875,0.9717277734375
-0.3116291015625,0.01208159423828125,0.9695158740234375
-0.39989056640625,0.06796218994140625,0.9065996240234375
-0.3262177734375,0.10080429443359375,0.9218371533203125
-0.43830740234375,-0.006790361328125,0.855234404296875
-0.33959072265625,0.0936966748046875,0.9088115234375
-0.323786328125,0.05080586669921875,0.906353857421875
-0.33472783203125,0.02433611083984375,0.875878798828125
-0.30457791015625,0.01404231689453125,0.902913125
-0.3057936328125,0.10399046875,1.074458212890625
-0.38092529296875,0.017718671875,1.0491442529296875
-0.43149935546875,0.08119706787109375,1.030220224609375
-0.28585578125,0.0682072802734375,0.979100771484375
-0.33667298828125003,0.010611052246093749,0.8734211328125
-0.38967849609375,0.0530116796875,0.85867513671875
-0.23747001953125,0.059874208984374996,0.9139726220703125
-0.3656071875,0.1035002880859375,0.954032578125
-0.36974064453125,0.0010525292968750002,0.9370746826171875
-0.40718490234375,0.04198261474609375,0.927981318359375
-0.3048210546875,-0.00458454833984375,0.9407611816406249
-0.38287044921875,0.05521749267578125,0.888658662109375
-0.30457791015625,-0.0043394580078125,0.8412257080078125
-0.29169125,0.04688442138671875,0.972219306640625
-0.31868029296875,0.1221271533203125,1.0781447119140626
-0.34348103515625,0.046149150390625,1.046932353515625
-0.32305689453124997,0.033404453125,1.0034316650390624
-0.413263515625,0.0525214990234375,1.0142453955078126
-0.39478453125,-0.0009081933593750001,1.0432458544921874
-0.35563826171875,0.042227705078125,1.0722463134765625
-0.38189787109375,-0.027868129882812502,1.0284998583984375
-0.3116291015625,-0.0141430712890625,1.0029401318359374
-0.3281629296875,-0.014633251953124999,0.912252255859375
-0.3155194140625,0.0642858349609375,0.9213456201171875
-0.338375,-0.0464949951171875,0.8741584326171875
-0.3991611328125,0.01600303955078125,0.91372685546875
-0.26251390625,0.01747358154296875,0.88030259765625
-0.37849384765625,-0.0288484912109375,0.8431918408203125
-0.3651208984375,0.0270321044921875,0.855234404296875
-0.3320532421875,-0.012427438964843749,0.8402426416015625
-0.3612305859375,0.01551285888671875,0.9442019140625
-0.346155625,-0.0219859619140625,0.9759058056640625
-0.30214646484375,0.06109966064453125,1.072000546875
-0.39065107421875,0.0044837939453125,1.077407412109375
-0.3694975,0.08560869384765625,1.0629071826171874
-0.29631099609375,0.09810830078125,0.9572275439453125
-0.38432931640625,0.09835339111328124,1.0031858984375
-0.31965287109375,0.06257020263671875,1.08674654296875
-0.31916658203125,0.06453092529296875,1.058729150390625
-0.345183046875,0.04100225341796875,1.0346440234375
-0.32694720703125,0.07065818359375,0.97074470703125
-0.39502767578125,0.0137972265625,0.93732044921875
-0.33521412109375,-0.00703545166015625,0.93338818359375
-0.315033125,0.06698182861328125,0.8844806298828125
-0.280992890625,-0.0425735498046875,0.871946533203125
-0.22044990234375,0.05913893798828125,1.012525029296875
-0.30846822265625,-0.0016434643554687498,1.0319405908203125
-0.37898013671874997,0.02286556884765625,1.0776531787109376
-0.24184662109375,0.01012087158203125,0.9763973388671875
-0.39162365234375,-0.0631611376953125,0.8780906982421874
-0.3019033203125,-0.013407800292968751,0.9365831494140625
-0.330594375,-0.01046671630859375,0.9520664453125
-0.38432931640625,-0.01193725830078125,0.99433830078125
-0.333512109375,-0.0798272802734375,0.9862280029296875
-0.37581925781250003,0.1466361865234375,0.9813126708984374
-0.33181009765625,0.17972338134765625,0.985490703125
-0.35199109375,0.07065818359375,0.895540126953125
-0.3495596484375,0.11158826904296874,1.0009739990234374
-0.32937865234375,-0.01193725830078125,1.0267794921875
-0.3466419140625,-0.0494360791015625,1.036118623046875
-0.2630001953125,0.00791505859375,0.9228202197265625
-0.35393625,0.0069346972656249995,0.8579378369140624
-0.354908828125,-0.0523771630859375,0.8328696435546875
-0.22628537109375,-0.00777072265625,0.832623876953125
-0.286828359375,-0.01046671630859375,0.860149736328125
-0.3865176171875,0.0012976196289062499,0.98942296875
-0.33521412109375,-0.0161037939453125,0.8930824609375
-0.26227076171875,0.08021670654296875,0.855234404296875
-0.26956509765625,0.03536517578125,1.0506188525390625
-0.3660934765625,0.04786478271484375,1.1577730908203125
-0.41812640624999997,0.1309504052734375,1.052830751953125
-0.31089966796875,0.04982550537109375,0.860149736328125
-0.286828359375,0.12923477294921876,0.89996392578125
-0.39648654296875,0.0740894482421875,0.9159387548828125
-0.245980078125,-0.0001729223632812504,0.8918536279296875
-0.25838044921875,0.1358522119140625,0.843929140625
-0.382141015625,0.095167216796875,0.811979482421875
-0.2805066015625,0.069677822265625,0.946168046875
-0.4049966015625,0.14516564453125,1.045949287109375
-0.35855599609375,0.14590091552734374,1.03562708984375
-0.3320532421875,0.097127939453125,0.97369390625
-0.461892421875,0.06011929931640625,1.01596576171875
-0.2824517578125,0.0201695751953125,1.061678349609375
-0.36390517578125,-0.01389798095703125,0.9080742236328125
-0.20197091796875,-0.0170841552734375,0.91765912109375
-0.3427516015625,0.026541923828125,0.93535431640625
-0.43295822265625,-0.05458297607421875,0.9498545458984375
-0.2970404296875,0.011346323242187501,0.959439443359375
-0.35344996093750003,-0.01144707763671875,0.8505648388671875
-0.35272052734375,-0.051886982421875,0.8997181591796874
-0.255705859375,0.023845930175781252,1.0174403613281249
-0.27491427734375,0.05962911865234375,1.015474228515625
-0.46505330078125,-0.0651218603515625,0.9773804052734375
-0.257651015625,-0.01487834228515625,1.0447204541015624
-0.28998923828125,0.04639424072265625,1.072000546875
-0.47526537109375,0.01747358154296875,1.135408330078125
-0.3748466796875,0.0456589697265625,1.1032129052734374
-0.32451576171875,0.05276658935546875,0.871455
-0.3563676953125,0.00276816162109375,0.8225474462890625
-0.23649744140625,0.0044837939453125,0.81640328125
-0.27053767578125,-0.04526954345703125,0.780521357421875
-0.33764556640625,0.0686974609375,0.8191067138671875
-0.45168035156249997,0.028502646484374998,0.77019916015625
-0.26907880859375,0.05668803466796875,0.7596311962890625
-0.27005138671875,0.136342392578125,0.8026403515625
-0.391866796875,0.1044806494140625,0.9351085498046875
-0.37508982421875,0.06257020263671875,0.9080742236328125
-0.12343523437500001,0.09737302978515625,1.0260421923828125
-0.36293259765625,0.1417343798828125,1.1253318994140624
-0.405482890625,0.1584005224609375,1.2437914013671876
-0.30530734375,0.073599267578125,1.0869923095703125
-0.2902323828125,0.0476196923828125,1.0034316650390624
-0.40815748046875,0.0466393310546875,0.9820499707031249
-0.323786328125,0.024091020507812498,1.0776531787109376
-0.2882872265625,0.126538779296875,1.0112961962890625
-0.345183046875,-0.013652890625,0.8687515673828125
-0.24379177734375002,0.0446786083984375,0.874895732421875
-0.2970404296875,-0.04821062744140625,0.8815314306640625
-0.38481560546875,-0.00409436767578125,0.94911724609375
-0.33424154296874997,0.0946770361328125,0.92945591796875
-0.29436583984375,0.09737302978515625,0.8623616357421875
-0.362689453125,0.03708080810546875,0.9080742236328125
-0.2484115234375,0.0427178857421875,1.0476696533203125
-0.2007551953125,0.026296833496093748,1.044966220703125
-0.32646091796875,-0.06389640869140625,1.06708521484375
-0.3729015234375,0.024091020507812498,1.12410306640625
-0.30652306640625,0.05423713134765625,1.06806828125
-0.314060546875,0.03021827880859375,0.9756600390625
-0.3670660546875,0.026296833496093748,0.9793465380859375
-0.32086859375,0.04737460205078125,0.987948369140625
-0.294608984375,0.089285048828125,0.9763973388671875
-0.39745912109375,0.083402880859375,0.9048792578125
-0.34032015625,0.095167216796875,0.909303056640625
-0.20804953125,0.00472888427734375,0.9115149560546875
-0.2736985546875,0.01183650390625,0.8962774267578125
-0.3748466796875,-0.03056412353515625,1.0171945947265626
-0.2571647265625,0.0231106591796875,1.087729609375
-0.3904079296875,0.044188427734375,0.9223286865234375
-0.2678630859375,0.06404074462890624,0.86457353515625
-0.29679728515625,0.128499501953125,0.8943112939453125
-0.25886673828125,0.09786321044921875,0.9609140429687499
-0.39454138671875,0.0613447509765625,0.9734481396484375
-0.29533841796875,0.1123235400390625,1.0884669091796875
-0.3009307421875,0.07776580322265625,1.03366095703125
-0.37144265625,0.08953013916015624,1.0299744580078125
-0.325731484375,0.1079119140625,0.98647376953125
-0.35515197265625,0.07457962890625,0.8107506494140625
-0.21023783203125002,0.1113431787109375,0.8756330322265625
-0.34810078125,-0.022476142578125,0.8537598046875
-0.3155194140625,0.00963069091796875,0.9599309765625
-0.34396732421875,0.0799716162109375,0.95304951171875
-0.31430369140625003,-0.03350520751953125,0.8402426416015625
-0.29533841796875,0.03659062744140625,0.9031588916015625
-0.37363095703125,0.04296297607421875,0.9606682763671874
-0.39089421875,0.127519140625,0.959439443359375
-0.3466419140625,0.02776737548828125,0.8525309716796875
-0.27880458984375,0.09737302978515625,0.8613785693359375
-0.32743349609375,0.0427178857421875,0.8667854345703125
-0.27515742187500003,0.03119864013671875,0.9090572900390625
-0.40232201171875,0.0069346972656249995,0.859658203125
-0.269321953125,0.03217900146484375,0.8898874951171875
-0.3077387890625,0.1084020947265625,0.94715111328125
-0.26616107421875,0.0584036669921875,1.0132623291015626
-0.44414287109375,0.00987578125,1.040542421875
-0.34226531250000003,0.1280093212890625,1.16145958984375
-0.3777644140625,0.087324326171875,1.000728232421875
-0.2571647265625,0.015022678222656249,0.8908705615234375
-0.21072412109375,0.0917359521484375,0.952557978515625
-0.271267109375,0.08511851318359374,0.917167587890625
-0.37581925781250003,0.0093856005859375,0.9631259423828125
-0.34931650390625,0.077520712890625,1.0545511181640626
-0.389921640625,0.0012976196289062499,1.004660498046875
-0.37338781249999997,0.00963069091796875,0.9434646142578125
-0.21072412109375,-0.03914228515625,0.922082919921875
-0.46310814453125,-0.025662316894531252,0.832623876953125
-0.2503566796875,0.08560869384765625,0.8933282275390625
-0.3252451953125,0.00766996826171875,0.890624794921875
-0.354908828125,0.018699033203125,0.9606682763671874
-0.362689453125,-0.0210056005859375,0.906353857421875
-0.2240970703125,0.03928662109375,0.94125271484375
-0.44754689453125,-0.01291761962890625,0.8923451611328125
-0.33278267578125,-0.00948635498046875,0.951574912109375
-0.2717533984375,0.00816014892578125,0.8576920703124999
-0.46602587890625,-0.006790361328125,0.9213456201171875
-0.34883021484375,-0.01193725830078125,1.0609410498046874
-0.3923530859375,0.019434304199218752,0.9626344091796875
-0.333512109375,0.08805959716796875,0.959439443359375
-0.29533841796875,0.1162449853515625,0.8989808593749999
-0.2989855859375,0.0608545703125,0.8191067138671875
-0.30627992187499997,0.0922261328125,0.8392595751953125
-0.39308251953125,0.05619785400390625,0.9002096923828125
-0.33861814453125,0.0010525292968750002,0.993846767578125
-0.26616107421875,-0.034240478515625,1.0348897900390626
-0.3933256640625,-0.04526954345703125,1.0702801806640625
-0.34737134765625,-0.04379900146484375,1.0088385302734375
-0.22628537109375,0.0093856005859375,0.8962774267578125
-0.267376796875,0.06453092529296875,0.8844806298828125
-0.46019041015625,0.12384278564453124,0.969270107421875
-0.24184662109375,0.0887948681640625,1.0393135888671874
-0.27685943359375,0.087324326171875,1.0594664501953126
-0.25108611328125,0.122617333984375,1.1073909375
-0.3106565234375,-0.046004814453125,1.068559814453125
-0.28464005859375,-0.004829638671875,0.994829833984375
-0.33108066406250003,0.03536517578125,0.9886856689453125
-0.3670660546875,-0.1043363134765625,0.9655836083984375
-0.3738741015625,-0.0494360791015625,0.9606682763671874
-0.479398828125,0.09296140380859375,0.8613785693359375
-0.292663828125,0.01159141357421875,0.7434106005859376
-0.3096839453125,0.12580350830078124,0.681231650390625
-0.14410251953125,0.16550814208984374,0.7908435546875
-0.263486484375,-0.0254172265625,0.8156659814453124
-0.2357680078125,-0.05090662109375,1.056271484375
-0.356853984375,0.07457962890625,1.1526119921875
-0.370470078125,0.08658905517578125,1.058729150390625
-0.37922328125,0.0799716162109375,1.0314490576171875
-0.45435494140625,0.2064382275390625,1.0806023779296874
-0.25400384765625,0.18462518798828126,1.0884669091796875
-0.40621232421875,-0.0513968017578125,1.0019570654296874
-0.24038775390625,0.040266982421875,1.0597122167968749
-0.2474389453125,-0.0808076416015625,0.9048792578125
-0.3602580078125,-0.047965537109375,0.904387724609375
-0.31041337890625,0.06109966064453125,0.9562444775390625
-0.3456693359375,0.01992448486328125,0.9616513427734374
-0.312115390625,-0.0011532836914062497,1.0226014599609374
-0.27394169921875,-0.03889719482421875,0.94223578125
-0.31308796875,0.02335574951171875,0.8952943603515625
-0.2085358203125,-0.02664267822265625,0.9754142724609375
-0.40621232421875,0.01306195556640625,0.9820499707031249
-0.34445361328125,0.2387901513671875,1.0385762890625
-0.4978778125,0.21011458251953125,0.873912666015625
-0.3067662109375,0.0608545703125,0.8510563720703125
-0.27053767578125,0.083402880859375,0.928964384765625
-0.234309140625,0.03536517578125,1.05135615234375
-0.345183046875,-0.09771887451171875,1.1007552392578126
-0.37606240234375,-0.012427438964843749,1.0491442529296875
-0.30871136718750003,-0.0621807763671875,1.0284998583984375
-0.50784673828125,0.03855135009765625,0.92945591796875
-0.26713365234374997,0.10202974609375,0.8397511083984375
-0.33861814453125,0.10987263671875,0.7239950390625
-0.349073359375,0.2642795458984375,0.8338527099609375
-0.327676640625,0.16158669677734375,0.82131861328125
-0.1628246484375,0.06747200927734374,0.844420673828125
-0.24865466796875,0.0760501708984375,1.009084296875
-0.28998923828125,-0.10703230712890625,1.00613509765625
-0.1686601171875,-0.04919098876953125,1.200290712890625
-0.53556521484375,0.0623251123046875,1.2020110791015626
-0.43587595703125,0.028502646484374998,1.1211538671875
-0.300444453125,-0.09575815185546875,0.9400238818359374
-0.46942990234375,0.03266918212890625,0.8594124365234375
-0.284883203125,-0.00262382568359375,0.9341254833984375
-0.30603677734375,-0.0013983740234375002,0.8854636962890625
-0.2902323828125,0.13021513427734374,0.78494515625
-0.25886673828125,-0.06781785400390625,0.7153932080078125
-0.27029453125,-0.09477779052734375,0.827708544921875
-0.3301080859375,-0.01193725830078125,0.9341254833984375
-0.29752671875000003,-0.12418863037109375,0.9631259423828125
-0.4438997265625,0.03168882080078125,0.935845849609375
-0.491069765625,0.06796218994140625,0.7456225
-0.15431458984375,0.04051207275390625,0.6846723828125
-0.26275705078125,0.07065818359375,0.85867513671875
-0.43344451171875,0.05717821533203125,1.0221099267578124
-0.32548833984375003,0.02360083984375,1.1312302978515625
-0.37119951171875,-0.0210056005859375,1.0987891064453126
-0.34810078125,0.06992291259765625,1.0162115283203126
-0.1015522265625,-0.0190448779296875,1.000728232421875
-0.292663828125,0.00521906494140625,1.07298361328125
-0.50784673828125,-0.014633251953124999,1.134916796875
-0.4905834765625,0.0476196923828125,1.07888201171875
-0.407428046875,0.14197947021484375,0.961897109375
-0.29776986328125,0.07335417724609375,0.93732044921875
-0.341292734375,0.04639424072265625,1.0658563818359374
-0.27102396484375,0.01110123291015625,1.0722463134765625
-0.31527626953125,0.03462990478515625,0.85867513671875
-0.374360390625,-0.09281706787109376,0.7271900048828125
-0.34445361328125,-0.091101435546875,0.703842177734375
-0.26907880859375,-0.1788437744140625,0.72301197265625
-0.18057419921875,-0.1680597998046875,1.0668394482421875
-0.57300947265625,-0.15801109619140624,1.208155244140625
-0.37557611328125,-0.09281706787109376,1.0759328125
-0.267376796875,-0.07615092529296875,1.042017021484375
-0.52705515625,0.14884199951171875,0.8984893261718749
-0.1774133203125,-0.00801581298828125,0.7910893212890625
-0.267376796875,-0.18104958740234375,0.77019916015625
-0.29485212890625,-0.02860340087890625,0.858183603515625
-0.35588140625,-0.23987126708984374,0.8471241064453126
-0.333512109375,-0.2504101513671875,0.9567360107421875
-0.40134943359374997,-0.13203152099609375,0.8805483642578125
-0.1686601171875,-0.1082577587890625,0.848352939453125
-0.42931105468749997,-0.16879507080078124,0.9095488232421876
-0.34542619140624997,0.0843832421875,1.087729609375
-0.33472783203125,0.013552136230468751,1.0810939111328124
-0.44803318359375,0.01453249755859375,0.9503460791015625
-0.33181009765625,0.03806116943359375,0.9208540869140625
-0.23917203125,-0.0327699365234375,0.8505648388671875
-0.25157240234375,-0.00458454833984375,0.7751144921875
-0.16890326171875,-0.03129939453125,0.8731753662109375
-0.2425760546875,0.0054641552734375,1.2044687451171874
-0.5353220703125,-0.0175743359375,1.3610220703125
-0.580546953125,0.14737145751953126,1.3361996435546875
-0.55501677734375,0.1299700439453125,1.1218911669921874
-0.35563826171875,0.01110123291015625,0.8948028271484375
-0.27807515625,0.03144373046875,0.6716467529296875
-0.22093619140625,-0.04036773681640625,0.553433017578125
-0.17522501953125,-0.12958061767578125,0.5625263818359375
-0.27540056640625,-0.11340465576171875,0.6903250146484375
-0.27053767578125,-0.0504164404296875,0.966320908203125
-0.32475890625,0.00227798095703125,1.2801648583984375
-0.57592720703125,-0.00458454833984375,1.37183580078125
-0.52778458984375,0.04149243408203125,1.17129025390625
-0.36487775390625,-0.01978014892578125,0.979100771484375
-0.37800755859375,-0.07370002197265625,0.7321053369140624
-0.23941517578125,-0.0308092138671875,0.5615433154296875
-0.08039865234375,-0.13791368896484374,0.4514398779296875
-0.0821006640625,-0.15801109619140624,0.44406687988281246
-0.19564916015625,-0.22345021484375,0.6205272998046875
-0.3378887109375,-0.06781785400390625,0.996795966796875
-0.500795546875,-0.01291761962890625,1.36593740234375
-0.53799666015625,-0.027868129882812502,1.4475319140625
-0.415208671875,0.1456558251953125,1.30695341796875
-0.22677166015625,0.0373258984375,1.06905134765625
-0.19856689453125,0.01208159423828125,0.9110234228515625
-0.28609892578125,0.089285048828125,0.84097994140625
-0.3267040625,0.01600303955078125,0.7566819970703125
-0.27029453125,-0.013407800292968751,0.6839350830078125
-0.19856689453125,-0.163648173828125,0.677299384765625
-0.28123603515625,-0.1195319140625,0.7837163232421875
-0.33959072265625,0.03119864013671875,0.93142205078125
-0.39843169921875,-0.0141430712890625,1.0132623291015626
-0.29485212890625,0.148106728515625,1.158510390625
-0.3019033203125,0.1711452197265625,1.2496897998046874
-0.44317029296875,0.0191892138671875,1.3130975830078124
-0.34785763671875003,0.14197947021484375,1.2172486083984375
-0.3344846875,0.12727405029296876,0.995812900390625
-0.436605390625,0.0037485229492187503,0.8466325732421875
-0.2941226953125,-0.10065995849609374,0.7439021337890624
-0.19637859375,-0.1121792041015625,0.7955131201171874
-0.10422681640625,-0.05703387939453125,0.9788550048828125
-0.08574783203125,-0.04526954345703125,1.1808751513671876
-0.4623787109375,0.0740894482421875,1.34037767578125
-0.38457246093749997,0.0936966748046875,1.0201437939453124
-0.56766029296875,-0.01634888427734375,0.8087845166015625
-0.3991611328125,-0.0327699365234375,0.5379497216796875
-0.15236943359375,-0.08546435791015625,0.42342248535156246
-0.107873984375,-0.02321141357421875,0.452177177734375
-0.25351755859375,-0.04330882080078125,0.6888504150390625
-0.3111428125,-0.05997496337890625,1.0270252587890625
-0.5343494921875,0.0030132519531249997,1.2863090234375
-0.53118861328125,0.09933375244140626,1.3366911767578125
-0.3544225390625,0.0074248779296875,1.1331964306640625
-0.19832375,-0.0259074072265625,0.9144641552734375
-0.15674603515625,-0.03938737548828125,0.844420673828125
-0.3164919921875,0.09443194580078125,0.929947451171875
-0.382141015625,0.02972809814453125,0.9532952783203125
-0.45289607421875,0.00791505859375,0.934862783203125
-0.347128203125,0.12237224365234375,0.941744248046875
-0.30409162109375,0.06673673828125,0.969761640625
-0.3962433984375,0.021640117187500002,0.9601767431640625
-0.349073359375,0.1495772705078125,0.9994993994140625
-0.36390517578125,-0.06585713134765625,0.8891501953125
-0.399647421875,-0.09845414550781251,0.90586232421875
-0.28998923828125,-0.0298288525390625,0.9245405859375
-0.2843969140625,-0.1396293212890625,0.9193794873046874
-0.3009307421875,-0.142080224609375,1.002694365234375
-0.38870591796875,-0.15605037353515624,1.1027213720703124
-0.2902323828125,-0.1430605859375,1.0879753759765625
-0.34202216796875,-0.15212892822265625,1.000728232421875
-0.31381740234375,-0.07566074462890625,0.9646005419921875
-0.329621796875,-0.08252327392578125,0.8613785693359375
-0.4477900390625,-0.0097314453125,0.9105318896484375
-0.52316484375,0.023845930175781252,0.9478884130859375
-0.419098984375,-0.18595139404296876,0.8338527099609375
-0.2722396875,-0.1509034765625,0.7124440087890624
-0.1764407421875,-0.2092349755859375,0.6564092236328125
-0.0782103515625,-0.20727425292968749,0.6696806201171875
-0.16209521484375,-0.3234470703125,0.881777197265625
-0.37460353515625,-0.057769150390625,1.1282810986328125
-0.557205078125,0.00865032958984375,1.1769428857421875
-0.42323244140625,0.14639109619140625,1.203239912109375
-0.41107521484375,0.2554562939453125,1.1533492919921875
-0.5003092578125,0.14933218017578126,1.05135615234375
-0.2912049609375,-0.008751083984375,0.9631259423828125
-0.22920310546875,-0.10262068115234375,0.825742412109375
-0.244034921875,-0.10458140380859375,0.6957318798828125
-0.316005703125,-0.19526482666015624,0.602586337890625
-0.16914640625,-0.232273466796875,0.594721806640625
-0.2333365625,-0.220509130859375,0.6335529296875
-0.2065906640625,-0.2732035522460938,0.612417001953125
-0.05948822265625,-0.200901904296875,0.58046734375
-0.0859909765625,-0.24232217041015625,0.641908994140625
-0.2921775390625,-0.0038492773437499997,0.742181767578125
-0.368524921875,-0.0229663232421875,0.9473968798828125
-0.12270580078125,0.026051743164062502,1.2941735546875
-0.159420625,0.40912793212890625,1.775384560546875
-0.36390517578125,0.573583544921875,2.0105831982421876
-0.56474255859375,0.519663671875,1.908098525390625
-0.44049570312499997,0.455940185546875,1.4664559423828125
-0.59489248046875,0.27334788818359373,1.0417712548828124
-0.4200715625,-0.15163874755859374,0.679265517578125
-0.09158330078125,-0.17173615478515625,0.49616939941406246
-0.12319208984375,-0.20261753662109375,0.2690810595703125
-0.11589775390625,-0.1974706396484375,0.241800966796875
-0.18981369140625,-0.247959248046875,0.3976169921875
-0.16598552734375,-0.304820205078125,0.7262069384765625
-0.41593810546875,-0.27026246826171874,1.1848074169921876
-0.487179453125,0.09247122314453125,1.5686948486328125
-0.2800203125,0.2603581005859375,1.67658638671875
-0.16525609375,0.1314405859375,1.7431891357421876
-0.203186640625,0.2593777392578125,1.7992239208984375
-0.40913005859375,-0.3535931811523437,1.3971497607421874
-0.19273142578125,-0.11830646240234374,1.0899415087890625
-0.04781728515625,-0.2366850927734375,0.7448852001953125
-0.11054857421875,-0.400895615234375,0.5492549853515625
-0.2318776953125,-0.3533480908203125,0.3555909033203125
-0.22093619140625,-0.31928053466796874,0.1636471875
-0.27029453125,-0.34329938720703124,0.210342841796875
-0.32451576171875,-0.3839843823242188,0.19633414550781247
-0.3301080859375,-0.43006136474609374,0.44578724609375
-0.30798193359375,-0.310702373046875,0.8267254785156251
-0.4594609765625,0.06355056396484375,1.4848884375
-0.79329841796875,0.2172222021484375,1.6596284912109376
-0.19248828125,0.22874144775390626,1.5126600634765626
-0.36001486328125,0.15080272216796875,1.159984990234375
-0.580546953125,0.15668489013671874,1.162934189453125
-0.5411575390625,0.1525183544921875,1.0818312109375
-0.53313376953125,0.09394176513671874,0.847369873046875
-0.38676076171875,0.13560712158203125,0.642892060546875
-0.29971501953125,0.15472416748046874,0.740215634765625
-0.2678630859375,0.173596123046875,0.640925927734375
-0.1550440234375,-0.02174087158203125,0.4263716845703125
-0.16136578125,-0.0641414990234375,0.3229039453125
-0.28707150390625,-0.029338671875,0.2548265966796875
-0.27442798828125,-0.025662316894531252,0.20002064453125
-0.2163164453125,0.008895419921875,0.3211835791015625
-0.08769298828125,0.0294830078125,0.82131861328125
0.047738515625,0.13756784423828125,1.6532385595703125
-0.33959072265625,0.663776787109375,2.129718558349609
-0.98878662109375,0.34515935546875,2.129718558349609
-0.5367809375,-0.226391298828125,1.37380193359375
-0.38676076171875,-0.2259011181640625,0.867031201171875
-0.12513724609375,0.14541073486328124,0.851302138671875
0.065244921875,0.03536517578125,0.952557978515625
-0.004294414062500002,0.00619942626953125,0.8830060302734375
-0.45289607421875,-0.01879978759765625,0.88816712890625
-0.6053476953125,-0.13546278564453124,0.6804943505859375
-0.59197474609375,-0.1611972705078125,0.4683977734375
-0.20877896484375,-0.06291604736328126,0.418752919921875
-0.01231818359375,0.008895419921875,0.91372685546875
-0.0879361328125,0.24050578369140624,1.2452660009765626
-0.48401857421875,0.352021884765625,1.3652001025390625
-0.553314765625,0.21158512451171874,0.95304951171875
-0.4059691796875,0.06404074462890624,0.5005931982421875
-0.142886796875,-0.1670794384765625,0.42342248535156246
0.05235826171875,-0.15408965087890625,0.8557259375
0.20942962890625,-0.24036144775390625,1.24010490234375
0.14718462890625,-0.5094706323242187,1.9525822802734374
-0.46870046875,-0.5006473803710938,1.3253859130859376
-0.63039158203125,-0.17663796142578125,1.1680952880859374
-0.5596365234375,-0.58030173828125,1.2442829345703126
0.11873671875,-0.65480919921875,1.8719708349609374
-0.09887763671875,-0.34427974853515625,2.0258207275390623
-0.3476144921875,0.2534955712890625,0.70728291015625
-0.3072525,0.0584036669921875,0.3442856396484375
-0.30846822265625,0.07874616455078125,0.10048517089843749
-0.26664736328125,0.05864875732421875,0.2518773974609375
-0.1326747265625,0.1995756982421875,0.6047982373046875
-0.34883021484375,0.375550556640625,1.6851882177734374
-0.53094546875,0.5270163818359375,1.6050683056640624
-0.71768046875,0.21550656982421876,0.950591845703125
-0.57738607421875,0.27530861083984376,0.6583753564453125
-0.26859251953125,-0.16291290283203125,0.90389619140625
-0.0256911328125,-0.22614620849609374,1.0112961962890625
-0.41885583984375,0.2662402685546875,0.8967689599609375
-0.45824525390625,0.1485969091796875,0.7188339404296875
-0.12513724609375,-0.19771572998046874,0.66796025390625
-0.15431458984375,-0.25310614501953127,1.095102607421875
-0.41982841796875,-0.20948006591796875,1.4934902685546876
-0.15674603515625,-0.2732035522460938,1.5812289453125
-0.29290697265625,-0.09281706787109376,1.4743204736328126
-0.23649744140625,-0.22712656982421875,0.849336005859375
-0.31624884765625,-0.18791211669921876,0.56178908203125
-0.45824525390625,-0.13252170166015625,0.4357108154296875
-0.40937320312500003,-0.1352176953125,0.24843666503906248
-0.35028908203125,-0.169530341796875,0.2218938720703125
-0.21801845703125,-0.05899460205078125,0.242784033203125
-0.22920310546875,0.05178622802734375,0.39073552734375
-0.3427516015625,0.09149086181640625,0.59324720703125
-0.494960078125,0.05668803466796875,0.946168046875
-0.53507892578125,0.004973974609375,1.2194605078125
-0.41423609375,0.0780108935546875,1.5406774560546874
-0.31041337890625,0.108892275390625,1.532567158203125
-0.343237890625,0.050070595703125,1.2614865966796875
-0.31381740234375,0.09345158447265625,0.914218388671875
-0.27151025390625,0.17384121337890626,0.7984623193359375
-0.2591098828125,0.22334946044921875,0.7655295947265625
-0.33326896484375,0.146146005859375,0.7556989306640625
-0.34737134765625,-0.02419177490234375,0.7375122021484375
-0.35223423828125,-0.08595453857421875,0.736283369140625
-0.2912049609375,-0.144040947265625,0.6849181494140625
-0.321841171875,-0.12418863037109375,0.6849181494140625
-0.28123603515625,-0.1587463671875,0.75840236328125
-0.26372962890625,-0.07664110595703125,0.9297016845703125
-0.27296912109375,-0.1337471533203125,1.0412797216796874
-0.25254498046875,-0.055073156738281254,1.1956211474609375
-0.4623787109375,-0.0646316796875,1.1494170263671875
-0.2644590625,-0.03154448486328125,1.0358728564453126
-0.37557611328125,-0.1062970361328125,1.040050888671875
-0.4254207421875,-0.0259074072265625,1.1877566162109374
-0.33108066406250003,-0.10556176513671875,1.155069658203125
-0.39016478515624997,-0.03914228515625,1.028745625
-0.45411179687500003,-0.018554697265625,0.7736398925781249
-0.343237890625,-0.059729873046875,0.56375521484375
-0.27637314453125,-0.0151234326171875,0.4487364453125
-0.25157240234375,-0.0038492773437499997,0.438414248046875
-0.17619759765625,-0.0803174609375,0.49199136718750003
-0.1399690625,-0.1665892578125,0.6768078515625
-0.33764556640625,-0.11389483642578124,0.9292101513671875
-0.49423064453125,-0.151883837890625,1.0801108447265624
-0.4200715625,-0.15556019287109374,1.0899415087890625
-0.26421591796875,-0.1464918505859375,0.9665666748046875
-0.19273142578125,-0.11046357177734376,0.9788550048828125
-0.19346085937500002,-0.12958061767578125,1.000728232421875
-0.14945169921875,-0.004829638671875,0.9616513427734374
-0.4497351953125,0.10668646240234375,0.9346170166015625
-0.38505875,0.1721255810546875,0.948625712890625
-0.30360533203125,0.2569268359375,0.9675497412109375
-0.321841171875,0.19810515625,1.1014925390624999
-0.341292734375,0.16599832275390625,1.182103984375
-0.25740787109375,0.1927131689453125,1.0722463134765625
-0.25157240234375,0.0868341455078125,1.0044147314453125
-0.2824517578125,0.0740894482421875,1.073475146484375
-0.36536404296875,0.061834931640625,1.1007552392578126
-0.452166640625,-0.08963089355468751,1.182595517578125
-0.41302037109375,-0.14379585693359376,1.1528577587890625
-0.30311904296875003,-0.128355166015625,1.0162115283203126
-0.23309341796875,-0.05017135009765625,0.9127437890625
-0.35855599609375,-0.1190417333984375,0.8812856640625
-0.4370916796875,-0.00409436767578125,0.8871840625
-0.403537734375,0.0740894482421875,0.8146829150390625
-0.29776986328125,-0.013652890625,0.78789435546875
-0.1764407421875,-0.02125069091796875,0.8852179296875
-0.3038484765625,-0.04330882080078125,0.9940925341796875
-0.27783201171875,-0.18350049072265626,0.9916348681640625
-0.3578265625,-0.21830331787109375,0.9306847509765624
-0.38384302734375,-0.079337099609375,0.897506259765625
-0.415208671875,-0.0651218603515625,0.8756330322265625
-0.32694720703125,-0.0018885546875000003,0.8943112939453125
-0.35393625,0.02531647216796875,1.0053977978515625
-0.411318359375,0.01183650390625,1.08379734375
-0.333512109375,0.03953171142578125,1.20864677734375
-0.1375376171875,-0.02860340087890625,1.213070576171875
-0.32548833984375003,0.028257556152343752,1.270088427734375
-0.45095091796875,0.11967625,1.36790353515625
-0.493014921875,-0.034240478515625,1.2103671435546874
-0.52729830078125,-0.02174087158203125,1.0039231982421875
-0.34591248046875,-0.06193568603515625,0.74857169921875
-0.2386857421875,-0.08007237060546875,0.5010847314453125
-0.1501811328125,-0.1700205224609375,0.40892225585937503
-0.17960162109375,-0.22222476318359374,0.4251428515625
-0.1764407421875,-0.26094903564453126,0.5487634521484375
-0.36439146484375,-0.2607039453125,0.7822417236328125
-0.506631015625,-0.09673851318359375,1.049881552734375
-0.55550306640625,-0.03203466552734375,1.14769666015625
-0.458002109375,-0.03840701416015625,1.0661021484375
-0.2552195703125,0.0780108935546875,1.025304892578125
-0.33813185546875,0.0843832421875,0.93732044921875
-0.366579765625,0.0417375244140625,1.0004824658203124
-0.3213548828125,0.04982550537109375,0.9877026025390625
-0.329621796875,-0.0009081933593750001,0.8820229638671875
-0.224583359375,-0.044044091796875,0.72202890625
-0.23017568359375,-0.08889562255859375,0.705808310546875
-0.28901666015625,-0.07664110595703125,0.828200078125
-0.40572603515625,-0.10360104248046875,0.9842618701171875
-0.382141015625,-0.16683434814453124,1.1990618798828125
-0.43441708984375,-0.07443529296875,1.3091653173828126
-0.62261095703125,-0.0778665576171875,1.13000146484375
-0.38967849609375,-0.19403937500000001,0.8264797119140626
-0.21169669921875,-0.1827652197265625,0.7328426367187499
-0.2668905078125,-0.27124282958984375,0.76036849609375
-0.2221519140625,-0.281291533203125,0.890624794921875
-0.22750109375,-0.175412509765625,0.9614055761718749
-0.387976484375,-0.1533543798828125,0.926998251953125
-0.25303126953125,-0.19624518798828125,0.867031201171875
-0.27005138671875,-0.21928367919921876,0.8972604931640625
-0.26227076171875,0.069677822265625,1.0309575244140625
-0.4341739453125,0.055952763671875,1.1548238916015625
-0.5333769140625,0.04737460205078125,1.2312573046875
-0.465782734375,-0.09183670654296874,1.1700614208984375
-0.47721052734375,-0.151883837890625,1.0629071826171874
-0.42615017578125003,-0.2974674951171875,0.8682600341796876
-0.28585578125,-0.2844777075195313,0.682214716796875
-0.14264365234375,-0.2102153369140625,0.6460870263671875
-0.12635296875,-0.2933009594726563,0.8250051123046875
-0.220693046875,-0.24771415771484376,1.2290454052734374
-0.50055240234375,-0.186196484375,1.4109126904296876
-0.599998515625,-0.27026246826171874,1.27352916015625
-0.5693623046875,-0.142080224609375,1.0339067236328126
-0.423961875,-0.14722712158203125,0.701876044921875
-0.3437241796875,-0.15261910888671876,0.6382224951171875
-0.35101851562499997,-0.201882265625,0.6401886279296874
-0.24670951171875,-0.2504101513671875,0.6741044189453125
-0.36439146484375,-0.18644157470703124,0.64633279296875
-0.2834243359375,-0.2209993115234375,0.622247666015625
-0.26567478515625,-0.18938265869140625,0.73677490234375
-0.37946642578125,-0.1033559521484375,0.9768888720703125
-0.2542469921875,-0.0925719775390625,1.1558069580078125
-0.27880458984375,-0.10262068115234375,1.2501813330078124
-0.3767918359375,-0.08938580322265625,1.222901240234375
-0.38043900390625,-0.1788437744140625,1.0786362451171876
-0.419098984375,-0.0729647509765625,0.912252255859375
-0.38870591796875,-0.0906112548828125,0.790352021484375
-0.25692158203125,-0.25114542236328125,0.707774443359375
-0.3485870703125,-0.16291290283203125,0.7674957275390625
-0.382141015625,-0.10654212646484375,0.873912666015625
-0.37946642578125,-0.189137568359375,0.7672499609375
-0.23357970703125,-0.09918941650390625,0.7397241015625
-0.2736985546875,0.0010525292968750002,0.73775796875
-0.21364185546875,-0.0288484912109375,0.7891231884765625
-0.22725794921875,0.01306195556640625,0.957473310546875
-0.39162365234375,0.1000690234375,1.0565172509765626
-0.29728357421875,0.011346323242187501,1.1617053564453126
-0.23844259765625,-0.048945898437499996,1.2501813330078124
-0.38870591796875,-0.03644629150390625,1.3071991845703126
-0.555259921875,-0.11879664306640625,1.28532595703125
-0.489124609375,-0.23104801513671874,1.2452660009765626
-0.2843969140625,-0.16928525146484374,1.270088427734375
-0.44317029296875,-0.2415868994140625,1.1840701171874999
-0.407428046875,-0.186196484375,1.01006736328125
