ax,ay,az
-0.5693623046875,0.03610044677734375,1.333987744140625
-0.660298359375,0.0059543359375,1.25190169921875
-0.7103861328125,0.0015427099609375003,1.2157740087890625
-0.68436966796875,-0.00997653564453125,1.061678349609375
-0.60291625,-0.08252327392578125,0.7665126611328125
-0.50371328125,-0.10507158447265624,0.564246748046875
-0.46529644531250003,-0.11585555908203125,0.550483818359375
-0.5012818359375,-0.1376685986328125,0.651248125
-0.582492109375,-0.11879664306640625,0.8653108349609375
-0.6637023828125,-0.16487362548828124,1.0511103857421875
-0.66589068359375,-0.1533543798828125,1.2904870556640624
-0.532890625,-0.02321141357421875,1.394937861328125
-0.5936767578125,0.00325834228515625,1.3676577685546876
-0.54674986328125,-0.0651218603515625,1.3130975830078124
-0.5343494921875,0.0231106591796875,1.2319946044921875
-0.49812095703125,0.032424091796875,1.125577666015625
-0.502740703125,0.0133070458984375,1.08871267578125
-0.46505330078125,0.0584036669921875,1.0425085546875
-0.50492900390625,-0.118551552734375,0.980083837890625
-0.4545980859375,-0.06242586669921875,0.9793465380859375
-0.39016478515624997,-0.1013952294921875,1.0211268603515624
-0.5523421875,-0.11389483642578124,1.1130435693359375
-0.49812095703125,-0.051886982421875,1.1093570703125
-0.51149390625,-0.149923115234375,0.992863701171875
-0.392839375,-0.11095375244140625,0.98647376953125
-0.3699837890625,-0.10899302978515625,0.9609140429687499
-0.32451576171875,-0.17639287109375001,0.893573994140625
-0.36439146484375,-0.1259042626953125,0.8200897802734375
-0.4526529296875,-0.123453359375,0.765283828125
-0.47623794921875,-0.10360104248046875,0.7217831396484375
-0.3826273046875,-0.14575657958984375,0.6217561328125
-0.27199654296875,-0.13742350830078126,0.584891142578125
-0.28585578125,-0.15801109619140624,0.5698993798828125
-0.32257060546875,-0.16242272216796874,0.543602353515625
-0.40475345703125,-0.110708662109375,0.5114069287109375
-0.37071322265625,-0.045024453125,0.4946947998046875
-0.37119951171875,0.03021827880859375,0.5438481201171875
-0.3262177734375,0.07188363525390624,0.545076953125
-0.26227076171875,0.09394176513671874,0.5455684863281249
-0.29387955078125,0.07188363525390624,0.5757977783203125
-0.36828177734375,0.07090327392578125,0.5581025830078125
-0.3592854296875,0.09933375244140626,0.513127294921875
-0.3729015234375,0.1142842626953125,0.4833895361328125
-0.366579765625,0.11845079833984375,0.43595658203125
-0.3485870703125,0.14443037353515625,0.41039685546875
-0.312115390625,0.1564397998046875,0.41629525390625
-0.3194097265625,0.17825283935546876,0.4524229443359375
-0.292663828125,0.20619313720703125,0.5640009814453125
-0.3203823046875,0.2137909375,0.7955131201171874
-0.41836955078125,0.19736988525390625,1.0034316650390624
-0.6119125976562501,0.1809488330078125,1.10247560546875
-0.66102779296875,0.1476165478515625,1.0353813232421876
-0.5834646875,0.17090012939453125,0.818860947265625
-0.31187224609374997,0.2177123828125,0.747097099609375
-0.343237890625,0.27923005615234375,0.7328426367187499
-0.32159802734375,0.15864561279296874,0.68762158203125
-0.32791978515625,0.019434304199218752,0.7714279931640625
-0.36196001953125,0.06747200927734374,1.011541962890625
-0.4584883984375,0.02752228515625,1.15359505859375
-0.4589746875,0.0010525292968750002,1.1105859033203125
-0.4497351953125,-0.02517213623046875,1.11623853515625
-0.5606091015625,-0.030073942871093752,1.1508916259765625
-0.63233673828125,-0.07271966064453125,1.1526119921875
-0.61434404296875,-0.03987755615234375,1.1032129052734374
-0.5469930078125,0.0515411376953125,1.040050888671875
-0.51854509765625,0.1387932958984375,0.9641090087890625
-0.4341739453125,0.05717821533203125,0.9191337207031249
-0.40232201171875,0.0946770361328125,1.12017080078125
-0.452166640625,0.07090327392578125,1.4177941552734374
-0.54383212890625,0.143204921875,1.6448824951171874
-0.7366457421875,0.0946770361328125,1.6011360400390624
-0.62042265625,-0.02027032958984375,1.421480654296875
-0.60559083984375,-0.08203309326171875,1.4020650927734375
-0.541643828125,-0.05752406005859375,1.503075166015625
-0.561095390625,-0.11757119140625,1.5637795166015624
-0.55939337890625,-0.14673694091796874,1.532567158203125
-0.59246103515625,-0.08154291259765625,1.2315030712890624
-0.500795546875,-0.1621776318359375,1.0648733154296874
-0.3806821484375,-0.2450181640625,1.057746083984375
-0.49277177734375,-0.2371752734375,1.0904330419921875
-0.58516669921875,-0.08963089355468751,0.962388642578125
-0.6014573828125,-0.1415900439453125,0.8825144970703125
-0.56231111328125,-0.17516741943359376,0.8225474462890625
-0.5421301171875,-0.15310928955078124,0.850319072265625
-0.4759948046875,-0.01732924560546875,1.0471781201171875
-0.50249755859375,-0.09673851318359375,1.1405694287109376
-0.46748474609375,-0.0523771630859375,1.0889584423828125
-0.51903138671875,-0.02027032958984375,0.92748978515625
-0.50541529296875,-0.10311086181640625,0.8422087744140625
-0.455084375,-0.15948163818359376,0.7773263916015625
-0.439523125,-0.123453359375,0.688113115234375
-0.4200715625,-0.1611972705078125,0.6079932031249999
-0.50444271484375,-0.1249239013671875,0.56178908203125
-0.5224354101562501,-0.1200220947265625,0.5588398828125
-0.50760359375,-0.1111988427734375,0.585874208984375
-0.43538966796875,-0.04477936279296875,0.80755568359375
-0.626258125,-0.0259074072265625,0.92552365234375
-0.5878412890625,0.00987578125,0.9174133544921875
-0.43830740234375,0.10717664306640624,0.8756330322265625
-0.45143720703125,0.19589934326171876,0.8458952734375
-0.3466419140625,0.13021513427734374,0.8505648388671875
-0.4059691796875,0.0780108935546875,0.9213456201171875
-0.55209904296875,0.11452935302734375,0.9537868115234375
-0.51319591796875,0.1368325732421875,0.86359046875
-0.49860724609375,0.22923162841796874,0.8235305126953125
-0.436605390625,0.1221271533203125,0.831640810546875
-0.42055785156250003,0.0686974609375,0.906845390625
-0.3933256640625,0.0838930615234375,0.9975332666015625
-0.45289607421875,0.0956573974609375,1.07494974609375
-0.42906791015625,0.11992134033203125,1.0992806396484376
-0.46481015625,-0.02615249755859375,1.077407412109375
-0.461892421875,-0.03546593017578125,1.0228472265625
-0.41423609375,-0.0239466845703125,0.8102591162109375
-0.42906791015625,0.03757098876953125,0.6623076220703125
-0.33375525390625,0.083402880859375,0.6075016699218749
-0.35126166015625,0.05276658935546875,0.666485654296875
-0.352963671875,-0.08448399658203125,0.8146829150390625
-0.461892421875,0.026541923828125,0.98057537109375
-0.442440859375,-0.123453359375,0.9926179345703126
-0.321841171875,-0.15212892822265625,1.070525947265625
-0.3096839453125,-0.15286419921875,1.1946380810546875
-0.39089421875,-0.20261753662109375,1.3027753857421875
-0.43830740234375,-0.183255400390625,1.3828952978515625
-0.46286499999999997,-0.12149263671875,1.361513603515625
-0.4944737890625,-0.24477307373046875,1.1073909375
-0.471618203125,-0.2180582275390625,0.946168046875
-0.33618669921875,-0.204823349609375,0.8392595751953125
-0.30700935546875,-0.220509130859375,0.7330884033203124
-0.377278125,-0.12222790771484375,0.6519854248046875
-0.35393625,-0.21291133056640624,0.5411446875
-0.32257060546875,-0.23300873779296874,0.4912540673828125
-0.3242726171875,-0.2131564208984375,0.4519314111328125
-0.25497642578125,-0.195019736328125,0.45045681152343753
-0.12221951171875,-0.0788469189453125,0.593738740234375
-0.3515048046875,0.01796376220703125,0.78986048828125
-0.44414287109375,0.1510478125,0.96877857421875
-0.40669861328125,0.16697868408203126,1.0373474560546876
-0.33083751953125,0.20398732421875,1.110831669921875
-0.27345541015625,0.2765340625,1.075441279296875
-0.207076953125,0.23462361572265625,1.0624156494140624
-0.20197091796875,0.22580036376953125,1.2285538720703124
-0.294608984375,0.14394019287109375,1.3185044482421875
-0.3563676953125,0.21109494384765626,1.3138348828125
-0.63622705078125,0.07580508056640625,1.1621968896484376
-0.49325806640625003,0.111833359375,0.98843990234375
-0.25254498046875,-0.12124754638671875,0.805098017578125
-0.18154677734375,-0.18693175537109374,0.9481341796875
-0.27588685546875,-0.09330724853515625,1.18898544921875
-0.467727890625,-0.063651318359375,1.24010490234375
-0.4127772265625,0.0584036669921875,1.1902142822265624
-0.3670660546875,-0.10972830078125,1.167849521484375
-0.2260422265625,-0.12958061767578125,1.2496897998046874
-0.19127255859375,-0.09771887451171875,1.1427813281249999
-0.22336763671875,-0.20727425292968749,1.0621698828125
-0.201241484375,-0.2798209912109375,1.13000146484375
-0.34250845703125,-0.28986969482421876,1.211104443359375
-0.3738741015625,-0.24330253173828126,1.1997991796875
-0.4701593359375,-0.198941181640625,0.9587021435546875
-0.393811953125,-0.18055940673828125,0.7237492724609375
-0.27296912109375,-0.1866866650390625,0.5905437744140625
-0.19710802734375,-0.14918784423828124,0.5694078466796875
-0.0932853125,-0.15948163818359376,0.703842177734375
-0.09498732421875,-0.09036616455078125,0.9056165576171875
-0.20002576171875,-0.11364974609375,0.97467697265625
-0.3680386328125,-0.025662316894531252,1.047915419921875
-0.4273658984375,0.00423870361328125,1.1032129052734374
-0.382141015625,0.0966377587890625,1.077407412109375
-0.29679728515625,0.1760470263671875,0.9144641552734375
-0.19467658203125,0.11011772705078125,0.8839890966796875
-0.18446451171875,-0.08423890625,0.9759058056640625
-0.01815365234375,-0.0435539111328125,1.0818312109375
-0.11978806640625,-0.05850442138671875,1.182595517578125
-0.3913805078125,-0.02125069091796875,1.2811479248046875
-0.21972046875,0.03266918212890625,1.2364184033203125
-0.2756437109375,-0.02909358154296875,1.21061291015625
-0.2221519140625,0.04247279541015625,1.3494710400390626
-0.3952708203125,-0.15359947021484374,1.2324861376953125
-0.3427516015625,0.10129447509765625,1.0412797216796874
-0.32451576171875,0.1471263671875,0.8105048828125
-0.21023783203125002,-0.03154448486328125,0.66206185546875
-0.16914640625,-0.08644471923828125,0.790352021484375
-0.31673513671875,-0.0803174609375,0.9097945898437501
-0.22190876953125,-0.065612041015625,0.9193794873046874
-0.31041337890625,-0.13840386962890625,0.7613515625
-0.42469130859375,-0.023456503906250002,0.66009572265625
-0.3301080859375,0.011346323242187501,0.614383134765625
-0.3135742578125,-0.020515419921875,0.5458142529296874
-0.2007551953125,0.159871064453125,0.6886046484375
-0.0777240625,0.06257020263671875,0.9650920751953125
-0.12951384765625001,-0.018554697265625,1.2265877392578124
-0.2581373046875,0.01600303955078125,1.477515439453125
-0.21364185546875,-0.029338671875,1.5347790576171876
-0.32111173828125,-0.1200220947265625,1.405751591796875
-0.26616107421875,0.03855135009765625,1.2708257275390624
-0.26616107421875,-0.108747939453125,1.067576748046875
-0.30068759765624997,-0.18595139404296876,1.0103131298828125
-0.18251935546875,-0.15997181884765624,0.91372685546875
-0.13389044921874999,-0.2621744873046875,0.855234404296875
-0.090367578125,-0.244037802734375,0.9380577490234375
-0.1477496875,-0.343054296875,1.1425355615234376
-0.29631099609375,-0.40016034423828123,1.0884669091796875
-0.34639876953125,0.08242251953125,0.8382765087890625
-0.143859375,-0.0327699365234375,0.7104778759765625
0.009078535156249998,-0.13595296630859374,0.7741314257812499
-0.003808124999999999,-0.13301188232421876,1.0594664501953126
-0.08307324218750001,-0.19575500732421874,1.3032669189453125
-0.1861665234375,-0.23251855712890626,1.26959689453125
-0.15091056640625,-0.1190417333984375,1.077407412109375
-0.31576255859375,-0.130315888671875,0.8431918408203125
-0.4225030078125,-0.014633251953124999,0.7389868017578125
-0.3777644140625,0.0917359521484375,0.731368037109375
-0.269321953125,0.18609572998046875,0.8427003076171875
-0.1783858984375,0.07580508056640625,0.9675497412109375
-0.1492085546875,-0.10972830078125,0.989914501953125
-0.08283009765625,-0.0268877685546875,0.946168046875
-0.148722265625,0.015022678222656249,0.800182685546875
-0.214857578125,0.06624655761718751,0.7153932080078125
-0.27151025390625,0.07923634521484375,0.7891231884765625
-0.44025255859375,0.12041152099609376,0.936828916015625
-0.39867484375,0.10913736572265625,0.9508376123046876
-0.11930177734375,0.0515411376953125,0.965337841796875
-0.27418484375,0.046149150390625,0.9301932177734376
-0.26129818359375,0.03413972412109375,0.8766160986328125
-0.31624884765625,-0.01953505859375,0.8530225048828125
-0.30700935546875,0.13756784423828125,0.9009469921875
-0.1190586328125,0.085363603515625,1.0127707958984375
-0.08672041015625,-0.0513968017578125,1.1840701171874999
-0.09595990234375,0.1407540185546875,1.42098912109375
-0.42858162109375,-0.05090662109375,1.331530078125
-0.439523125,-0.01193725830078125,1.1592476904296876
-0.36925435546875,0.0466393310546875,0.9704989404296875
-0.25789416015625,-0.130315888671875,0.9994993994140625
-0.2552195703125,-0.0960032421875,1.158510390625
-0.22239505859375,-0.16046199951171874,1.0385762890625
-0.121490078125,-0.22565602783203126,0.914218388671875
-0.286828359375,-0.18497103271484375,0.9778719384765625
-0.40961634765625,-0.18987283935546875,1.00416896484375
-0.2688356640625,-0.26977228759765626,0.9528037451171875
-0.34202216796875,-0.2516356030273437,0.9700074072265625
-0.19808060546875,-0.048455717773437504,0.9896687353515625
-0.16549923828125,-0.19600009765625,0.927981318359375
-0.2532744140625,-0.15163874755859374,1.0973145068359376
-0.47769681640625,-0.09624833251953124,1.1877566162109374
-0.18835482421875,-0.19918627197265626,1.1440101611328124
-0.24768208984375,-0.09428760986328125,1.214053642578125
-0.3563676953125,0.0191892138671875,1.2034856787109376
-0.4536255078125,0.02335574951171875,1.032677890625
-0.2644590625,-0.11242429443359375,0.8441749072265625
-0.0869635546875,-0.04526954345703125,0.8146829150390625
-0.117599765625,-0.14967802490234375,1.0592206835937499
-0.15747546875,-0.09085634521484375,1.3180129150390625
-0.52511,0.05619785400390625,1.280902158203125
-0.5800606640625,0.11599989501953126,0.986965302734375
-0.49034033203125,-0.08301345458984374,0.675333251953125
-0.148722265625,0.02874773681640625,0.5662128808593749
-0.05632734375,0.073599267578125,0.641908994140625
-0.0704297265625,0.12629368896484375,0.73775796875
-0.13486302734375,-0.0906112548828125,0.9724650732421874
-0.3281629296875,0.08609887451171874,1.1823497509765626
-0.27199654296875,-0.013652890625,1.280902158203125
-0.41934212890625,-0.11046357177734376,1.217494375
-0.30530734375,-0.10580685546875,0.9508376123046876
-0.24038775390625,0.0030132519531249997,0.8053437841796875
-0.368524921875,0.0008074389648437498,0.6755790185546875
-0.308225078125,0.0020328906249999995,0.6382224951171875
-0.1725504296875,0.020659755859375,0.7330884033203124
-0.30530734375,0.12874459228515625,0.899472392578125
-0.12562353515625,-0.0474753564453125,0.9402696484374999
-0.024475410156250002,-0.08889562255859375,1.046932353515625
-0.11857234375,0.07923634521484375,1.1843158837890626
-0.30652306640625,-0.03914228515625,1.2408422021484375
-0.3865176171875,-0.03203466552734375,1.2025026123046876
-0.24525064453125,-0.059484782714843754,1.18308705078125
-0.2099946875,-0.167569619140625,1.1250861328125
-0.18859796875,-0.24869451904296874,1.084288876953125
-0.35077537109375,-0.2572726806640625,0.9886856689453125
-0.38384302734375,-0.2425672607421875,0.87047193359375
-0.30506419921875,-0.20972515625,0.7318595703125
-0.4020788671875,-0.11634573974609375,0.600128671875
-0.2309051171875,-0.01193725830078125,0.5581025830078125
-0.04344068359375,-0.116590830078125,0.6288833642578124
-0.0363894921875,-0.1822750390625,0.831640810546875
-0.0023492578125000017,-0.08448399658203125,1.091170341796875
-0.13729447265625,-0.1759026904296875,1.285817490234375
-0.514411640625,-0.14624676025390626,1.275003759765625
-0.50371328125,0.10080429443359375,1.0171945947265626
-0.399647421875,-0.0651218603515625,0.7365291357421875
-0.294608984375,-0.0739451123046875,0.62273919921875
-0.18786853515625002,0.08364797119140625,0.7456225
-0.16501294921875,-0.01781942626953125,0.81345408203125
-0.2707808203125,-0.02321141357421875,0.8785822314453124
-0.1005796484375,0.03315936279296875,0.95304951171875
-0.02350283203125,0.0368357177734375,1.1014925390624999
-0.2279873828125,0.12629368896484375,1.1872650830078124
-0.21655958984375,-0.013162709960937501,1.140323662109375
-0.29533841796875,0.02727719482421875,1.0565172509765626
-0.08137123046875,-0.1170810107421875,0.655671923828125
0.00810595703125,0.0686974609375,0.78789435546875
-0.08574783203125,0.0152677685546875,0.9891772021484375
-0.26056875,-0.06144550537109375,1.182595517578125
-0.33229638671875,0.03217900146484375,1.3057245849609376
-0.51927453125,0.057913486328125,1.0879753759765625
-0.3145468359375,-0.04183827880859375,1.0014655322265624
-0.051950742187499996,-0.24526325439453125,0.928964384765625
-0.27102396484375,-0.2435476220703125,1.07101748046875
-0.57981751953125,-0.14502130859375,0.9980247998046875
-0.533863203125,-0.15065838623046876,0.7502920654296875
-0.0466015625,-0.165608896484375,0.600620205078125
-0.02204396484375,-0.13154134033203124,0.7370206689453125
-0.1890842578125,-0.0180645166015625,0.9992536328125
-0.331566953125,0.00963069091796875,1.1041959716796874
-0.42809533203125,0.06011929931640625,1.1184504345703126
-0.28464005859375,0.13021513427734374,0.975168505859375
-0.17133470703125,0.026296833496093748,0.828691611328125
-0.20002576171875,-0.124433720703125,0.8136998486328125
-0.04830357421875,-0.23521455078125,0.9614055761718749
0.018318027343749998,-0.16830489013671876,1.23813876953125
-0.21704587890625,-0.16046199951171874,1.587618876953125
-0.52972974609375,-0.018554697265625,1.6443909619140624
-0.5771429296875,0.0505607763671875,1.391005595703125
-0.42858162109375,0.0221302978515625,1.1680952880859374
-0.41934212890625,-0.03595611083984375,1.083305810546875
-0.286828359375,-0.18055940673828125,1.0176861279296876
-0.22531279296875,-0.06977857666015624,0.8830060302734375
-0.40815748046875,-0.03301502685546875,0.7846993896484376
-0.4215304296875,-0.01953505859375,0.62273919921875
-0.30141703125,-0.0827683642578125,0.6534600244140625
-0.31770771484375,-0.1626678125,0.741690234375
-0.3456693359375,-0.18252012939453124,0.7832247900390625
-0.28901666015625,-0.25016506103515623,0.7640549951171876
-0.43174250000000003,-0.19330410400390624,0.73480876953125
-0.48450486328125,-0.10899302978515625,0.6610787890625
-0.51927453125,-0.0494360791015625,0.6583753564453125
-0.5372672265625,0.06943273193359376,0.7183424072265625
-0.52681201171875,0.20423241455078125,0.8146829150390625
-0.42858162109375,0.265750087890625,0.8567090039062499
-0.391866796875,0.04712951171875,0.8677685009765626
-0.32889236328125,0.07923634521484375,0.7515208984375
-0.452166640625,0.1544790771484375,0.759876962890625
-0.4507077734375,0.1436951025390625,0.831640810546875
-0.5056584375,0.06551128662109375,0.9061080908203125
-0.46091984375,0.0584036669921875,1.0088385302734375
-0.5382398046875,0.010856142578125,0.9473968798828125
-0.5567187890625,0.04002189208984375,0.7660211279296875
-0.19808060546875,-0.047965537109375,0.75643623046875
-0.20804953125,-0.04330882080078125,1.0486527197265625
-0.2814791796875,0.01551285888671875,1.347259140625
-0.34007701171875,-0.0200252392578125,1.4546591455078124
-0.34445361328125,0.0956573974609375,1.4966852343750001
-0.17327986328125,-0.1033559521484375,1.2713172607421874
-0.04781728515625,-0.12663953369140624,1.191443115234375
-0.234309140625,-0.159726728515625,1.2354353369140625
-0.33083751953125,-0.0592396923828125,1.0825685107421874
-0.34785763671875003,-0.10972830078125,0.810013349609375
-0.1560166015625,-0.108747939453125,0.7183424072265625
-0.2172890234375,-0.18840229736328126,0.735300302734375
-0.29922873046875,-0.24232217041015625,0.7660211279296875
-0.02982458984375,-0.10213050048828125,0.8205813134765625
0.01783173828125,-0.10580685546875,0.9233117529296875
0.024396640625,-0.15016820556640625,1.09854333984375
0.0822650390625,-0.20972515625,1.30498728515625
0.146941484375,-0.2209993115234375,1.507007431640625
0.13940400390625,-0.181294677734375,1.4829223046875
-0.304334765625,0.0843832421875,1.0103131298828125
-0.06629626953125001,-0.09624833251953124,0.8510563720703125
0.13843142578125,-0.1170810107421875,0.8790737646484375
0.00591765625,-0.0886505322265625,1.167849521484375
-0.138996484375,-0.050661530761718754,1.344801474609375
-0.26713365234374997,0.012816865234374999,1.42295525390625
-0.20440236328125,0.14345001220703124,1.0673309814453125
-0.06483740234375,-0.05360261474609375,0.89209939453125
-0.14604767578125,-0.189137568359375,0.8677685009765626
-0.17668388671875,-0.1425704052734375,0.936828916015625
-0.14993798828125,-0.11757119140625,0.911269189453125
-0.31770771484375,-0.1690401611328125,0.8436833740234375
-0.3991611328125,-0.12124754638671875,0.8338527099609375
-0.41204779296875,-0.0798272802734375,0.7512751318359375
-0.44049570312499997,-0.092081796875,0.735300302734375
-0.4594609765625,-0.11095375244140625,0.6765620849609375
-0.38676076171875,-0.12663953369140624,0.5455684863281249
-0.24476435546875,-0.23938108642578126,0.4647112744140625
-0.13583560546875,-0.28643843017578124,0.5084577294921875
-0.20002576171875,-0.29624204345703126,0.6337986962890625
-0.38432931640625,-0.21560732421875,0.78396208984375
-0.41812640624999997,-0.08350363525390625,0.763809228515625
-0.467727890625,-0.0425735498046875,0.78396208984375
-0.48353228515625,-0.0170841552734375,0.7817501904296875
-0.34542619140624997,0.05031568603515625,0.9326508837890625
-0.23017568359375,0.03364954345703125,1.2162655419921875
-0.430769921875,0.00816014892578125,1.3573355712890625
-0.36730919921875,0.15080272216796875,1.3288266455078124
-0.5158705078125,-0.00654527099609375,1.090187275390625
-0.524137421875,0.0280124658203125,0.9599309765625
-0.423961875,-0.025662316894531252,0.789368955078125
-0.368524921875,-0.167569619140625,0.6765620849609375
-0.27540056640625,-0.1660990771484375,0.733825703125
-0.25497642578125,-0.206784072265625,0.8466325732421875
-0.33326896484375,-0.242077080078125,0.884726396484375
-0.203186640625,-0.20604880126953126,0.9739396728515625
-0.35952857421875,-0.1170810107421875,1.0923991748046875
-0.34250845703125,-0.08154291259765625,1.13196759765625
-0.46797103515625,-0.096983603515625,1.1489254931640625
-0.18081734375,-0.08423890625,0.99630443359375
-0.27977716796875,-0.2141367822265625,0.952557978515625
-0.2309051171875,-0.05262225341796875,0.9921264013671875
-0.333512109375,-0.15286419921875,1.010558896484375
-0.34591248046875,-0.060710234375,1.1607222900390626
-0.5158705078125,-0.0371815625,1.2295369384765624
-0.43368765625,0.1427147412109375,1.07888201171875
-0.19637859375,-0.08227818359375,0.988931435546875
-0.25473328125,-0.14109986328125,1.060695283203125
-0.2017277734375,0.00668960693359375,1.194392314453125
-0.205131796875,-0.11585555908203125,1.13000146484375
-0.14969484375,-0.087179990234375,1.2305200048828124
-0.3339983984375,0.0731090869140625,1.3927259619140624
-0.47648109375000003,0.0946770361328125,1.4944733349609374
-0.66321609375,0.0760501708984375,1.292207421875
-0.56814658203125,0.06281529296875,1.0444746875
-0.53799666015625,-0.16144236083984376,0.7689703271484375
-0.32402947265625,-0.2778602685546875,0.614383134765625
-0.17036212890625,-0.2945264111328125,0.5959506396484375
-0.1321884375,-0.3504070068359375,0.7613515625
-0.36585033203125,-0.3815334790039063,0.957473310546875
-0.47380650390625,-0.39329781494140625,1.0604495166015624
-0.48110083984375,-0.34722083251953123,1.130492998046875
-0.3242726171875,-0.1366882373046875,1.1400778955078126
-0.40426716796875,0.00423870361328125,1.2115959765625
-0.34299474609375,-0.0347306591796875,1.25386783203125
-0.47648109375000003,-0.159726728515625,1.1951296142578125
-0.3641483203125,-0.07517056396484376,1.0702801806640625
-0.39551396484375,-0.22320512451171876,0.9380577490234375
-0.39794541015625,-0.11291447509765624,0.8736668994140625
-0.38700390625000003,-0.17835359375,0.75053783203125
-0.3359435546875,-0.07370002197265625,0.6981895458984375
-0.209022109375,-0.04477936279296875,0.746114033203125
-0.23066197265625,0.0907555908203125,0.968287041015625
-0.267376796875,0.11992134033203125,1.1499085595703125
-0.3359435546875,0.06649164794921875,1.283851357421875
-0.24622322265625,0.080461796875,1.2270792724609374
-0.2338228515625,0.11550971435546875,1.052830751953125
-0.3203823046875,0.0451687890625,1.0088385302734375
-0.39843169921875,-0.0006631030273437505,0.9326508837890625
-0.154557734375,0.021885207519531248,0.832623876953125
-0.16355408203125,-0.1180613720703125,0.8377849755859375
-0.189570546875,-0.06291604736328126,1.0702801806640625
-0.30409162109375,-0.12516899169921875,1.229782705078125
-0.40913005859375,-0.0200252392578125,1.2703341943359374
-0.35515197265625,0.08609887451171874,1.134425263671875
-0.25059982421875,-0.0288484912109375,0.8898874951171875
-0.0791829296875,-0.010711806640625,0.789368955078125
-0.119544921875,0.06306038330078124,0.7846993896484376
-0.21801845703125,-0.05017135009765625,0.8136998486328125
-0.09693248046875,-0.01487834228515625,0.929947451171875
-0.20099833984375,-0.069533486328125,1.137374462890625
-0.35709712890625,-0.07909200927734375,1.23224037109375
-0.551369609375,0.03413972412109375,1.1666206884765624
-0.37022693359375003,-0.0055649096679687505,0.8082929833984375
-0.18203306640625,-0.12149263671875,0.7075286767578125
-0.06751199218750001,-0.092081796875,0.8328696435546875
-0.24719580078125,-0.10972830078125,0.9301932177734376
-0.3680386328125,-0.10801266845703125,0.9370746826171875
-0.39648654296875,-0.14575657958984375,0.8559717041015625
-0.11298001953125,-0.0396324658203125,0.937811982421875
-0.2775888671875,-0.05458297607421875,1.07888201171875
-0.42177357421875,-0.081297822265625,1.14769666015625
-0.35904228515625003,-0.15605037353515624,0.9773804052734375
-0.28561263671875,-0.1749223291015625,0.87440419921875
-0.31235853515625,-0.1249239013671875,0.8672769677734375
-0.3835998828125,-0.0964934228515625,1.040542421875
-0.39891798828125,-0.2317832861328125,1.084288876953125
-0.45046462890625,-0.05213207275390625,1.0570087841796876
-0.17765646484375,-0.06830803466796875,1.0110504296875
-0.242089765625,-0.12320826904296875,1.0747039794921875
-0.3476144921875,0.04345315673828125,1.163917255859375
-0.5187882421875,0.14394019287109375,0.9473968798828125
-0.2882872265625,0.182419375,0.8871840625
-0.35344996093750003,0.0020328906249999995,0.7507835986328125
-0.23528171875,-0.03056412353515625,0.66009572265625
-0.13510617187500001,-0.144040947265625,0.580958876953125
-0.1774133203125,-0.19526482666015624,0.7090032763671875
-0.31478998046875,-0.0298288525390625,0.8736668994140625
-0.3320532421875,-0.01561361328125,1.065610615234375
-0.39891798828125,0.016738310546875,1.2432998681640626
-0.43927998046875,0.19393862060546874,1.1292641650390625
-0.15966376953125,0.1142842626953125,0.909303056640625
-0.2333365625,0.030708459472656248,0.7753602587890625
-0.18470765625,0.03806116943359375,0.7129355419921874
-0.1015522265625,-0.08497417724609375,0.762826162109375
-0.125380390625,-0.1494329345703125,0.88226873046875
-0.15723232421875,-0.1195319140625,1.0353813232421876
-0.2124261328125,-0.038161923828125,1.100017939453125
-0.2416034765625,-0.1062970361328125,1.080356611328125
-0.20780638671875,-0.068553125,1.1238572998046874
-0.41885583984375,0.0789912548828125,1.182595517578125
-0.5314317578125,0.152028173828125,1.0329236572265625
-0.21121041015625,0.0686974609375,0.884726396484375
-0.16549923828125,-0.00605509033203125,0.834590009765625
-0.18884111328125,0.069677822265625,0.8065726171875
-0.06629626953125001,-0.05409279541015625,0.8105048828125
-0.1501811328125,-0.013652890625,0.8618701025390625
-0.37922328125,0.08315779052734375,1.075441279296875
-0.3923530859375,0.0030132519531249997,1.2806563916015625
-0.41739697265625,-0.1822750390625,1.38166646484375
-0.32354318359375,-0.05409279541015625,1.216019775390625
-0.263486484375,-0.05850442138671875,0.7699533935546875
-0.1268392578125,-0.2136466015625,0.65026505859375
-0.0247185546875,-0.2308029248046875,0.73677490234375
-0.21801845703125,-0.1121792041015625,1.137374462890625
-0.2805066015625,-0.02027032958984375,1.4266417529296875
-0.35320681640625,-0.12663953369140624,1.614161669921875
-0.4954463671875,0.026541923828125,1.446057314453125
-0.36730919921875,-0.029338671875,1.02972869140625
-0.207076953125,-0.06928839599609375,0.8048522509765625
-0.17279357421875,-0.0710040283203125,0.8279543115234375
-0.16258150390625,-0.19722554931640626,0.94125271484375
-0.22044990234375,-0.12933552734375,1.0174403613281249
-0.11395259765625,-0.1141399267578125,0.99237216796875
-0.06580998046875,0.0319339111328125,1.066593681640625
-0.28585578125,-0.063651318359375,1.171781787109375
-0.36196001953125,0.04198261474609375,1.315309482421875
-0.5178156640625,-0.04772044677734375,1.25780009765625
-0.2800203125,0.14835181884765625,1.1211538671875
-0.3417790234375,0.1427147412109375,0.867031201171875
-0.2659179296875,0.07433453857421875,0.7566819970703125
-0.0412523828125,-0.06389640869140625,0.7321053369140624
-0.15164,0.104970830078125,0.853268271484375
-0.17133470703125,0.04198261474609375,1.0167030615234376
-0.271267109375,-0.16634416748046876,1.2673849951171876
-0.2707808203125,-0.006790361328125,1.2565712646484375
-0.2970404296875,-0.0768861962890625,0.923065986328125
-0.0354169140625,-0.02174087158203125,0.839996875
-0.3320532421875,-0.07419020263671874,0.7763433251953125
-0.2746711328125,0.03928662109375,0.7104778759765625
-0.18738224609375,0.0348749951171875,0.684180849609375
-0.06532369140625,-0.063651318359375,0.85474287109375
-0.21193984375,-0.0768861962890625,1.1002637060546876
-0.16744439453124998,-0.13129625,1.2034856787109376
-0.199296328125,-0.01781942626953125,1.1919346484375
-0.26956509765625,-0.0386521044921875,1.0717547802734375
-0.18057419921875,-0.028113220214843748,0.96877857421875
-0.2785614453125,-0.00213364501953125,0.9186421875
-0.18154677734375,-0.153844560546875,0.9631259423828125
-0.14799283203125,0.0427178857421875,1.044966220703125
-0.1920019921875,-0.09918941650390625,0.93928658203125
-0.10228166015625,-0.06144550537109375,1.0031858984375
-0.1929745703125,-0.08399381591796876,1.17522251953125
-0.3291355078125,0.00570924560546875,1.32464861328125
-0.26640421875,-0.07762146728515625,1.1086197705078125
-0.30919765625,-0.0955130615234375,1.080356611328125
-0.28998923828125,0.0701680029296875,1.1007552392578126
-0.40645546875,-0.06536695068359374,0.9832788037109375
-0.29509527343749997,0.110852998046875,0.8358188427734374
-0.08283009765625,-0.037916833496093746,0.79575888671875
0.029259531249999998,-0.0455146337890625,0.84884447265625
-0.22531279296875,0.14541073486328124,0.966320908203125
-0.10471310546875,-0.08791526123046875,0.994829833984375
-0.387976484375,-0.18399067138671876,1.032677890625
0.07983359375,-0.013162709960937501,0.98647376953125
0.1114423828125,-0.05164189208984375,1.2015195458984376
-0.3631757421875,-0.3700142333984375,1.569923681640625
-0.60875171875,-0.37222004638671874,1.2958939208984375
-0.46262185546875,-0.2357047314453125,0.6711552197265624
-0.38700390625000003,-0.13497260498046876,0.3585401025390625
-0.25546271484375,-0.10262068115234375,0.2808778564453125
0.0029999218749999987,-0.052867343750000004,0.2813693896484375
0.0657312109375,-0.01144707763671875,0.4096595556640625
0.1299213671875,0.03266918212890625,0.67385865234375
0.13940400390625,0.038306259765625,1.1056705712890624
-0.0665394140625,-0.057278969726562504,1.5318298583984375
-0.640846796875,0.085363603515625,1.757689365234375
-0.58808443359375,0.09345158447265625,1.55468615234375
-0.2970404296875,0.214771298828125,1.2698426611328124
-0.31333111328125,0.1809488330078125,0.9704989404296875
-0.1560166015625,0.016738310546875,0.841471474609375
-0.15236943359375,-0.068553125,1.045949287109375
-0.100093359375,-0.2376654541015625,0.9867195361328125
-0.13413359375,-0.2406065380859375,0.7620888623046875
-0.20829267578125,-0.15703073486328126,0.647807392578125
-0.061190234375,0.0025230712890624996,0.592755673828125
-0.0388209375,-0.052867343750000004,0.71711357421875
-0.02787943359375,-0.013652890625,1.1005094726562499
-0.12951384765625001,-0.037916833496093746,1.538465556640625
-0.31138595703125,0.0765403515625,1.60580560546875
-0.27248283203125,0.20006587890625,1.3489795068359376
-0.52972974609375,0.0348749951171875,1.1041959716796874
-0.54067125,-0.07713128662109375,0.9886856689453125
-0.419098984375,-0.1660990771484375,0.6706636865234374
-0.18738224609375,-0.12222790771484375,0.514110361328125
-0.07504947265625,-0.17271651611328126,0.4381684814453125
-0.01231818359375,-0.204823349609375,0.46569434082031247
-0.040279804687500004,-0.16438344482421874,0.6834435498046875
-0.012561328125,-0.08399381591796876,0.8977520263671875
-0.220693046875,-0.01953505859375,1.1474508935546874
-0.35612455078125,0.14345001220703124,1.352666005859375
-0.18640966796875,0.08315779052734375,1.3853529638671875
-0.29387955078125,0.026051743164062502,1.417548388671875
-0.245980078125,0.14982236083984374,1.3135891162109374
-0.27053767578125,-0.1038461328125,1.259274697265625
-0.44900576171875,-0.04575972412109375,1.1975872802734375
-0.439523125,0.0407571630859375,0.881777197265625
-0.40572603515625,0.016738310546875,0.650756591796875
-0.28853037109375,0.014777587890624999,0.5055085302734375
-0.1180860546875,-0.10580685546875,0.4290751171875
0.0803198828125,-0.12909043701171874,0.478719970703125
0.04165990234375,-0.1739419677734375,0.6883588818359375
0.039957890625,-0.2053135302734375,0.9803296044921875
0.14183544921875,-0.204823349609375,1.3740477001953124
0.07570013671875,-0.15801109619140624,1.7328669384765625
-0.5255962890625,0.1250682373046875,1.5259314599609375
-0.59537876953125,0.16085142578125,1.3278435791015626
-0.3699837890625,-0.0690433056640625,0.970253173828125
-0.17960162109375,-0.177373232421875,0.927981318359375
-0.10130908203125,-0.0935523388671875,0.8859552294921875
-0.25789416015625,0.0250713818359375,0.817877880859375
-0.25862359375,0.18045865234375,0.7399698681640625
-0.29971501953125,0.142224560546875,0.68762158203125
-0.251815546875,0.0887948681640625,0.5118984619140625
0.13697255859375,-0.0866898095703125,0.7738856591796874
0.11484640625,-0.20604880126953126,0.9970417333984375
-0.004051269531250002,-0.342073935546875,1.101984072265625
-0.236254296875,-0.1116890234375,1.289749755859375
-0.4866931640625,0.0946770361328125,1.2442829345703126
-0.4614061328125,0.075559990234375,1.0127707958984375
-0.481343984375,7.216796875000007e-05,0.875878798828125
-0.4584883984375,0.01649322021484375,0.718096640625
-0.07115916015625,0.0476196923828125,0.5118984619140625
-0.022287109375,0.01306195556640625,0.5959506396484375
-0.06751199218750001,0.116735166015625,0.8957858935546875
-0.12221951171875,0.08021670654296875,1.1209081005859376
-0.1103054296875,0.03610044677734375,1.416565322265625
-0.08672041015625,0.11060790771484375,1.62546693359375
-0.36633662109375,0.2162418408203125,1.5082362646484375
-0.38481560546875,0.20398732421875,1.149171259765625
-0.1744955859375,0.08903995849609375,0.8785822314453124
-0.21801845703125,-0.0513968017578125,0.82328474609375
-0.21801845703125,-0.03203466552734375,1.012525029296875
-0.209022109375,0.03021827880859375,1.095594140625
-0.40062,0.04198261474609375,1.1189419677734376
-0.27394169921875,0.038306259765625,1.071509013671875
-0.22968939453125,0.00816014892578125,1.159984990234375
-0.2211793359375,-0.028358310546875,1.245020234375
-0.27588685546875,-0.08889562255859375,1.1813666845703126
-0.1910294140625,-0.07811164794921875,1.081339677734375
-0.20342978515625,-0.1749223291015625,0.9183964208984375
-0.20926525390625,-0.1744321484375,0.7645465283203124
-0.2133987109375,-0.09796396484375,0.692045380859375
-0.1803310546875,-0.0268877685546875,0.6701721533203124
-0.174981875,-0.12173772705078124,0.7434106005859376
-0.152612578125,-0.044534272460937496,0.9166760546875
-0.13875333984375,-0.030073942871093752,1.00613509765625
-0.23892888671875,-0.0038492773437499997,1.092153408203125
-0.23406599609375,-0.0288484912109375,1.106899404296875
-0.3826273046875,-0.030073942871093752,1.111814736328125
-0.0821006640625,0.00619942626953125,1.0373474560546876
-0.2931501171875,-0.22663638916015624,0.9756600390625
-0.34931650390625,0.05668803466796875,1.0884669091796875
-0.31989601562500003,-0.02419177490234375,0.8028861181640625
-0.2099946875,-0.13497260498046876,0.6062728369140625
-0.13583560546875,-0.013162709960937501,0.544585419921875
-0.103983671875,-0.0028689160156250004,0.51853416015625
0.018561171875,0.046149150390625,0.5536787841796875
-0.11687033203125,-0.14918784423828124,0.7193254736328125
-0.10519939453125,0.042227705078125,0.9397781152343749
-0.12562353515625,0.110852998046875,1.10837400390625
-0.252788125,0.07261890625,1.216019775390625
-0.43490337890624997,0.19050735595703125,1.2958939208984375
-0.52146283203125,0.22040837646484374,1.1828412841796876
-0.1890842578125,0.0897752294921875,0.97664310546875
-0.230418828125,0.02360083984375,1.0865007763671874
-0.17303671874999998,-0.0190448779296875,1.119679267578125
-0.1842213671875,-0.222469853515625,1.0004824658203124
-0.2240970703125,-0.08154291259765625,0.8446664404296875
-0.20342978515625,-0.03056412353515625,0.74463943359375
-0.14604767578125,-0.0729647509765625,0.623722265625
-0.11103486328125,0.087324326171875,0.6741044189453125
0.01953375,-0.0876701708984375,0.881777197265625
-0.00016095703124999888,-0.022476142578125,1.1966042138671875
-0.144831953125,-0.0788469189453125,1.4435996484375
-0.19029998046875,-0.07419020263671874,1.591059609375
-0.5810332421875,0.03855135009765625,1.551736953125
-0.52097654296875,0.13756784423828125,1.32858087890625
-0.48450486328125,0.042227705078125,1.1604765234375
-0.27418484375,-0.15801109619140624,0.9532952783203125
-0.00891416015625,-0.10213050048828125,0.8181236474609375
-0.15091056640625,-0.25947849365234377,0.7247323388671875
-0.08088494140625,-0.264625390625,0.7625803955078125
-0.12173322265625,-0.1210024560546875,1.007609697265625
-0.142886796875,-0.12173772705078124,1.1958669140625
-0.10519939453125,-0.0494360791015625,1.3573355712890625
-0.30992708984375,0.09002031982421875,1.55272001953125
-0.62698755859375,0.0887948681640625,1.485379970703125
-0.45411179687500003,0.019679394531249998,1.1744852197265625
-0.30555048828125,-0.04330882080078125,1.00220283203125
-0.33764556640625,-0.18595139404296876,0.9881941357421875
-0.2279873828125,0.03413972412109375,0.9297016845703125
-0.25473328125,0.015022678222656249,0.89013326171875
-0.2036729296875,-0.2396261767578125,0.883251796875
-0.1161408984375,-0.16487362548828124,0.9975332666015625
-0.02009880859375,-0.0072805419921875,1.1562984912109375
-0.331566953125,-0.171491064453125,1.3022838525390625
-0.37849384765625,-0.38986655029296874,1.12017080078125
-0.3194097265625,-0.3013889404296875,0.7714279931640625
-0.315033125,-0.23349891845703125,0.5792385107421875
-0.33253953125,-0.21168587890625,0.4612705419921875
-0.20975154296875,-0.0925719775390625,0.473804638671875
-0.0636216796875,0.0917359521484375,0.5708824462890625
0.0020273437500000005,0.0740894482421875,0.721537373046875
-0.02885201171875,0.01845394287109375,1.08084814453125
-0.1321884375,0.1157548046875,1.282868291015625
-0.41034578125,0.27677915283203125,1.39542939453125
-0.35758341796875,0.3309441162109375,1.3214536474609375
-0.049762441406249996,0.2760438818359375,1.3878106298828126
-0.170118984375,0.15962597412109375,1.3303012451171874
-0.16452666015625,0.023845930175781252,1.4232010205078125
-0.13000013671875,-0.30187912109375,1.2472321337890624
-0.244034921875,-0.3663378784179688,0.810013349609375
-0.26251390625,-0.30310457275390623,0.4258801513671875
-0.16841697265625,-0.25261596435546874,0.2115716748046875
-0.1735230078125,-0.19967645263671874,0.1105616015625
-0.15869119140625,-0.16585398681640626,0.1230956982421875
-0.13510617187500001,-0.15899145751953125,0.18699501464843749
-0.045628984375,-0.18399067138671876,0.430549716796875
-0.003808124999999999,-0.2053135302734375,0.890624794921875
0.0589231640625,-0.18815720703125,1.6699506884765625
-0.288773515625,-0.1288453466796875,2.129718558349609
-0.847033359375,0.20080114990234374,2.129718558349609
-0.502740703125,0.38412871826171874,1.734095771484375
-0.408400625,0.1495772705078125,1.1582646240234376
-0.48037140625,-0.069533486328125,0.8048522509765625
-0.2873146484375,-0.1337471533203125,0.6229849658203125
0.007133378906249998,-0.14526639892578125,0.576535078125
0.002756777343749999,-0.07222947998046875,0.5077204296875
0.012725703124999998,-0.0631611376953125,0.5232037255859375
0.02269462890625,-0.06267095703125,0.62273919921875
-0.16209521484375,0.03757098876953125,0.8874298291015625
-0.27734572265625,0.02727719482421875,1.261240830078125
-0.36439146484375,0.0025230712890624996,1.630873798828125
-0.3408064453125,0.15864561279296874,1.740977236328125
-0.1015522265625,0.04394333740234375,1.682976318359375
-0.3145468359375,-0.144040947265625,1.5419062890625
-0.50152498046875,-0.0366913818359375,1.3873190966796876
-0.5392123828125,-0.20310771728515625,1.1774344189453125
-0.52389427734375,-0.177373232421875,0.9245405859375
-0.46942990234375,0.01698340087890625,0.7753602587890625
-0.38700390625000003,0.01575794921875,0.5472888525390625
-0.201241484375,-0.04723026611328125,0.37500646484375
0.0482248046875,-0.1357078759765625,0.4251428515625
0.065244921875,-0.191098291015625,0.5399158544921875
0.0793473046875,-0.18693175537109374,0.9913891015625
0.092477109375,-0.31756490234375,1.5618133837890624
-0.32013916015625,-0.6128987524414062,2.008371298828125
-0.8942033984375,-0.13717841796875,1.6611030908203124
-0.56620142578125,0.189281904296875,1.2978600537109375
-0.43198564453125,0.13732275390625,1.20962984375
-0.21850474609375,-0.12369844970703125,1.0093300634765625
-0.3189234375,-0.1023755908203125,0.8274627783203125
-0.2600824609375,-0.1337471533203125,0.6922911474609375
-0.2104809765625,-0.07026875732421875,0.389260927734375
-0.214857578125,-0.0415931884765625,0.2194362060546875
-0.13534931640625,-0.03546593017578125,0.1820796826171875
-0.032499179687500004,-0.0013983740234375002,0.21206320800781248
0.0530876953125,0.024581201171875,0.4671689404296875
0.08056302734375,0.10962754638671875,0.812962548828125
0.1532632421875,0.06011929931640625,1.2285538720703124
-0.012075039062500001,-0.29232059814453126,1.9761758740234374
-0.487179453125,-0.37025932373046877,2.129718558349609
-0.4108320703125,0.2985921923828125,2.129718558349609
-0.6534903125,-0.09281706787109376,1.6694591552734375
-0.48110083984375,-0.33153505126953126,1.252393232421875
-0.53410634765625,-0.359720439453125,1.1567900244140625
-0.14629082031250001,-0.46388383056640625,0.8274627783203125
-0.05170759765625,-0.34673065185546875,0.6020948046875
-0.11589775390625,-0.279330810546875,0.49641516601562496
-0.16209521484375,-0.0018885546875000003,0.0931121728515625
-0.1307295703125,0.03708080810546875,0.1874865478515625
-0.03614634765625,0.0608545703125,0.2287753369140625
0.0404441796875,-0.096983603515625,0.5249240917968749
-0.1229489453125,-0.193059013671875,1.039067822265625
-0.5367809375,-0.114630107421875,1.3688866015625
-0.76412107421875,0.07972652587890625,1.8528010400390624
-0.84970794921875,0.193203349609375,1.6114582373046875
-0.8484922265625,0.02360083984375,1.286800556640625
-0.58151953125,0.1191860693359375,0.9940925341796875
-0.3301080859375,0.18315464599609374,0.588331875
-0.005510136718749999,0.08021670654296875,0.3816421630859375
0.041416757812499996,0.04051207275390625,0.5286105908203125
0.0171023046875,0.12555841796875,0.7419360009765625
-0.3038484765625,0.152028173828125,0.8869382958984375
-0.3894353515625,0.06355056396484375,1.150645859375
-0.27272597656249997,0.00570924560546875,1.497176767578125
-0.37995271484375,0.010856142578125,1.6429163623046874
-0.800349609375,0.104970830078125,1.5288806591796875
-0.70382123046875,0.0922261328125,1.1268064990234374
-0.666133828125,-0.0170841552734375,0.902421591796875
-0.65373345703125,-0.0999246875,0.902421591796875
-0.42858162109375,-0.010221625976562499,0.8773533984374999
-0.23212083984375,-0.11830646240234374,0.845403740234375
-0.3339983984375,-0.247959248046875,0.6401886279296874
-0.25449013671875,-0.22075422119140625,0.5453227197265624
-0.20780638671875,-0.1111988427734375,0.5470430859375
-0.34007701171875,-0.00850599365234375,0.7335799365234374
-0.459947265625,0.048109873046875,0.7910893212890625
-0.41156150390625,0.0789912548828125,0.95796484375
-0.189570546875,0.24320177734375,1.1346710302734375
-0.197351171875,0.16795904541015624,1.2275708056640624
-0.1827625,0.06600146728515625,1.3312843115234374
-0.54237326171875,0.1035002880859375,1.3691323681640626
-0.71014298828125,-0.06536695068359374,1.245020234375
-0.2017277734375,-0.0533575244140625,1.0181776611328126
-0.0694571484375,-0.26389011962890624,0.8928366943359375
-0.1599069140625,-0.32810378662109374,0.7928096875
-0.292663828125,-0.32516270263671876,0.71121517578125
-0.27053767578125,-0.1464918505859375,0.40056619140625
-0.2853694921875,-0.08497417724609375,0.301276484375
-0.2785614453125,-0.06438658935546875,0.205427509765625
-0.27491427734375,-0.048455717773437504,0.18158814941406248
-0.12173322265625,-0.07860182861328124,0.2032156103515625
0.025612363281249998,-0.0710040283203125,0.4568467431640625
0.10779521484375,-0.1062970361328125,0.8933282275390625
0.108038359375,-0.179333955078125,1.64316212890625
-0.5790880859375,-0.28643843017578124,2.129718558349609
-1.179655078125,-0.13448242431640625,2.129718558349609
-0.98222171875,0.1015395654296875,1.670196455078125
-0.2785614453125,-0.5739293896484375,1.2845886572265626
-0.0461152734375,-0.1278649853515625,1.2236385400390626
-0.36366203125,0.13217585693359374,0.6610787890625
-0.28707150390625,0.05129604736328125,0.22828380371093748
-0.25838044921875,0.01747358154296875,0.0378146875
-0.14507509765624998,-0.006790361328125,0.08377304199218749
-0.05802935546875,-0.08938580322265625,0.15676572265625
-0.13632189453125,0.0123266845703125,0.2921831201171875
-0.245980078125,0.0721287255859375,0.50870349609375
-0.46310814453125,0.1446754638671875,1.031203291015625
-0.67707533203125,0.2721224365234375,1.5106939306640625
-0.79962017578125,0.5253007495117188,1.944963515625
-0.60291625,0.7645089135742188,1.961184111328125
-0.11054857421875,0.23756469970703126,1.9825658056640625
-0.16744439453124998,0.20129133056640625,1.570906748046875
-0.58322154296875,0.27726933349609373,1.5819662451171874
-0.8047262109375,0.1368325732421875,1.4322943847656249
-0.65908263671875,-0.1131595654296875,1.1651460888671874
-0.66005521484375,-0.02615249755859375,0.7719195263671875
-0.382141015625,0.0030132519531249997,0.5001016650390625
-0.2143712890625,-0.06144550537109375,0.36026046875
-0.2027003515625,-0.163648173828125,0.43374468261718746
-0.2843969140625,-0.20555862060546876,0.57161974609375
-0.39405509765625,-0.25702759033203126,0.8154202148437499
-0.52049025390625,-0.19428446533203125,1.1100943701171875
-0.58930015625,-0.16070708984375,1.176697119140625
-0.3111428125,-0.2778602685546875,1.190460048828125
-0.18981369140625,-0.11561046875,1.18603625
-0.491069765625,0.09933375244140626,1.138357529296875
-0.34834392578125,-0.057769150390625,0.941744248046875
-0.25108611328125,0.14982236083984374,0.98450763671875
-0.2639727734375,0.0544822216796875,1.0909245751953125
-0.5071173046875,-0.23496946044921874,1.0589749169921876
-0.526082578125,-0.059729873046875,0.8810398974609375
-0.0704297265625,-0.1376685986328125,0.7837163232421875
-0.0344443359375,-0.22345021484375,1.0742124462890625
0.0039725,-0.11095375244140625,1.5972037744140626
-0.3709563671875,-0.06781785400390625,1.856979072265625
-0.56814658203125,0.11109808837890625,1.7424518359375
-0.36779548828124997,0.20864404052734375,1.4610490771484375
-0.33570041015625,-0.10727739746093751,1.159001923828125
-0.3057936328125,-0.10654212646484375,1.246494833984375
-0.31187224609374997,0.0966377587890625,1.1459762939453124
-0.3641483203125,-0.02272123291015625,0.8948028271484375
-0.4808576953125,0.0373258984375,0.68172318359375
-0.51562736328125,-0.05164189208984375,0.516076494140625
-0.26275705078125,-0.18546121337890625,0.3504298046875
-0.10203851562499999,-0.19722554931640626,0.3988458251953125
-0.13680818359375,-0.2602137646484375,0.5694078466796875
-0.18859796875,-0.3004085791015625,0.6291291308593749
-0.39818855468750003,-0.2327636474609375,0.626179931640625
-0.4458448828125,0.0535018603515625,0.5266444580078125
-0.24087404296875,-0.01879978759765625,0.50083896484375
-0.20829267578125,-0.0170841552734375,0.658621123046875
-0.3699837890625,0.19197789794921874,0.8697346337890625
-0.38700390625000003,0.2476134033203125,0.9097945898437501
-0.43684853515625,0.09737302978515625,0.9301932177734376
-0.14264365234375,0.1079119140625,0.92650671875
-0.26081189453125,0.0711483642578125,0.9252778857421875
-0.18640966796875,-0.07222947998046875,0.8569547705078124
-0.013290761718750002,-0.11561046875,0.9985163330078125
-0.0466015625,-0.110708662109375,1.159001923828125
-0.218747890625,-0.0347306591796875,1.2914701220703124
-0.46481015625,0.015022678222656249,1.1032129052734374
-0.3466419140625,-0.0254172265625,0.94911724609375
-0.19078626953125,-0.05605351806640625,0.72104583984375
-0.1929745703125,-0.20212735595703124,0.838522275390625
-0.35272052734375,-0.16683434814453124,0.908319990234375
-0.3811684375,-0.13154134033203124,0.7650380615234375
-0.14167107421875,-0.2925656884765625,0.738249501953125
-0.2367405859375,-0.31535908935546875,0.8363103759765624
-0.3009307421875,-0.29673222412109374,0.8264797119140626
-0.4045103125,-0.23987126708984374,0.7409529345703125
-0.38967849609375,-0.23521455078125,0.68172318359375
-0.41545181640625,-0.13938423095703126,0.6106966357421875
-0.1044699609375,0.024581201171875,0.6623076220703125
-0.125380390625,-0.1406096826171875,0.7537327978515624
-0.08817927734375,-0.09820905517578125,0.9614055761718749
-0.1725504296875,-0.0567887890625,1.1769428857421875
-0.36196001953125,-0.134237333984375,1.2791817919921875
-0.3787369921875,-0.05311243408203125,1.1828412841796876
-0.36585033203125,0.09198104248046875,0.926015185546875
-0.22725794921875,0.18315464599609374,0.74660556640625
-0.17036212890625,0.1784979296875,0.710723642578125
-0.2114535546875,0.20570295654296875,0.8279543115234375
-0.2484115234375,0.091245771484375,0.9596852099609375
-0.27199654296875,0.1338914892578125,1.0582376171875
-0.15382830078125,0.0008074389648437498,1.1076367041015625
-0.19419029296875,0.04639424072265625,1.251410166015625
-0.1258666796875,0.09394176513671874,1.31973328125
-0.16598552734375,0.0123266845703125,1.3337419775390624
-0.3952708203125,0.04835496337890625,1.3177671484375
-0.47842625,-0.07468038330078125,1.141306728515625
-0.23503857421875,-0.100905048828125,1.07298361328125
-0.2309051171875,0.07874616455078125,1.182103984375
-0.226528515625,0.020659755859375,1.159984990234375
-0.1219763671875,0.1240878759765625,0.9815584374999999
-0.206104375,0.173596123046875,0.8446664404296875
-0.2192341796875,-0.0063001806640625,0.7674957275390625
-0.16647181640625,-0.20898988525390624,0.6750874853515625
-0.0791829296875,-0.195019736328125,0.7512751318359375
-0.174009296875,-0.17516741943359376,0.8825144970703125
-0.30068759765624997,-0.1621776318359375,1.0712632470703125
-0.5158705078125,-0.0994345068359375,1.155069658203125
-0.51465478515625,0.08021670654296875,1.2585373974609375
-0.30749564453125,0.267710810546875,1.16932412109375
-0.23139140625,0.15717507080078125,1.09461107421875
-0.25303126953125,-0.06046514404296875,0.99827056640625
-0.19516287109375,-0.23521455078125,0.9166760546875
-0.049276152343750004,-0.19869609130859375,0.74857169921875
-0.13875333984375,-0.25065524169921877,0.6308494970703125
-0.28464005859375,-0.20506843994140625,0.517059560546875
-0.323786328125,-0.163648173828125,0.3777098974609375
-0.25692158203125,-0.07271966064453125,0.3113529150390625
-0.0218008203125,0.0015427099609375003,0.4745419384765625
-0.0004041015625000019,0.0191892138671875,0.8267254785156251
-0.30360533203125,0.0878145068359375,1.2624696630859376
-0.42858162109375,0.0691876416015625,1.53109255859375
-0.1788721875,-0.13399224365234375,1.7333584716796875
-0.26810623046875,-0.06144550537109375,1.58712734375
-0.43490337890624997,0.08266760986328126,1.3892852294921876
-0.38141158203125003,-0.00752563232421875,1.0865007763671874
-0.40256515625,0.02776737548828125,0.9596852099609375
-0.22750109375,0.11599989501953126,0.8262339453125
-0.11006228515625,-0.02272123291015625,0.8648193017578125
-0.02301654296875,-0.06659240234375,0.8997181591796874
-0.08331638671875,-0.08105273193359375,0.938795048828125
-0.1453182421875,-0.18055940673828125,0.9795923046875
-0.08988128906250001,-0.0719843896484375,1.0174403613281249
-0.38457246093749997,-0.07271966064453125,1.0933822412109375
-0.32257060546875,-0.14722712158203125,1.130492998046875
-0.3972159765625,0.0309535498046875,1.1789090185546875
-0.547479296875,0.07678544189453125,0.95796484375
-0.323786328125,0.20668331787109376,0.8154202148437499
-0.25594900390624997,0.19884042724609374,0.68565544921875
-0.2756437109375,0.21746729248046875,0.7004014453125
-0.16501294921875,-0.0504164404296875,0.5959506396484375
-0.0111024609375,-0.13840386962890625,0.6286375976562499
0.02123576171875,-0.13056097900390626,0.7085117431640625
0.0112668359375,-0.18595139404296876,0.8525309716796875
-0.119544921875,-0.33888776123046876,1.0142453955078126
-0.2882872265625,-0.3768767626953125,1.108865537109375
-0.36196001953125,-0.05752406005859375,1.2157740087890625
-0.39478453125,0.1387932958984375,1.4271332861328125
-0.38627447265625,0.16305723876953124,1.3868275634765626
-0.2416034765625,0.13952856689453125,1.4222179541015625
-0.25983931640625,-0.0190448779296875,1.1425355615234376
-0.1482359765625,0.097127939453125,0.886692529296875
-0.22482650390625,0.13658748291015624,0.6972064794921875
-0.213885,-0.0038492773437499997,0.5487634521484375
0.0467659375,-0.124433720703125,0.61290853515625
0.02074947265625,-0.21732295654296874,0.8515479052734375
-0.07164544921875,-0.2450181640625,1.1125520361328125
-0.32864921874999997,-0.24624361572265624,0.987948369140625
-0.22531279296875,0.13952856689453125,0.9402696484374999
-0.2202067578125,0.1525183544921875,0.859166669921875
-0.249870390625,-0.11536537841796875,0.9975332666015625
-0.162338359375,-0.0121823486328125,1.2954023876953125
-0.35515197265625,0.1510478125,1.410175390625
-0.48012826171875,0.0436982470703125,1.2187232080078125
-0.4200715625,-0.055073156738281254,0.910286123046875
-0.2566784375,-0.060710234375,0.6382224951171875
-0.03322861328125,-0.14134495361328125,0.495432099609375
0.039957890625,-0.118551552734375,0.5222206591796875
0.027557519531249998,-0.02370159423828125,0.6984353125
-0.17717017578125,0.0887948681640625,0.6846723828125
-0.15966376953125,0.04149243408203125,0.65223119140625
-0.089395,-0.09575815185546875,0.87047193359375
-0.18835482421875,-0.17369687744140624,1.2192147412109375
-0.38092529296875,-0.10311086181640625,1.503075166015625
-0.4575158203125,-0.11046357177734376,1.3755222998046874
-0.39697283203125,0.063795654296875,1.02383029296875
-0.4045103125,-0.04085791748046875,0.7758517919921875
-0.2182616015625,-0.0494360791015625,0.743164833984375
-0.2902323828125,-0.13742350830078126,0.7389868017578125
-0.0762651953125,-0.15016820556640625,0.707774443359375
0.032177265625,-0.18448085205078124,0.7232577392578124
0.0803198828125,-0.147962392578125,0.8957858935546875
0.0919908203125,-0.1553151025390625,1.191443115234375
-0.0067258593750000005,-0.18742193603515625,1.400836259765625
-0.3252451953125,0.29834710205078124,1.333004677734375
-0.37144265625,0.35569823974609377,1.2988431201171875
-0.41447923828125,0.091245771484375,1.1125520361328125
-0.30166017578125,0.06281529296875,1.1120605029296875
-0.27977716796875,-0.027868129882812502,0.9041419580078125
-0.25205869140625,-0.030319033203124998,0.6372394287109375
-0.2552195703125,-0.03595611083984375,0.442346513671875
-0.0035649804687499995,-0.1131595654296875,0.473804638671875
-0.040766093749999996,-0.20800952392578126,0.620281533203125
-0.1939471484375,-0.27761517822265624,0.7778179248046875
-0.17182099609375,-0.09673851318359375,0.94321884765625
-0.16938955078125,0.0701680029296875,0.944693447265625
-0.04003666015625,0.127519140625,0.8633447021484375
-0.12246265625,0.1976149755859375,0.8773533984374999
-0.2542469921875,0.22874144775390626,1.0368559228515626
-0.28585578125,0.28241623046875,1.152120458984375
-0.290718671875,0.269671533203125,1.10837400390625
-0.39575710937499997,0.1392834765625,0.98450763671875
-0.2736985546875,-0.05360261474609375,0.7960046533203124
-0.0889087109375,-0.042083369140625,0.828200078125
-0.09061072265625,0.0486000537109375,0.87931953125
-0.2435486328125,0.040266982421875,0.912252255859375
-0.17425244140625,-0.09012107421875,0.8648193017578125
-0.13875333984375,-0.0994345068359375,0.8603955029296875
-0.16695810546875,-0.0768861962890625,0.8997181591796874
-0.22093619140625,0.0010525292968750002,0.934862783203125
-0.20197091796875,-0.096983603515625,1.0191607275390624
-0.38238416015625,0.0917359521484375,0.9783634716796875
-0.3889490625,-0.14134495361328125,0.8535140380859375
-0.203186640625,-0.17247142578125,0.7778179248046875
-0.152612578125,-0.02468195556640625,0.9442019140625
-0.12465095703125,-0.006790361328125,1.1297556982421875
-0.26956509765625,-0.01978014892578125,1.2831140576171876
-0.27345541015625,0.07629526123046874,1.3062161181640626
-0.22239505859375,0.07776580322265625,1.1427813281249999
-0.23990146484375,0.189281904296875,1.1238572998046874
-0.17571130859375,0.0348749951171875,1.0879753759765625
-0.199296328125,0.0294830078125,1.0948568408203125
-0.26664736328125,0.12188206298828125,1.1835785839843749
-0.2454937890625,-0.09967959716796874,1.16932412109375
-0.201241484375,-0.20261753662109375,1.11230626953125
-0.44730375,-0.18938265869140625,0.9646005419921875
-0.3719289453125,-0.18423576171875,0.7534870312499999
-0.12440781249999999,-0.21046042724609376,0.5846453759765625
-0.1141957421875,-0.25996867431640625,0.702367578125
-0.2800203125,-0.2553119580078125,0.8815314306640625
-0.22288134765625,-0.10164031982421876,0.981066904296875
-0.067025703125,-0.069533486328125,0.974185439453125
-0.1025248046875,0.05619785400390625,1.0914161083984375
-0.26056875,0.0123266845703125,1.1617053564453126
-0.2347954296875,-0.006790361328125,1.180629384765625
-0.1764407421875,0.15962597412109375,1.1803836181640626
-0.203186640625,0.0294830078125,0.9591936767578125
-0.11881548828124999,0.03659062744140625,0.8063268505859374
-0.15723232421875,-0.20359789794921876,0.7443936669921875
-0.117599765625,-0.21732295654296874,0.8043607177734375
-0.24306234375,-0.1739419677734375,0.896523193359375
-0.24330548828125,-0.1082577587890625,0.9754142724609375
-0.30652306640625,-0.17712814208984376,1.0073639306640625
-0.321841171875,-0.1121792041015625,0.91372685546875
-0.18057419921875,0.0397768017578125,0.7999369189453125
-0.1326747265625,-0.0023787353515625003,0.81935248046875
-0.0996070703125,-0.048945898437499996,0.764792294921875
-0.02009880859375,0.0883046875,0.700892978515625
0.07278240234375,0.01453249755859375,0.7529954980468749
0.01880431640625,-0.06389640869140625,1.034152490234375
-0.14750654296875,0.00570924560546875,1.317275615234375
-0.32864921874999997,0.052031318359375,1.4173026220703124
-0.3884627734375,0.00570924560546875,1.229782705078125
-0.25400384765625,0.1074217333984375,0.9090572900390625
-0.24136033203125,0.04124734375,0.75643623046875
-0.18738224609375,0.0451687890625,0.786419755859375
-0.16112263671875,-0.06977857666015624,0.89406552734375
-0.12124693359375,0.11992134033203125,1.039067822265625
-0.090367578125,0.03144373046875,1.08084814453125
-0.138996484375,-0.08840544189453126,0.998762099609375
-0.08988128906250001,0.1221271533203125,1.006626630859375
-0.2416034765625,-0.04968116943359375,0.9154472216796875
0.03314984375,-0.01928996826171875,0.8825144970703125
-0.213885,-0.03840701416015625,1.0053977978515625
-0.18738224609375,0.02580665283203125,1.103458671875
-0.29825615234375,-0.05017135009765625,1.05332228515625
-0.33570041015625,-0.00262382568359375,1.0280083251953125
-0.20683380859375,0.06551128662109375,0.9896687353515625
-0.17425244140625,-0.02027032958984375,0.9464138134765625
-0.2163164453125,-0.10188541015625,0.9262609521484375
-0.16841697265625,-0.12614935302734376,0.993355234375
-0.12659611328125,-0.19477464599609376,0.9808211376953125
-0.15747546875,-0.07615092529296875,1.042017021484375
-0.0461152734375,-0.08056255126953125,0.9847534033203125
-0.17717017578125,-0.0641414990234375,0.86064126953125
0.00227048828125,-0.12663953369140624,0.8498275390625
-0.2659179296875,-0.16389326416015626,0.8648193017578125
-0.12562353515625,-0.2092349755859375,0.97664310546875
-0.21899103515625,-0.18815720703125,1.053813818359375
-0.43198564453125,-0.07713128662109375,0.9795923046875
-0.23892888671875,-0.045024453125,0.763809228515625
-0.26251390625,0.042227705078125,0.7203085400390625
-0.0016198242187499996,0.06060947998046875,0.840488408203125
-0.31333111328125,0.148106728515625,0.9523122119140625
-0.19856689453125,0.1554594384765625,0.9429730810546875
-0.11468203125,0.122617333984375,1.0049062646484375
-0.10276794921875,0.16354741943359374,1.0053977978515625
-0.2022140625,0.05080586669921875,0.9518206787109375
-0.05462533203125,-0.0396324658203125,0.8884128955078126
-0.16720125,-0.06267095703125,0.9124980224609375
-0.21583015625000002,-0.0886505322265625,0.9311762841796875
-0.22944625,-0.07222947998046875,1.0383305224609374
-0.191515703125,-0.18742193603515625,1.0579918505859376
-0.26421591796875,0.00816014892578125,1.1422897949218749
-0.34056330078125,-0.00997653564453125,1.06708521484375
-0.2182616015625,-0.138158779296875,1.068559814453125
-0.15334201171875,0.026541923828125,1.0820769775390624
-0.29096181640625,-0.01389798095703125,0.96288017578125
-0.0694571484375,-0.03644629150390625,0.8245135791015625
-0.070916015625,-0.04330882080078125,0.7846993896484376
-0.22336763671875,0.09639266845703125,0.8323781103515625
-0.070916015625,-0.0219859619140625,0.7955131201171874
-0.034930625,-0.0646316796875,0.92748978515625
-0.28901666015625,0.14516564453125,0.9360916162109375
-0.181789921875,-0.11732610107421874,0.779538291015625
-0.019369375,-0.09428760986328125,0.75840236328125
-0.205131796875,0.1113431787109375,0.885709462890625
-0.26713365234374997,-0.05605351806640625,0.9407611816406249
-0.28196546875,0.036345537109375,1.0353813232421876
-0.221665625,0.0765403515625,1.00220283203125
-0.08672041015625,-0.03987755615234375,0.959439443359375
-0.19662173828125,0.01208159423828125,1.0457035205078125
-0.10276794921875,0.09296140380859375,0.9975332666015625
-0.13729447265625,0.0348749951171875,0.861132802734375
-0.02058509765625,-0.08105273193359375,0.716622041015625
-0.08915185546875,-0.023456503906250002,0.663044921875
-0.16355408203125,-0.09575815185546875,0.532788623046875
-0.0334717578125,-0.1062970361328125,0.506245830078125
0.012239414062499999,-0.068553125,0.5885776416015625
0.016616015625,-0.02762303955078125,0.8262339453125
-0.05948822265625,0.0515411376953125,1.100017939453125
-0.22944625,0.1780077490234375,1.3647085693359375
-0.34834392578125,0.27628897216796877,1.449498046875
-0.25303126953125,0.22089855712890624,1.2767241259765625
-0.17279357421875,0.19540916259765626,1.156052724609375
-0.08866556640625001,0.08242251953125,1.088221142578125
-0.022287109375,0.20129133056640625,1.2408422021484375
-0.31187224609374997,0.09296140380859375,1.071509013671875
-0.08988128906250001,0.016738310546875,0.9577190771484375
-0.19710802734375,-0.046740085449218746,0.827708544921875
-0.2630001953125,-0.1376685986328125,0.7035964111328125
-0.0334717578125,-0.13497260498046876,0.5241867919921875
0.06111146484375,-0.087179990234375,0.5920183740234375
-0.19613544921875,0.10668646240234375,1.1218911669921874
-0.282938046875,-0.05703387939453125,1.167849521484375
-0.21023783203125002,0.0378160791015625,1.112797802734375
-0.13583560546875,-0.0210056005859375,0.837539208984375
-0.08088494140625,-0.11683592041015625,0.5915268408203125
0.007376523437500001,-0.1700205224609375,0.663044921875
-0.018396796875,-0.07860182861328124,0.8952943603515625
-0.04100923828125,-0.011201987304687501,1.012525029296875
-0.1365650390625,-0.04968116943359375,1.2157740087890625
-0.1477496875,0.0789912548828125,1.320224814453125
-0.378250703125,0.14639109619140625,1.24403716796875
-0.30846822265625,0.10668646240234375,1.0112961962890625
-0.1375376171875,0.1505576318359375,0.9877026025390625
-0.1754681640625,0.0476196923828125,1.0009739990234374
-0.13024328125,0.10815700439453126,1.144255927734375
-0.1166271875,0.0162481298828125,1.1420440283203126
-0.2659179296875,0.024581201171875,1.108865537109375
-0.299471875,0.19687970458984375,0.851793671875
-0.1433730859375,-0.02174087158203125,0.6298664306640624
0.092477109375,-0.08056255126953125,0.64633279296875
0.07278240234375,-0.0464949951171875,0.9916348681640625
-0.23917203125,-0.107767578125,1.12017080078125
-0.22725794921875,-0.0033590966796874996,1.1553154248046875
-0.140941640625,0.140263837890625,0.9835245703125
-0.183735078125,0.08634396484375,0.8584293701171875
-0.10665826171875001,-0.04821062744140625,0.9601767431640625
-0.105928828125,0.140263837890625,1.2147909423828125
-0.42371873046874997,-0.01095689697265625,1.215036708984375
-0.22944625,0.11501953369140624,1.0855177099609374
-0.1375376171875,0.16844922607421875,0.9046334912109375
-0.0694571484375,0.03708080810546875,0.7802755908203125
-0.1501811328125,-0.0229663232421875,0.7242408056640625
-0.04465640625,-0.04575972412109375,0.7679872607421875
-0.05900193359375,-0.09722869384765626,0.7947758203124999
-0.02836572265625,-0.14575657958984375,0.8127167822265625
0.03314984375,0.069677822265625,0.945676513671875
-0.325731484375,-0.04968116943359375,1.0437373876953124
-0.296554140625,-0.1170810107421875,0.99630443359375
-0.19662173828125,-0.0337502978515625,0.901438525390625
-0.04684470703125,0.140263837890625,0.87637033203125
-0.03687578125,0.15619470947265626,1.103950205078125
-0.08720669921875,0.2191829248046875,1.3357081103515624
-0.07748091796875001,0.17678229736328124,1.63333146484375
-0.09839134765625,-0.0016434643554687498,1.6321026318359375
-0.244034921875,-0.0268877685546875,1.3337419775390624
-0.32548833984375003,0.09198104248046875,0.9311762841796875
-0.30700935546875,0.12482314697265626,0.764792294921875
-0.2591098828125,-0.170510703125,0.71318130859375
-0.16720125,-0.23153819580078125,0.6627991552734375
-0.08088494140625,-0.0670825830078125,0.5807131103515625
0.0589231640625,-0.08350363525390625,0.4873218017578125
0.05041310546875,-0.16242272216796874,0.568670546875
0.0297458203125,-0.029338671875,0.8112421826171875
-0.2435486328125,0.08266760986328126,1.0850261767578124
-0.33764556640625,0.01257177490234375,1.256325498046875
-0.3553951171875,-0.0053198193359375,1.2374014697265625
-0.2202067578125,0.07580508056640625,0.98254150390625
-0.007455292968749999,0.0182088525390625,0.8505648388671875
0.03874216796875,-0.0190448779296875,1.0083469970703125
-0.0451426953125,0.06158984130859375,1.3022838525390625
-0.1482359765625,0.08462833251953125,1.537482490234375
-0.35855599609375,0.0564429443359375,1.457362578125
-0.15528716796875,0.222614189453125,1.230765771484375
-0.3057936328125,0.0535018603515625,0.9238032861328125
-0.29436583984375,-0.17075579345703126,0.6863927490234375
-0.07164544921875,-0.247959248046875,0.636010595703125
-0.04441326171875,-0.12026718505859375,0.6003744384765625
-0.18495080078125,-0.21291133056640624,0.5900522412109375
-0.10908970703125,-0.236194912109375,0.5254156249999999
0.02536921875,-0.17859868408203125,0.651739658203125
0.05235826171875,-0.17320669677734374,0.9395323486328125
-0.18203306640625,-0.281291533203125,1.2236385400390626
-0.3631757421875,0.036345537109375,1.472600107421875
-0.5644994140625,0.158890703125,1.2010280126953126
-0.42371873046874997,0.14050892822265626,0.8289373779296875
-0.13583560546875,0.02041466552734375,0.4526687109375
0.11508955078125,-0.0562986083984375,0.387294794921875
0.1007440234375,-0.11438501708984375,0.47577077148437497
0.1143601171875,-0.09085634521484375,0.86064126953125
0.0389853125,-0.05556333740234375,1.2863090234375
-0.42712275390625,-0.0533575244140625,1.3558609716796874
-0.51270962890625,-0.18399067138671876,1.2526389990234374
-0.072861171875,0.00816014892578125,0.91569298828125
0.1245721875,0.10521592041015625,0.8048522509765625
0.090531953125,-0.12026718505859375,0.8363103759765624
-0.2299325390625,-0.02321141357421875,1.0702801806640625
-0.20634751953125,0.27824969482421874,1.2430541015625
-0.13145900390625,0.1103628173828125,1.4069804248046875
-0.30700935546875,0.10178465576171875,1.517821162109375
-0.5401849609375,0.21354584716796876,1.281885224609375
-0.27442798828125,-0.08301345458984374,0.769707626953125
-0.055354765624999996,-0.2464887060546875,0.4784742041015625
0.0754569921875,-0.1430605859375,0.4932202001953125
0.08785736328125,0.00276816162109375,0.6436293603515625
-0.05170759765625,0.16354741943359374,0.8884128955078126
-0.36390517578125,0.10595119140625,1.041033955078125
-0.29290697265625,-0.1553151025390625,0.9385492822265625
0.04068732421875,-0.29134023681640625,0.99237216796875
-0.08331638671875,-0.375406220703125,1.0206353271484374
-0.28585578125,-0.12761989501953125,0.8731753662109375
-0.26616107421875,-0.20114699462890626,0.68172318359375
-0.12659611328125,-0.087179990234375,0.581941943359375
-0.15285572265625,0.0682072802734375,0.6156119677734375
-0.10033650390625,-0.19722554931640626,0.7758517919921875
-0.070916015625,-0.124433720703125,0.7665126611328125
-0.098148203125,0.04345315673828125,0.666485654296875
-0.15771861328125,-0.177373232421875,0.5118984619140625
-0.009643593750000002,-0.2293323828125,0.5305767236328125
-0.02398912109375,-0.19183356201171875,0.6642737548828125
-0.030067734375000002,0.09541230712890625,0.8820229638671875
-0.1939471484375,0.22359455078125,1.193409248046875
-0.18106048828125,0.108892275390625,1.4723543408203126
-0.33521412109375,-0.1033559521484375,1.4639982763671875
-0.17911533203125,0.0008074389648437498,1.251410166015625
-0.0694571484375,0.2191829248046875,1.1621968896484376
-0.23163455078125,0.24981921630859374,1.154578125
-0.33521412109375,0.04198261474609375,1.1002637060546876
-0.23357970703125,-0.11438501708984375,0.930930517578125
-0.08039865234375,-0.07664110595703125,0.65812958984375
-0.055354765624999996,-0.22467566650390625,0.5492549853515625
-0.02058509765625,-0.247959248046875,0.5689163134765625
0.0326635546875,-0.2376654541015625,0.6741044189453125
-0.12756869140625,-0.1964902783203125,0.8151744482421874
-0.11589775390625,-0.0464949951171875,0.942727314453125
-0.31308796875,-0.0945327001953125,1.2329776708984375
-0.41934212890625,-0.0055649096679687505,1.2138078759765625
-0.36730919921875,0.13315621826171875,0.9048792578125
-0.011345605468749999,-0.06242586669921875,0.647807392578125
0.1610438671875,-0.035711020507812496,0.6598499560546875
0.143051171875,-0.02615249755859375,0.94518498046875
-0.2552195703125,-0.17712814208984376,1.2752495263671875
-0.4789125390625,-0.30604565673828127,1.2093840771484374
-0.02593427734375,-0.26634102294921874,0.81738634765625
0.11168552734375001,-0.1665892578125,0.5718655126953125
0.13502740234375,-0.17908886474609376,0.6613245556640625
0.1561809765625,-0.104826494140625,1.110831669921875
-0.23892888671875,-0.05115171142578125,1.524702626953125
-0.45168035156249997,-0.12320826904296875,1.362988203125
-0.335457265625,-0.28545806884765623,1.0865007763671874
0.0156434375,-0.17908886474609376,0.8466325732421875
-0.05948822265625,-0.1366882373046875,0.6917996142578124
-0.1472633984375,0.11354899169921875,0.663044921875
-0.190543125,-0.026397587890625,0.5875945751953124
0.0545465625,-0.21389169189453125,0.6908165478515624
0.1094972265625,-0.17320669677734374,0.930930517578125
-0.22750109375,-0.20408807861328124,1.1617053564453126
-0.19856689453125,0.07261890625,1.0589749169921876
-0.2396583203125,0.033404453125,0.8780906982421874
-0.0777240625,-0.19673536865234376,0.7355460693359375
0.06111146484375,-0.1180613720703125,0.9056165576171875
-0.18981369140625,0.048109873046875,1.1361456298828125
-0.14847912109375,0.1691844970703125,1.193409248046875
-0.339347578125,0.12433296630859375,1.1835785839843749
-0.44462916015625,0.0250713818359375,1.137374462890625
-0.20537494140625,-0.00581,1.0621698828125
-0.0791829296875,0.18021356201171876,0.9262609521484375
-0.2523018359375,0.1299700439453125,0.9410069482421874
-0.19248828125,-0.010711806640625,0.852285205078125
-0.19953947265625,-0.05874951171875,0.736283369140625
-0.107873984375,-0.013407800292968751,0.750046298828125
-0.15723232421875,-0.089140712890625,1.0216183935546874
-0.12951384765625001,0.028257556152343752,1.1567900244140625
-0.20099833984375,0.2868278564453125,1.21257904296875
-0.2231244921875,0.07923634521484375,1.149171259765625
-0.14361623046875,-0.175412509765625,1.0997721728515626
-0.25497642578125,0.00987578125,1.1400778955078126
-0.44292714843750003,-0.05874951171875,1.2654188623046876
-0.47818310546875,-0.173451787109375,1.1572815576171875
-0.15236943359375,-0.0043394580078125,1.0412797216796874
-0.14507509765624998,-0.0719843896484375,0.911269189453125
-0.14945169921875,-0.296977314453125,0.987948369140625
-0.380195859375,-0.26634102294921874,0.8589209033203125
-0.2386857421875,-0.2555570483398438,0.5824334765625
-0.003808124999999999,-0.23693018310546876,0.4538975439453125
-0.0305540234375,-0.28888933349609375,0.519025693359375
-0.05462533203125,-0.2611941259765625,0.612417001953125
-0.07845349609375,-0.29232059814453126,0.7242408056640625
-0.19613544921875,-0.32173143798828124,0.9007012255859375
-0.21193984375,-0.3307997802734375,0.8810398974609375
-0.0918264453125,-0.059484782714843754,1.00515203125
-0.249870390625,0.15815543212890626,1.17325638671875
-0.32694720703125,0.17237067138671874,1.1037044384765624
-0.2099946875,0.0358553564453125,0.8567090039062499
-0.034930625,-0.09771887451171875,0.5942302734375
-0.02836572265625,-0.09012107421875,0.5310682568359375
0.020020039062499998,-0.05115171142578125,0.556382216796875
0.0987988671875,-0.03889719482421875,0.6824604833984375
-0.04830357421875,-0.057769150390625,0.9665666748046875
-0.41253408203124997,-0.16487362548828124,1.023338759765625
-0.07796720703125,-0.20310771728515625,0.8471241064453126
-0.0247185546875,0.036345537109375,0.923065986328125
-0.22190876953125,0.2875631274414063,1.05725455078125
-0.372415234375,0.32163068359375,1.20471451171875
-0.51951767578125,0.04884514404296875,1.0503730859375
-0.3262177734375,0.1157548046875,0.8948028271484375
-0.158448046875,-0.16487362548828124,0.6927826806640625
0.021965195312499998,-0.08227818359375,0.6313410302734375
-0.00016095703124999888,-0.09012107421875,0.7198170068359375
-0.0091573046875,-0.122472998046875,0.9218371533203125
-0.084532109375,0.05105095703125,1.09657720703125
-0.19759431640625,-0.11144393310546875,1.2290454052734374
0.123599609375,0.0250713818359375,1.4659644091796875
-0.10471310546875,0.12384278564453124,1.773418427734375
-0.46748474609375,0.33756155517578124,1.757689365234375
-0.49666208984375,0.10325519775390625,1.59990720703125
-0.4701593359375,0.2074185888671875,1.4477776806640625
-0.5489381640625,0.23462361572265625,1.226833505859375
-0.54383212890625,0.02286556884765625,1.095102607421875
-0.1608794921875,-0.123453359375,0.824759345703125
0.01685916015625,-0.1651187158203125,0.6962234130859375
0.03096154296875,-0.13595296630859374,0.6217561328125
0.02609865234375,-0.13129625,0.7478343994140625
0.035095,-0.10899302978515625,1.0196522607421874
-0.24136033203125,-0.15654055419921875,1.37576806640625
-0.19662173828125,-0.02027032958984375,1.523719560546875
-0.14458880859375,-0.010711806640625,1.7365534375
-0.23795630859375,-0.3082514697265625,1.90662392578125
-0.4225030078125,-0.05605351806640625,1.591059609375
-0.52340798828125,-0.18104958740234375,1.246494833984375
-0.34202216796875,-0.0474753564453125,0.9429730810546875
-0.2231244921875,-0.18399067138671876,0.8717007666015625
-0.04295439453125,-0.06536695068359374,1.0110504296875
-0.11298001953125,-0.31928053466796874,0.97369390625
0.0161297265625,-0.312663095703125,1.0395593554687501
-0.16744439453124998,-0.33153505126953126,1.0638902490234374
-0.030067734375000002,-0.281291533203125,0.7581565966796875
-0.07115916015625,-0.2876638818359375,0.5797300439453125
-0.12635296875,-0.28300716552734373,0.5104238623046875
-0.21607330078125,-0.2406065380859375,0.513618828125
-0.2912049609375,-0.181294677734375,0.44013461425781253
-0.30117388671875,-0.16144236083984376,0.4189986865234375
-0.34493990234375,-0.087179990234375,0.416786787109375
-0.18835482421875,0.07531489990234375,0.5694078466796875
-0.2795340234375,0.19393862060546874,0.7881401220703125
-0.3072525,0.28168095947265626,0.8667854345703125
-0.21558701171875,0.2858474951171875,0.8490902392578125
-0.23795630859375,0.20864404052734375,0.765775361328125
-0.2007551953125,0.1887917236328125,0.7964961865234375
-0.09912078125,0.108892275390625,0.9734481396484375
-0.02885201171875,0.16477287109375,1.1073909375
0.08348076171875,0.04443351806640625,1.3081822509765626
-0.255705859375,-0.004829638671875,1.5972037744140626
-0.50954875,0.2436919580078125,1.3180129150390625
-0.44803318359375,-0.023456503906250002,0.821810146484375
-0.36390517578125,-0.2249207568359375,0.5684247802734375
-0.268349375,-0.2604588549804687,0.4430838134765625
-0.0052669921875,-0.13497260498046876,0.5787469775390625
0.009078535156249998,-0.110708662109375,0.7498005322265625
-0.20926525390625,0.06257020263671875,0.881777197265625
0.0008116210937499993,-0.177373232421875,0.8889044287109376
0.0715666796875,-0.09404251953125001,1.0019570654296874
0.06427234375,0.05962911865234375,1.0978060400390626
-0.03955037109375,0.22383964111328125,1.2791817919921875
-0.37144265625,0.2083989501953125,1.2899955224609374
-0.2960678515625,0.15300853515625001,1.1449932275390624
-0.12416466796875,0.036345537109375,1.2447744677734376
-0.389921640625,0.1358522119140625,1.3027753857421875
-0.4511940625,0.18438009765625,1.1997991796875
-0.3544225390625,-0.04085791748046875,0.92650671875
-0.2999581640625,-0.09526797119140624,0.694503046875
-0.17765646484375,-0.16634416748046876,0.578009677734375
-0.13145900390625,-0.1866866650390625,0.603569404296875
0.04263248046875,-0.1116890234375,0.6392055615234375
-0.03687578125,-0.053847705078125,0.79969115234375
0.01977689453125,-0.18497103271484375,1.04939001953125
-0.16501294921875,-0.13595296630859374,1.2968769873046875
-0.3242726171875,-0.06340622802734375,1.3688866015625
-0.37265837890625,-0.068553125,1.016948828125
-0.13802390625,0.03364954345703125,0.8500733056640625
-0.1064151171875,0.1280093212890625,0.8171405810546875
-0.32743349609375,0.130460224609375,0.8102591162109375
-0.27831830078124997,-0.1298257080078125,0.8235305126953125
0.051628828125,-0.11879664306640625,1.0624156494140624
-0.059245078125,-0.0651218603515625,1.363479736328125
-0.23260712890625002,-0.21585241455078125,1.500125966796875
-0.051950742187499996,-0.18497103271484375,1.370361201171875
-0.213885,-0.200901904296875,0.9670582080078125
-0.3067662109375,-0.1043363134765625,0.69351998046875
-0.17692703125,-0.28545806884765623,0.7498005322265625
0.012239414062499999,-0.1464918505859375,0.9483799462890625
-0.16987583984375,0.1172253466796875,1.141306728515625
-0.34421046875,0.0946770361328125,1.1223827001953124
-0.360744296875,0.16011615478515626,0.9926179345703126
-0.2941226953125,-0.1033559521484375,0.8989808593749999
0.0384990234375,0.0456589697265625,0.9972875
-0.21947732421875,-0.083258544921875,1.2194605078125
0.012725703124999998,-0.030319033203124998,1.422463720703125
-0.1550440234375,-0.10065995849609374,1.542397822265625
-0.29169125,-0.0817880029296875,1.3902682958984376
-0.22725794921875,-0.23987126708984374,1.1415524951171876
-0.14507509765624998,-0.24575343505859376,1.07888201171875
0.0783747265625,-0.13325697265625,1.1762055859375
-0.07893978515625,-0.038161923828125,1.3145721826171874
-0.48353228515625,-0.06389640869140625,1.3322673779296874
