ax,ay,az
-0.230418828125,0.02874773681640625,1.0722463134765625
-0.29485212890625,0.01551285888671875,1.034152490234375
-0.26251390625,0.0378160791015625,1.03661015625
-0.30944080078125,0.075559990234375,1.0444746875
-0.20829267578125,0.00472888427734375,0.9469053466796875
-0.234309140625,0.04100225341796875,0.9778719384765625
-0.3072525,-0.0092412646484375,1.002694365234375
-0.21072412109375,0.04247279541015625,1.0078554638671875
-0.29485212890625,-0.0523771630859375,1.0211268603515624
-0.3369161328125,0.036345537109375,1.1014925390624999
-0.31308796875,-0.07026875732421875,0.9606682763671874
-0.298499296875,0.00423870361328125,0.944693447265625
-0.267376796875,-0.0170841552734375,0.995812900390625
-0.294608984375,0.00399361328125,1.081339677734375
-0.26713365234374997,-0.0011532836914062497,1.040542421875
-0.30311904296875003,0.0037485229492187503,1.0149826953125
-0.26056875,-0.00801581298828125,0.9972875
-0.245980078125,0.03217900146484375,0.9439561474609375
-0.2377131640625,-0.05899460205078125,0.9609140429687499
-0.2678630859375,0.0201695751953125,0.9717277734375
-0.273212265625,0.0294830078125,0.98942296875
-0.25108611328125,0.0319339111328125,0.970253173828125
-0.25935302734375,-0.0082609033203125,0.886692529296875
-0.23698373046875,0.06281529296875,0.943710380859375
-0.3067662109375,0.00791505859375,0.98450763671875
-0.28220861328125,0.02531647216796875,1.0604495166015624
-0.24768208984375,0.08217742919921875,1.030220224609375
-0.26470220703125,-0.0229663232421875,0.9599309765625
-0.2542469921875,-0.008996174316406251,0.9056165576171875
-0.218747890625,0.0044837939453125,0.867031201171875
-0.2542469921875,-0.0259074072265625,0.9097945898437501
-0.27588685546875,-0.01095689697265625,1.0250591259765625
-0.3320532421875,0.014777587890624999,1.0373474560546876
-0.23139140625,0.00472888427734375,0.99827056640625
-0.2644590625,0.055952763671875,0.9429730810546875
-0.290718671875,0.0064445166015625,0.9183964208984375
-0.25594900390624997,0.01404231689453125,0.936828916015625
-0.29679728515625,0.0686974609375,0.9695158740234375
-0.23747001953125,-0.010711806640625,0.98647376953125
-0.300444453125,-0.013162709960937501,0.99630443359375
-0.220693046875,0.024091020507812498,0.9795923046875
-0.2523018359375,-0.048455717773437504,0.9532952783203125
-0.25692158203125,0.04002189208984375,0.99827056640625
-0.2722396875,0.04712951171875,1.0245675927734375
-0.362689453125,0.01012087158203125,1.034152490234375
-0.29242068359375,-0.01291761962890625,1.0393135888671874
-0.33715927734375,0.00325834228515625,0.9614055761718749
-0.21510072265625,0.026541923828125,0.9021758251953125
-0.249870390625,-0.02149578125,0.8825144970703125
-0.31187224609374997,7.216796875000007e-05,1.0157199951171876
-0.31746457031249997,0.01183650390625,1.0275167919921875
-0.33667298828125003,0.00399361328125,1.0543053515625
-0.30944080078125,0.08168724853515624,1.0412797216796874
-0.27831830078124997,-0.02860340087890625,0.916184521484375
-0.32086859375,0.01845394287109375,0.9410069482421874
-0.29825615234375,0.06992291259765625,0.9650920751953125
-0.27491427734375,-0.01585870361328125,0.943710380859375
-0.3991611328125,-0.00311400634765625,0.97074470703125
-0.24233291015625,0.0172284912109375,0.97271083984375
-0.3033621875,-0.0082609033203125,0.9473968798828125
-0.26227076171875,-0.01389798095703125,0.9469053466796875
-0.29193439453125003,0.05521749267578125,0.992863701171875
-0.27102396484375,0.010611052246093749,1.0398051220703124
-0.34056330078125,0.03708080810546875,1.04349162109375
-0.2955815625,0.030708459472656248,1.041033955078125
-0.33132380859375,0.0976181201171875,1.1022298388671874
-0.300444453125,-0.04330882080078125,1.0270252587890625
-0.29922873046875,0.0142874072265625,1.0117877294921875
-0.3067662109375,0.08634396484375,0.994829833984375
-0.30311904296875003,-0.04379900146484375,1.0501273193359375
-0.33521412109375,0.02727719482421875,1.1447474609375
-0.33618669921875,-0.00948635498046875,1.118696201171875
-0.2931501171875,-0.0097314453125,1.05528841796875
-0.31746457031249997,0.0495804150390625,0.990897568359375
-0.22628537109375,0.04002189208984375,1.0110504296875
-0.36682291015625,-0.0602200537109375,1.020389560546875
-0.31478998046875,0.048109873046875,1.1218911669921874
-0.3067662109375,0.028502646484374998,1.0373474560546876
-0.30068759765624997,-0.01585870361328125,1.077407412109375
-0.26056875,0.05374695068359375,1.12410306640625
-0.3816547265625,-0.01144707763671875,1.14573052734375
-0.335457265625,0.013552136230468751,1.1715360205078125
-0.22434021484375,-0.044534272460937496,1.103950205078125
-0.31819400390625,-0.0474753564453125,0.9965502001953125
-0.21266927734375,-0.06634731201171876,0.8628531689453125
-0.28998923828125,-0.05850442138671875,0.8736668994140625
-0.251815546875,-0.00777072265625,1.008592763671875
-0.30652306640625,-0.02713285888671875,1.0761785791015626
-0.30895451171875,-0.0053198193359375,1.0899415087890625
-0.29047552734375,-0.0366913818359375,1.049881552734375
-0.314060546875,0.00766996826171875,0.9582106103515625
-0.2484115234375,-0.03595611083984375,0.9454307470703125
-0.2834243359375,0.0103659619140625,0.96484630859375
-0.27929087890625,0.0294830078125,0.93732044921875
-0.27442798828125,0.0294830078125,0.974185439453125
-0.315033125,-0.00997653564453125,1.0412797216796874
-0.298499296875,0.02727719482421875,1.0889584423828125
-0.23260712890625002,0.015022678222656249,1.0110504296875
-0.27053767578125,0.063795654296875,0.93338818359375
-0.26761994140625,0.05497240234375,0.9166760546875
-0.27394169921875,0.02335574951171875,0.995812900390625
-0.30871136718750003,0.05864875732421875,1.1174673681640626
-0.23017568359375,0.011346323242187501,1.077407412109375
-0.2999581640625,0.024091020507812498,0.9795923046875
-0.28318119140625,0.0358553564453125,0.9424815478515625
-0.19905318359375002,0.04982550537109375,0.9847534033203125
-0.29971501953125,0.024581201171875,1.0346440234375
-0.24914095703125,-0.02419177490234375,1.119187734375
-0.33715927734375,0.03144373046875,1.099034873046875
-0.35126166015625,0.01208159423828125,1.0284998583984375
-0.29387955078125,-0.03522083984375,0.902421591796875
-0.2411171875,-0.0268877685546875,0.8338527099609375
-0.269321953125,-0.0602200537109375,0.8073099169921875
-0.27272597656249997,-0.0121823486328125,0.810013349609375
-0.251815546875,-0.02027032958984375,0.8318865771484375
-0.3213548828125,0.0008074389648437498,0.839505341796875
-0.28415376953125,0.004973974609375,0.897506259765625
-0.23844259765625,0.0740894482421875,0.9154472216796875
-0.2960678515625,-0.01953505859375,0.91176072265625
-0.3194097265625,0.0142874072265625,0.9233117529296875
-0.26616107421875,-0.0298288525390625,0.846386806640625
-0.26616107421875,-0.057278969726562504,0.8141913818359375
-0.2425760546875,0.06257020263671875,0.883251796875
-0.18981369140625,0.00227798095703125,0.86653966796875
-0.2668905078125,0.05129604736328125,0.8751414990234375
-0.2299325390625,0.02335574951171875,0.9341254833984375
-0.27929087890625,0.0843832421875,0.969270107421875
-0.28026345703125,0.00521906494140625,0.9046334912109375
-0.25108611328125,0.03928662109375,0.9164302880859375
-0.29242068359375,0.02874773681640625,0.901438525390625
-0.27880458984375,-0.023456503906250002,0.900455458984375
-0.24865466796875,0.0064445166015625,0.8648193017578125
-0.338375,-0.00777072265625,0.8771076318359375
-0.267376796875,-0.01879978759765625,0.915201455078125
-0.29387955078125,0.0348749951171875,0.9277355517578125
-0.244034921875,0.0133070458984375,0.932896650390625
-0.29169125,0.03512008544921875,0.8751414990234375
-0.252788125,-0.012427438964843749,0.917167587890625
-0.34299474609375,-0.016593974609375,0.9247863525390625
-0.247925234375,0.023845930175781252,0.8893959619140624
-0.26081189453125,0.0623251123046875,0.933879716796875
-0.2698082421875,-0.04477936279296875,0.9424815478515625
-0.3301080859375,0.01894412353515625,0.9803296044921875
-0.3213548828125,-0.010711806640625,0.9638632421875
-0.2523018359375,0.03462990478515625,0.99630443359375
-0.25789416015625,0.0407571630859375,0.915201455078125
-0.30141703125,-0.02762303955078125,0.9306847509765624
-0.21266927734375,0.00791505859375,0.9778719384765625
-0.3408064453125,0.01183650390625,0.9424815478515625
-0.32208431640625,0.03315936279296875,0.9562444775390625
-0.23747001953125,-0.01144707763671875,0.8746499658203125
-0.30871136718750003,0.024091020507812498,0.8780906982421874
-0.197351171875,0.01159141357421875,0.8721922998046875
-0.28609892578125,0.02433611083984375,0.9233117529296875
-0.294608984375,-0.01683906494140625,0.9493630126953125
-0.32597462890625,0.01208159423828125,1.0186691943359376
-0.31308796875,0.04124734375,1.00515203125
-0.21607330078125,-0.02762303955078125,0.914709921875
-0.292663828125,-0.015368522949218751,0.876861865234375
-0.2367405859375,-0.0175743359375,0.8970147265625
-0.247925234375,-0.03154448486328125,0.8653108349609375
-0.28585578125,-0.0009081933593750001,0.944693447265625
-0.21753216796875,-0.0023787353515625003,1.0221099267578124
-0.31770771484375,-0.013407800292968751,0.979100771484375
-0.25594900390624997,0.014777587890624999,1.0191607275390624
-0.2795340234375,0.04492369873046875,0.9562444775390625
-0.2902323828125,-0.02272123291015625,0.9562444775390625
-0.269321953125,0.0103659619140625,0.9454307470703125
-0.23114826171875,0.04492369873046875,0.922574453125
-0.3184371484375,-0.0018885546875000003,0.86260740234375
-0.18543708984375,-0.0337502978515625,0.8412257080078125
-0.29922873046875,-0.07443529296875,0.9149556884765625
-0.2542469921875,-0.095022880859375,0.93142205078125
-0.26081189453125,-0.03644629150390625,0.8815314306640625
-0.24525064453125,0.004973974609375,0.8849721630859375
-0.24038775390625,0.0686974609375,0.93437125
-0.26956509765625,0.0613447509765625,1.007609697265625
-0.263486484375,0.08070688720703124,1.087238076171875
-0.26154132812499997,0.11109808837890625,1.124594599609375
-0.34639876953125,0.06673673828125,1.1322133642578125
-0.3096839453125,0.0848734228515625,1.0865007763671874
-0.34250845703125,0.00987578125,1.005643564453125
-0.280992890625,-0.042083369140625,0.9980247998046875
-0.269321953125,-0.05311243408203125,0.9183964208984375
-0.1832487890625,-0.04526954345703125,0.8599039697265625
-0.25084296875,-0.01978014892578125,0.8923451611328125
-0.23649744140625,-0.0219859619140625,1.0112961962890625
-0.34153587890625,-0.014633251953124999,1.09067880859375
-0.30360533203125,0.03144373046875,1.0776531787109376
-0.308225078125,0.03512008544921875,1.0216183935546874
-0.30117388671875,0.062080021972656246,1.04152548828125
-0.26056875,-0.02468195556640625,1.027271025390625
-0.268349375,-0.0013983740234375002,0.951574912109375
-0.2411171875,-0.069533486328125,0.920116787109375
-0.23917203125,0.021640117187500002,0.927981318359375
-0.2425760546875,0.03315936279296875,0.929947451171875
-0.30603677734375,-0.05115171142578125,0.88423486328125
-0.19224513671875,-0.03203466552734375,0.9115149560546875
-0.22385392578125,-0.03522083984375,0.926998251953125
-0.32281375,-0.060710234375,0.9124980224609375
-0.22968939453125,-0.0004180126953125,0.926998251953125
-0.28658521484375,-0.035711020507812496,0.8171405810546875
-0.20586123046875,-0.04330882080078125,0.8854636962890625
-0.251815546875,0.10595119140625,1.024321826171875
-0.26178447265625,0.1005592041015625,1.06020375
-0.23309341796875,0.14639109619140625,1.0550426513671876
-0.18470765625,0.09026541015625,0.987948369140625
-0.23017568359375,0.075559990234375,0.9685328076171875
-0.19516287109375,-0.00801581298828125,1.0422627880859374
-0.31430369140625003,0.01208159423828125,1.1838243505859376
-0.2644590625,0.0137972265625,1.1405694287109376
-0.29582470703125,-0.0464949951171875,1.0267794921875
-0.29728357421875,-0.0001729223632812504,0.9835245703125
-0.18543708984375,-0.010711806640625,0.9537868115234375
-0.32475890625,0.04933532470703125,1.0540595849609375
-0.23552486328125,0.0603643896484375,1.103458671875
-0.2707808203125,0.08217742919921875,1.08871267578125
-0.22701480468750002,0.05864875732421875,1.001219765625
-0.20780638671875,0.044188427734375,0.958456376953125
-0.21169669921875,-0.0141430712890625,0.887675595703125
-0.2221519140625,-0.02370159423828125,0.8667854345703125
-0.22239505859375,0.0446786083984375,0.9169218212890625
-0.3019033203125,-0.0999246875,0.9311762841796875
-0.29290697265625,-0.030319033203124998,0.9719735400390626
-0.2124261328125,-0.01046671630859375,0.979100771484375
-0.33472783203125,-0.05801424072265625,0.976151572265625
-0.22774423828125,0.0574233056640625,0.9638632421875
-0.209022109375,0.09737302978515625,0.9518206787109375
-0.24184662109375,0.03413972412109375,0.97467697265625
-0.23917203125,0.09394176513671874,1.0339067236328126
-0.21801845703125,0.05129604736328125,1.0088385302734375
-0.2357680078125,0.0378160791015625,0.965829375
-0.27151025390625,0.0003172583007812497,0.9481341796875
-0.23941517578125,0.03144373046875,0.9262609521484375
-0.294608984375,0.07065818359375,0.9046334912109375
-0.25400384765625,0.04002189208984375,0.9798380712890625
-0.27491427734375,0.06747200927734374,1.0053977978515625
-0.2309051171875,0.021885207519531248,1.0103131298828125
-0.2347954296875,0.087324326171875,1.063644482421875
-0.27418484375,0.017718671875,1.00613509765625
-0.156502890625,0.0142874072265625,0.9614055761718749
-0.18300564453125,0.0368357177734375,0.9778719384765625
-0.2766162890625,-0.01046671630859375,0.9636174755859375
-0.19662173828125,0.0201695751953125,0.9955671337890625
-0.31673513671875,0.07090327392578125,1.0346440234375
-0.2639727734375,-0.049926259765625,1.0501273193359375
-0.16355408203125,0.0613447509765625,0.9559987109375
-0.23795630859375,0.0025230712890624996,0.9813126708984374
-0.187625390625,0.04933532470703125,1.0543053515625
-0.249870390625,-0.0016434643554687498,0.9717277734375
-0.18592337890625,0.0397768017578125,1.0162115283203126
-0.1920019921875,0.03413972412109375,0.9729566064453125
-0.24938410156250002,0.03021827880859375,0.9193794873046874
-0.2318776953125,-0.055808427734375,0.922082919921875
-0.3349709765625,0.07335417724609375,1.067576748046875
-0.2347954296875,0.03512008544921875,0.9965502001953125
-0.25740787109375,0.0495804150390625,0.9284728515625
-0.25935302734375,0.0956573974609375,0.9414984814453125
-0.21169669921875,0.01698340087890625,0.9444476806640625
-0.25084296875,0.07065818359375,0.931913583984375
-0.20026890625,0.0574233056640625,0.932896650390625
-0.21947732421875,-0.00581,0.935845849609375
-0.321841171875,-0.00213364501953125,0.956490244140625
-0.29193439453125003,0.0201695751953125,1.0240760595703124
-0.2581373046875,0.06257020263671875,0.9867195361328125
-0.21607330078125,0.04345315673828125,0.9363373828125
-0.3378887109375,0.09198104248046875,1.0501273193359375
-0.19613544921875,0.033404453125,1.0348897900390626
-0.19832375,0.10202974609375,1.0147369287109376
-0.1900568359375,0.06011929931640625,1.04545775390625
-0.19905318359375002,0.0133070458984375,1.032677890625
-0.17327986328125,-0.0023787353515625003,1.0250591259765625
-0.23698373046875,0.06600146728515625,1.0112961962890625
-0.2143712890625,0.015022678222656249,0.975168505859375
-0.29533841796875,-0.061690595703125004,0.938303515625
-0.24938410156250002,0.06404074462890624,0.9724650732421874
-0.20926525390625,0.08634396484375,0.98254150390625
-0.26956509765625,0.004973974609375,0.9410069482421874
-0.11589775390625,0.04639424072265625,0.9402696484374999
-0.2746711328125,-0.0347306591796875,0.93142205078125
-0.12659611328125,0.0809519775390625,1.0582376171875
-0.2659179296875,-0.01781942626953125,1.0776531787109376
-0.30992708984375,0.06894255126953125,1.111814736328125
-0.1093328515625,0.0037485229492187503,0.986965302734375
-0.25643529296875,0.067717099609375,0.8471241064453126
-0.2075632421875,0.01796376220703125,0.7788009912109375
-0.24816837890625,0.04394333740234375,0.9166760546875
-0.25108611328125,0.09418685546875,1.086255009765625
-0.24962724609375,0.09051050048828126,1.013508095703125
-0.1744955859375,0.04124734375,0.8751414990234375
-0.220693046875,0.09933375244140626,0.8783364648437499
-0.1647698046875,0.17261576171875,1.008592763671875
-0.183735078125,-0.01144707763671875,1.1631799560546874
-0.2800203125,0.09982393310546875,1.1958669140625
-0.23455228515625,0.1887917236328125,1.2123332763671875
-0.30871136718750003,0.0387964404296875,1.084288876953125
-0.20537494140625,0.12874459228515625,1.0014655322265624
-0.30141703125,0.05472731201171875,0.8977520263671875
-0.2065906640625,-0.02615249755859375,0.9105318896484375
-0.1813036328125,0.09247122314453125,0.902421591796875
-0.20026890625,0.05080586669921875,0.902421591796875
-0.16744439453124998,0.01575794921875,0.99433830078125
-0.30555048828125,-0.0053198193359375,1.088221142578125
-0.298499296875,0.04688442138671875,1.0825685107421874
-0.284883203125,0.05889384765625,0.963371708984375
-0.18470765625,0.010856142578125,0.8567090039062499
-0.2017277734375,0.03168882080078125,0.8132083154296875
-0.21607330078125,0.07384435791015626,0.9945840673828125
-0.232363984375,0.04100225341796875,1.07101748046875
-0.30166017578125,0.1093824560546875,1.0240760595703124
-0.207076953125,0.1299700439453125,1.02088109375
-0.28658521484375,0.03928662109375,0.9587021435546875
-0.092312734375,0.034384814453125,0.9262609521484375
-0.22628537109375,0.0309535498046875,0.98843990234375
-0.22093619140625,-0.0249270458984375,1.007609697265625
-0.26032560546875,0.1329111279296875,1.0189149609375
-0.26859251953125,0.10399046875,0.864082001953125
-0.2211793359375,0.03512008544921875,0.8889044287109376
-0.206104375,0.0897752294921875,1.0186691943359376
-0.299471875,0.0005623486328125002,1.0058893310546875
-0.1530988671875,0.09394176513671874,1.090187275390625
-0.31989601562500003,0.17727247802734375,1.070525947265625
-0.3378887109375,-0.06487677001953125,0.9621428759765625
-0.1239215234375,0.0799716162109375,0.9636174755859375
-0.21412814453125,0.0133070458984375,0.8672769677734375
-0.1764407421875,-0.0661022216796875,0.9975332666015625
-0.1900568359375,0.030708459472656248,0.9454307470703125
-0.269321953125,0.0436982470703125,0.883743330078125
-0.18349193359375,0.1123235400390625,0.971236240234375
-0.28755779296875,0.06306038330078124,0.9842618701171875
-0.2085358203125,0.13756784423828125,1.032677890625
-0.18470765625,0.0701680029296875,0.947642646484375
-0.20488865234375,0.0280124658203125,0.936828916015625
-0.20245720703125,0.0887948681640625,0.89013326171875
-0.19662173828125,0.01747358154296875,0.891607861328125
-0.24087404296875,0.09835339111328124,1.0221099267578124
-0.189570546875,0.11011772705078125,1.0393135888671874
-0.27248283203125,0.06281529296875,1.0879753759765625
-0.2688356640625,0.1358522119140625,1.074458212890625
-0.189570546875,0.07041309326171875,0.949608779296875
-0.2163164453125,0.0956573974609375,0.9331424169921875
-0.17765646484375,0.1142842626953125,0.946168046875
-0.2221519140625,0.080461796875,0.9867195361328125
-0.199296328125,0.05668803466796875,0.9955671337890625
-0.25862359375,0.075559990234375,0.9469053466796875
-0.2396583203125,-0.0097314453125,0.9031588916015625
-0.13145900390625,0.09443194580078125,0.93732044921875
-0.18154677734375,0.09394176513671874,0.8884128955078126
-0.25740787109375,0.03315936279296875,0.99433830078125
-0.24962724609375,0.1054610107421875,1.0599579833984376
-0.2114535546875,0.122617333984375,0.977626171875
-0.20342978515625,0.06845237060546874,0.9390408154296875
-0.18349193359375,0.028502646484374998,0.92650671875
-0.24914095703125,0.11379408203125,1.00416896484375
-0.2177753125,0.06257020263671875,1.007609697265625
-0.17960162109375,-0.01830960693359375,0.979100771484375
-0.2007551953125,0.08364797119140625,1.0039231982421875
-0.25692158203125,0.07041309326171875,1.0240760595703124
-0.26324333984375,0.099088662109375,0.9198710205078124
-0.1920019921875,0.11403917236328125,0.8756330322265625
-0.2523018359375,0.13315621826171875,0.902421591796875
-0.12805498046875,0.05668803466796875,0.8918536279296875
-0.15382830078125,0.012816865234374999,0.8166490478515624
-0.228473671875,0.09810830078125,0.8505648388671875
-0.172064140625,0.12555841796875,0.945676513671875
-0.25205869140625,0.0843832421875,1.0425085546875
-0.3320532421875,0.12972495361328126,1.0481611865234375
-0.18738224609375,0.12874459228515625,0.9572275439453125
-0.19808060546875,0.05889384765625,0.8166490478515624
-0.175954453125,0.15717507080078125,0.873912666015625
-0.19321771484375,0.06649164794921875,0.9638632421875
-0.20026890625,0.1309504052734375,1.040050888671875
-0.22944625,0.1201664306640625,0.9768888720703125
-0.2211793359375,0.05521749267578125,0.9407611816406249
-0.18592337890625,0.09737302978515625,0.893573994140625
-0.16549923828125,0.10913736572265625,0.9203625537109374
-0.25011353515625,0.11943115966796874,1.0127707958984375
-0.22044990234375,0.0387964404296875,1.0226014599609374
-0.28196546875,0.1740863037109375,1.09952640625
-0.31308796875,0.1436951025390625,1.014491162109375
-0.15382830078125,0.0642858349609375,0.966320908203125
-0.31308796875,0.13217585693359374,0.9763973388671875
-0.18300564453125,0.03462990478515625,0.955507177734375
-0.12076064453125,0.07261890625,0.876861865234375
-0.09887763671875,0.0750698095703125,0.8353273095703125
-0.09985021484375001,0.0544822216796875,0.981066904296875
-0.29047552734375,0.10864718505859375,1.1012467724609376
-0.28974609375,0.1329111279296875,1.1189419677734376
-0.33472783203125,0.110852998046875,1.019406494140625
-0.2172890234375,0.17776265869140626,0.926998251953125
-0.19662173828125,0.1157548046875,0.8141913818359375
-0.19662173828125,0.07041309326171875,0.891116328125
-0.24087404296875,0.0956573974609375,1.002694365234375
-0.2036729296875,0.11845079833984375,1.1032129052734374
-0.3028758984375,0.08364797119140625,1.0019570654296874
-0.1783858984375,0.0378160791015625,0.821810146484375
-0.10544253906250001,0.06158984130859375,0.791335087890625
-0.16695810546875,0.08658905517578125,0.8682600341796876
-0.21801845703125,0.0927163134765625,1.0457035205078125
-0.33278267578125,0.14516564453125,1.1464678271484374
-0.2902323828125,0.11403917236328125,1.033169423828125
-0.1910294140625,0.13364639892578126,0.969270107421875
-0.2250696484375,0.083402880859375,0.9439561474609375
-0.21218298828125,0.14197947021484375,0.9832788037109375
-0.21510072265625,0.07874616455078125,1.053813818359375
-0.245980078125,0.12139188232421876,1.1449932275390624
-0.271267109375,0.12237224365234375,1.137374462890625
-0.2240970703125,0.11354899169921875,1.0339067236328126
-0.14069849609375001,0.1240878759765625,0.9547698779296875
-0.27053767578125,0.1182057080078125,0.925032119140625
-0.20634751953125,0.0770305322265625,0.9768888720703125
-0.1851939453125,0.15300853515625001,0.930438984375
-0.2202067578125,0.0917359521484375,0.8368019091796874
-0.1715778515625,0.07923634521484375,0.80952181640625
-0.13972591796875,0.07041309326171875,0.7945300537109374
-0.24573693359375,0.062080021972656246,0.9144641552734375
-0.228473671875,0.05913893798828125,1.024813359375
-0.234309140625,0.08953013916015624,1.064627548828125
-0.23357970703125,0.07286399658203124,1.0506188525390625
-0.220693046875,0.15472416748046874,1.079865078125
-0.244034921875,0.09492212646484376,1.0189149609375
-0.19346085937500002,0.11845079833984375,0.973202373046875
-0.207076953125,0.1235976953125,0.937811982421875
-0.1686601171875,0.10619628173828125,0.96484630859375
-0.1851939453125,0.11943115966796874,1.020389560546875
-0.23941517578125,0.09026541015625,1.0633987158203124
-0.2464663671875,0.0809519775390625,1.023338759765625
-0.2056180859375,0.103010107421875,0.9481341796875
-0.20829267578125,0.0936966748046875,0.944693447265625
-0.23357970703125,0.10595119140625,0.9410069482421874
-0.20415921875,0.17972338134765625,1.009575830078125
-0.24768208984375,0.127519140625,1.020389560546875
-0.2386857421875,0.1280093212890625,1.05332228515625
-0.21412814453125,0.1142842626953125,1.0167030615234376
-0.2114535546875,0.116735166015625,0.9857364697265625
-0.18106048828125,0.09810830078125,0.988931435546875
-0.2163164453125,0.04884514404296875,0.901438525390625
-0.23260712890625002,0.09247122314453125,0.943710380859375
-0.21801845703125,0.08266760986328126,0.959439443359375
-0.22093619140625,0.09492212646484376,0.9449392138671875
-0.20780638671875,0.1211467919921875,0.90586232421875
-0.1827625,0.11599989501953126,0.9793465380859375
-0.26907880859375,0.0721287255859375,0.9444476806640625
-0.18203306640625,0.0887948681640625,0.9400238818359374
-0.2523018359375,0.12090170166015625,1.013508095703125
-0.25108611328125,0.10423555908203125,1.004660498046875
-0.209022109375,0.09982393310546875,1.0181776611328126
-0.216802734375,0.1162449853515625,1.005643564453125
-0.20051205078125,0.07090327392578125,0.957473310546875
-0.21218298828125,0.14418528320312501,0.9655836083984375
-0.18884111328125,0.1838899169921875,0.9351085498046875
-0.24573693359375,0.11011772705078125,0.930930517578125
-0.1754681640625,0.1593808837890625,0.9994993994140625
-0.2221519140625,0.13511694091796875,1.0029401318359374
-0.19516287109375,0.11060790771484375,0.9646005419921875
-0.17182099609375,0.12090170166015625,0.95796484375
-0.2333365625,0.08242251953125,0.965337841796875
-0.22750109375,0.1103628173828125,0.9714820068359376
-0.23212083984375,0.14345001220703124,0.99630443359375
-0.237226875,0.171635400390625,1.0039231982421875
-0.245980078125,0.12580350830078124,0.9655836083984375
-0.18495080078125,0.1157548046875,1.0147369287109376
-0.2289599609375,0.1368325732421875,1.0147369287109376
-0.19637859375,0.10619628173828125,1.05725455078125
-0.20415921875,0.10399046875,1.0363643896484376
-0.23212083984375,0.11845079833984375,1.004660498046875
-0.17473873046875,0.062080021972656246,0.96288017578125
-0.2333365625,0.10227483642578125,0.894557060546875
-0.14215736328125,0.10864718505859375,0.9149556884765625
-0.2450075,0.13315621826171875,0.9493630126953125
-0.18640966796875,0.10472573974609375,0.9395323486328125
-0.1988100390625,0.18560554931640624,1.0167030615234376
-0.23892888671875,0.150067451171875,1.0393135888671874
-0.22361078125,0.14516564453125,1.024813359375
-0.2007551953125,0.10962754638671875,1.016948828125
-0.21364185546875,0.13903838623046874,1.0255506591796875
-0.187625390625,0.13952856689453125,0.9424815478515625
-0.20294349609375,0.10595119140625,0.9213456201171875
-0.209022109375,0.17040994873046875,0.9088115234375
-0.18349193359375,0.13315621826171875,0.9520664453125
-0.2255559375,0.16354741943359374,1.041033955078125
-0.2649453515625,0.079481435546875,1.015474228515625
-0.20415921875,0.16354741943359374,1.06118681640625
-0.221665625,0.11550971435546875,0.949608779296875
-0.19419029296875,0.12163697265625,0.8928366943359375
-0.1754681640625,0.10399046875,0.9110234228515625
-0.23163455078125,0.09198104248046875,0.9434646142578125
-0.207076953125,0.10325519775390625,1.026287958984375
-0.17668388671875,0.12874459228515625,1.0206353271484374
-0.1783858984375,0.07850107421875,0.9405154150390624
-0.20197091796875,0.138303115234375,0.9638632421875
-0.1560166015625,0.1760470263671875,0.9695158740234375
-0.2279873828125,0.09786321044921875,0.9680412744140625
-0.228473671875,0.1593808837890625,1.0184234277343749
-0.19175884765625,0.1554594384765625,0.96484630859375
-0.20804953125,0.05815857666015625,0.91765912109375
-0.2416034765625,0.11379408203125,0.9685328076171875
-0.22579908203125,0.11354899169921875,0.9626344091796875
-0.21947732421875,0.0848734228515625,0.889641728515625
-0.25886673828125,0.1358522119140625,0.90389619140625
-0.17911533203125,0.110852998046875,0.9301932177734376
-0.2309051171875,0.1593808837890625,0.95894791015625
-0.1715778515625,0.118695888671875,0.9247863525390625
-0.23260712890625002,0.12433296630859375,0.925032119140625
-0.23309341796875,0.1436951025390625,0.91176072265625
-0.1477496875,0.1319307666015625,0.885709462890625
-0.2240970703125,0.1338914892578125,0.83704767578125
-0.14945169921875,0.11747043701171875,0.9174133544921875
-0.2163164453125,0.13756784423828125,0.9714820068359376
-0.162338359375,0.12335260498046875,1.0201437939453124
-0.25108611328125,0.11403917236328125,0.9945840673828125
-0.23941517578125,0.1368325732421875,0.9768888720703125
-0.20877896484375,0.112813720703125,0.94223578125
-0.19224513671875,0.116735166015625,0.94321884765625
-0.19370400390625,0.17972338134765625,0.9813126708984374
-0.28123603515625,0.12629368896484375,0.9464138134765625
-0.23260712890625002,0.12188206298828125,1.0024485986328124
-0.201241484375,0.165753232421875,0.95698177734375
-0.19662173828125,0.0574233056640625,0.9316678173828125
-0.22701480468750002,0.17482157470703125,0.9783634716796875
-0.22968939453125,0.114774443359375,0.907336923828125
-0.2488978125,0.13536203125,0.9292101513671875
-0.23309341796875,0.06551128662109375,0.838522275390625
-0.1560166015625,0.14394019287109375,0.907336923828125
-0.226528515625,0.12335260498046875,0.9196252539062499
-0.2367405859375,0.04320806640625,0.9360916162109375
-0.21753216796875,0.169674677734375,1.0314490576171875
-0.2260422265625,0.08707923583984375,0.9763973388671875
-0.22628537109375,0.134381669921875,1.016948828125
-0.14629082031250001,0.17678229736328124,1.048898486328125
-0.236254296875,0.110852998046875,0.9936010009765625
-0.214857578125,0.146146005859375,0.951574912109375
-0.20877896484375,0.1574201611328125,0.945676513671875
-0.24719580078125,0.15962597412109375,0.9454307470703125
-0.1900568359375,0.15325362548828125,0.956490244140625
-0.197351171875,0.140263837890625,0.93338818359375
-0.242089765625,0.1417343798828125,0.9950756005859375
-0.2668905078125,0.1549692578125,1.0319405908203125
-0.20148462890625,0.12188206298828125,0.9223286865234375
-0.2318776953125,0.13536203125,0.9080742236328125
-0.23747001953125,0.1510478125,0.9604225097656249
-0.22725794921875,0.1731059423828125,0.9572275439453125
-0.22190876953125,0.16011615478515626,0.9110234228515625
-0.23601115234375,0.140263837890625,0.9088115234375
-0.210967265625,0.10619628173828125,0.903404658203125
-0.203186640625,0.17335103271484376,1.0211268603515624
-0.19662173828125,0.14246965087890626,1.0196522607421874
-0.2357680078125,0.14418528320312501,1.0098215966796875
-0.1608794921875,0.1329111279296875,1.019406494140625
-0.21169669921875,0.163792509765625,0.974185439453125
-0.19467658203125,0.07776580322265625,0.9572275439453125
-0.21072412109375,0.161831787109375,0.93928658203125
-0.18106048828125,0.1231075146484375,0.9191337207031249
-0.17425244140625,0.10595119140625,0.974185439453125
-0.257651015625,0.14492055419921876,0.9970417333984375
-0.19832375,0.19222298828125,1.01989802734375
-0.18543708984375,0.138303115234375,0.9591936767578125
-0.20780638671875,0.20815385986328125,0.9857364697265625
-0.23406599609375,0.12482314697265626,0.9739396728515625
-0.185680234375,0.1338914892578125,0.95894791015625
-0.25351755859375,0.1338914892578125,0.9695158740234375
-0.25497642578125,0.17825283935546876,1.03169482421875
-0.17473873046875,0.1505576318359375,0.954032578125
-0.24914095703125,0.14884199951171875,0.983033037109375
-0.1890842578125,0.1946738916015625,1.0425085546875
-0.22968939453125,0.1878113623046875,0.9926179345703126
-0.20197091796875,0.1427147412109375,0.9375662158203125
-0.1997826171875,0.1966346142578125,0.9520664453125
-0.20099833984375,0.10227483642578125,0.9346170166015625
-0.20683380859375,0.1485969091796875,1.015474228515625
-0.19710802734375,0.1471263671875,1.0240760595703124
-0.21023783203125002,0.1544790771484375,0.96484630859375
-0.19346085937500002,0.12923477294921876,0.901438525390625
-0.212912421875,0.1368325732421875,0.9773804052734375
-0.2698082421875,0.11256863037109376,0.9655836083984375
-0.20197091796875,0.15227326416015624,0.998762099609375
-0.20197091796875,0.1941837109375,0.986965302734375
-0.218747890625,0.14835181884765625,1.0284998583984375
-0.221665625,0.077520712890625,0.9990078662109375
-0.20342978515625,0.155949619140625,0.99827056640625
-0.18835482421875,0.1505576318359375,0.9913891015625
-0.2756437109375,0.1397736572265625,0.985982236328125
-0.13413359375,0.19638952392578124,0.9616513427734374
-0.32159802734375,0.193203349609375,0.96877857421875
-0.2192341796875,0.1574201611328125,1.0550426513671876
-0.2124261328125,0.18830154296875,0.933879716796875
-0.197351171875,0.1466361865234375,0.9188879541015624
-0.2445212109375,0.15374380615234376,0.9852449365234375
-0.18543708984375,0.11060790771484375,0.9454307470703125
-0.20342978515625,0.1338914892578125,1.021372626953125
-0.21315556640625,0.15913579345703124,1.0702801806640625
-0.22725794921875,0.128499501953125,0.9985163330078125
-0.29363640625,0.11550971435546875,0.9749227392578125
-0.12076064453125,0.1706550390625,0.9483799462890625
-0.18859796875,0.17678229736328124,0.94321884765625
-0.2416034765625,0.12286242431640625,0.9559987109375
-0.21996361328125,0.1740863037109375,0.9405154150390624
-0.221665625,0.1182057080078125,0.9242948193359375
-0.23552486328125,0.12335260498046875,0.977134638671875
-0.1910294140625,0.10325519775390625,0.9407611816406249
-0.183735078125,0.17653720703125,0.9677955078125
-0.17133470703125,0.20472259521484376,0.9557529443359375
-0.2289599609375,0.14443037353515625,1.0575003173828126
-0.28585578125,0.16109651611328124,1.064136015625
-0.168173828125,0.1329111279296875,1.0127707958984375
-0.20197091796875,0.197124794921875,0.9601767431640625
-0.27272597656249997,0.1574201611328125,0.9599309765625
-0.24184662109375,0.17580193603515626,1.026287958984375
-0.18786853515625002,0.1858506396484375,0.987948369140625
-0.20975154296875,0.19638952392578124,0.9992536328125
-0.2240970703125,0.1471263671875,0.9813126708984374
-0.206104375,0.08854977783203125,0.9242948193359375
-0.21169669921875,0.17678229736328124,0.9808211376953125
-0.17303671874999998,0.179478291015625,1.0280083251953125
-0.2581373046875,0.07825598388671876,0.9439561474609375
-0.22677166015625,0.187321181640625,1.0319405908203125
-0.12562353515625,0.17653720703125,1.026287958984375
-0.21655958984375,0.177517568359375,0.989914501953125
-0.18884111328125,0.2260454541015625,1.0383305224609374
-0.207076953125,0.1392834765625,0.9798380712890625
-0.20148462890625,0.16477287109375,0.9916348681640625
-0.18349193359375,0.17237067138671874,0.9370746826171875
-0.1696326953125,0.12776423095703124,0.9513291455078126
-0.24865466796875,0.09443194580078125,0.98450763671875
-0.23455228515625,0.17727247802734375,1.0520934521484375
-0.18081734375,0.150067451171875,0.9847534033203125
-0.2775888671875,0.2034971435546875,0.9837703369140625
-0.18397822265625,0.21060476318359375,0.928964384765625
-0.17473873046875,0.1534987158203125,0.8800568310546875
-0.2552195703125,0.20276187255859374,0.969270107421875
-0.20026890625,0.11943115966796874,0.9773804052734375
-0.175954453125,0.08707923583984375,0.94518498046875
-0.21996361328125,0.150067451171875,0.9528037451171875
-0.16501294921875,0.10864718505859375,0.9660751416015625
-0.2668905078125,0.1260485986328125,0.93535431640625
-0.152612578125,0.1299700439453125,0.9351085498046875
-0.16647181640625,0.17506666503906249,0.969270107421875
-0.19273142578125,0.11796061767578125,0.9375662158203125
-0.14312994140625,0.206928408203125,0.9975332666015625
-0.23455228515625,0.08168724853515624,0.951574912109375
-0.21607330078125,0.21452620849609375,1.0004824658203124
-0.1861665234375,0.12947986328125,0.968287041015625
-0.21364185546875,0.15570452880859376,0.9842618701171875
-0.1764407421875,0.15300853515625001,0.9547698779296875
-0.27880458984375,0.17384121337890626,0.99630443359375
-0.174009296875,0.210849853515625,0.9913891015625
-0.21461443359375,0.17237067138671874,0.9400238818359374
-0.27029453125,0.17727247802734375,0.9542783447265625
-0.18008791015625,0.13903838623046874,0.95108337890625
-0.23503857421875,0.1574201611328125,0.914218388671875
-0.19029998046875,0.16746886474609374,0.972219306640625
-0.2172890234375,0.1093824560546875,0.977626171875
-0.228473671875,0.1338914892578125,0.986965302734375
-0.2182616015625,0.18217428466796876,1.0284998583984375
-0.21193984375,0.1784979296875,1.016457294921875
-0.1988100390625,0.1731059423828125,0.9822957373046874
-0.1881116796875,0.16795904541015624,0.98843990234375
-0.19370400390625,0.0966377587890625,0.988931435546875
-0.2240970703125,0.1093824560546875,0.9481341796875
-0.1540714453125,0.09835339111328124,0.9911433349609375
-0.2736985546875,0.1250682373046875,0.9803296044921875
-0.14118478515625,0.15962597412109375,0.963371708984375
-0.26032560546875,0.1466361865234375,0.943710380859375
-0.26275705078125,0.0608545703125,0.93142205078125
-0.19710802734375,0.138303115234375,0.9896687353515625
-0.20294349609375,0.1074217333984375,0.926015185546875
-0.16185207031249998,0.15276344482421875,0.9407611816406249
-0.22944625,0.16844922607421875,0.9041419580078125
-0.189570546875,0.10717664306640624,0.9473968798828125
-0.21972046875,0.18854663330078125,1.01203349609375
-0.29387955078125,0.1338914892578125,0.9877026025390625
-0.17717017578125,0.14737145751953126,0.9695158740234375
-0.20197091796875,0.13903838623046874,0.947642646484375
-0.26154132812499997,0.15692998046875,0.95796484375
-0.19273142578125,0.1593808837890625,0.975168505859375
-0.21558701171875,0.16109651611328124,0.892590927734375
-0.19832375,0.09933375244140626,0.9110234228515625
-0.23649744140625,0.120656611328125,0.941744248046875
-0.2036729296875,0.14492055419921876,0.977626171875
-0.18057419921875,0.12825441162109374,1.0250591259765625
-0.23114826171875,0.1760470263671875,1.0181776611328126
-0.17571130859375,0.1515379931640625,0.9557529443359375
-0.1813036328125,0.18511536865234374,0.9198710205078124
-0.22434021484375,0.12580350830078124,0.9400238818359374
-0.15285572265625,0.1235976953125,0.9921264013671875
-0.2318776953125,0.161831787109375,0.9857364697265625
-0.2600824609375,0.07041309326171875,0.948625712890625
-0.21193984375,0.14443037353515625,0.9196252539062499
-0.18495080078125,0.1603612451171875,0.9166760546875
-0.21121041015625,0.101049384765625,0.9397781152343749
-0.26518849609375,0.17506666503906249,1.0137538623046876
-0.111764296875,0.1471263671875,1.0039231982421875
-0.23941517578125,0.1789881103515625,0.9179048876953125
-0.220693046875,0.15815543212890626,0.921099853515625
-0.187625390625,0.17972338134765625,0.9547698779296875
-0.1900568359375,0.13511694091796875,0.9877026025390625
-0.2450075,0.19589934326171876,1.0299744580078125
-0.2007551953125,0.15570452880859376,0.991880634765625
-0.19710802734375,0.14345001220703124,1.000728232421875
-0.21193984375,0.130460224609375,1.016948828125
-0.1949197265625,0.1682041357421875,1.0742124462890625
-0.24379177734375002,0.2025167822265625,1.047915419921875
-0.18397822265625,0.13732275390625,0.9763973388671875
-0.20342978515625,0.13854820556640626,0.9213456201171875
-0.2192341796875,0.0897752294921875,0.9360916162109375
-0.156502890625,0.13413657958984376,0.968287041015625
-0.2411171875,0.06281529296875,0.95108337890625
-0.25303126953125,0.13609730224609376,0.973202373046875
-0.22288134765625,0.13560712158203125,0.936828916015625
-0.25351755859375,0.1270289599609375,0.9365831494140625
-0.1744955859375,0.1721255810546875,0.9206083203125
-0.23357970703125,0.1299700439453125,0.9616513427734374
-0.16938955078125,0.14394019287109375,1.0098215966796875
-0.2177753125,0.15276344482421875,1.005643564453125
-0.2357680078125,0.13070531494140625,0.976151572265625
-0.1686601171875,0.18217428466796876,0.98450763671875
-0.20829267578125,0.12580350830078124,0.9704989404296875
-0.18543708984375,0.15668489013671874,0.9773804052734375
-0.20634751953125,0.15276344482421875,0.991880634765625
-0.2260422265625,0.18560554931640624,1.0098215966796875
-0.21412814453125,0.130460224609375,0.950591845703125
-0.213885,0.167713955078125,1.0053977978515625
-0.23260712890625002,0.16085142578125,1.00220283203125
-0.236254296875,0.163792509765625,0.9749227392578125
-0.1968648828125,0.099088662109375,0.964354775390625
-0.1827625,0.09982393310546875,0.9380577490234375
-0.21364185546875,0.18168410400390625,1.04349162109375
-0.216802734375,0.16085142578125,1.0176861279296876
-0.3038484765625,0.13732275390625,0.9970417333984375
-0.21412814453125,0.11109808837890625,0.9953213671875
-0.240144609375,0.11599989501953126,0.9636174755859375
-0.242089765625,0.148106728515625,0.9867195361328125
-0.1881116796875,0.138303115234375,1.0179318945312499
-0.30749564453125,0.1505576318359375,0.9901602685546875
-0.2095083984375,0.11894097900390625,0.9616513427734374
-0.18349193359375,0.10472573974609375,0.8970147265625
-0.226528515625,0.15374380615234376,0.880794130859375
-0.16015005859375,0.099088662109375,0.9284728515625
-0.18884111328125,0.122617333984375,0.9056165576171875
-0.18251935546875,0.12776423095703124,0.9085657568359375
-0.22044990234375,0.11992134033203125,1.00416896484375
-0.2231244921875,0.17727247802734375,0.995812900390625
-0.22044990234375,0.1525183544921875,0.99827056640625
-0.2114535546875,0.2093793115234375,1.0289913916015625
-0.23601115234375,0.1721255810546875,1.0147369287109376
-0.19029998046875,0.1079119140625,0.9970417333984375
-0.23066197265625,0.11452935302734375,0.946168046875
-0.2056180859375,0.16893940673828126,0.9183964208984375
-0.15674603515625,0.1319307666015625,0.9803296044921875
-0.31381740234375,0.1456558251953125,1.0206353271484374
-0.16744439453124998,0.17825283935546876,1.0579918505859376
-0.25400384765625,0.12041152099609376,0.987948369140625
-0.23163455078125,0.1427147412109375,0.9449392138671875
-0.13583560546875,0.17040994873046875,0.923065986328125
-0.2668905078125,0.09149086181640625,0.9166760546875
-0.1813036328125,0.1784979296875,0.9773804052734375
-0.2153438671875,0.11943115966796874,0.964354775390625
-0.24330548828125,0.10227483642578125,1.0432458544921874
-0.237226875,0.148106728515625,1.08084814453125
-0.24962724609375,0.13854820556640626,0.993355234375
-0.19710802734375,0.12286242431640625,0.9513291455078126
-0.24038775390625,0.158890703125,0.9960586669921875
-0.14410251953125,0.18168410400390625,1.0179318945312499
-0.20804953125,0.1378129345703125,0.991880634765625
-0.22044990234375,0.16942958740234376,1.0196522607421874
-0.2221519140625,0.10129447509765625,0.9567360107421875
-0.21850474609375,0.049090234375,0.954524111328125
-0.23114826171875,0.114774443359375,0.9520664453125
-0.27248283203125,0.0770305322265625,0.9311762841796875
-0.16695810546875,0.2044775048828125,1.0211268603515624
-0.28950294921874997,0.1387932958984375,1.040050888671875
-0.29874244140625,0.18560554931640624,1.066593681640625
-0.148722265625,0.1525183544921875,0.996795966796875
-0.2124261328125,0.124578056640625,0.9591936767578125
-0.251815546875,0.09884357177734375,0.93535431640625
-0.15917748046875,0.08953013916015624,0.9872110693359375
-0.2571647265625,0.1133039013671875,0.9945840673828125
-0.26567478515625,0.11747043701171875,0.963371708984375
-0.1890842578125,0.13070531494140625,0.96288017578125
-0.2347954296875,0.1941837109375,0.9424815478515625
-0.148722265625,0.12580350830078124,0.934862783203125
-0.25084296875,0.1505576318359375,1.0176861279296876
-0.20829267578125,0.08707923583984375,1.0029401318359374
-0.18300564453125,0.10595119140625,0.9503460791015625
-0.166228671875,0.077520712890625,0.929947451171875
-0.168173828125,0.1201664306640625,0.9614055761718749
-0.2124261328125,0.114774443359375,1.013508095703125
-0.2182616015625,0.097127939453125,1.08478041015625
-0.24233291015625,0.106931552734375,0.9874568359375
-0.27296912109375,0.12972495361328126,0.9434646142578125
-0.22774423828125,0.14590091552734374,0.9481341796875
-0.257651015625,0.14001874755859375,0.94518498046875
-0.17303671874999998,0.10962754638671875,0.9100403564453124
-0.1321884375,0.08242251953125,0.954032578125
-0.2357680078125,0.06355056396484375,1.0201437939453124
-0.24476435546875,0.10962754638671875,1.0186691943359376
-0.224583359375,0.0858537841796875,0.9906518017578125
-0.22336763671875,0.1574201611328125,0.97860923828125
-0.21412814453125,0.1633023291015625,0.991880634765625
-0.179844765625,0.1123235400390625,1.0049062646484375
-0.2411171875,0.175556845703125,0.9599309765625
-0.2114535546875,0.05521749267578125,0.9604225097656249
-0.14069849609375001,0.0922261328125,0.9960586669921875
-0.24136033203125,0.10178465576171875,0.9454307470703125
-0.1968648828125,0.0721287255859375,0.987948369140625
-0.28464005859375,0.09786321044921875,1.05332228515625
-0.19346085937500002,0.1093824560546875,1.100017939453125
-0.30652306640625,0.11894097900390625,1.0683140478515625
-0.19224513671875,0.1378129345703125,0.9709904736328125
-0.20877896484375,0.11698025634765626,0.8930824609375
-0.20440236328125,0.12727405029296876,0.860149736328125
-0.17571130859375,0.08953013916015624,0.926015185546875
-0.30627992187499997,0.12555841796875,1.0029401318359374
-0.2202067578125,0.13364639892578126,1.0501273193359375
-0.31381740234375,0.11354899169921875,1.0592206835937499
-0.19346085937500002,0.11698025634765626,1.00515203125
-0.2338228515625,0.0495804150390625,0.92355751953125
-0.19029998046875,0.1485969091796875,0.9896687353515625
-0.1715778515625,0.1652630517578125,0.9609140429687499
-0.26616107421875,0.05717821533203125,0.9213456201171875
-0.185680234375,0.15178308349609376,0.9803296044921875
-0.22871681640625,0.130460224609375,0.9970417333984375
-0.2202067578125,0.1544790771484375,1.072492080078125
-0.2260422265625,0.1133039013671875,1.0250591259765625
-0.22579908203125,0.18658591064453126,1.04349162109375
-0.191515703125,0.14099910888671874,0.9616513427734374
-0.2333365625,0.09810830078125,0.9587021435546875
-0.21072412109375,0.150067451171875,1.0270252587890625
-0.2099946875,0.1005592041015625,0.9614055761718749
-0.245980078125,0.052031318359375,0.944693447265625
-0.24306234375,0.0838930615234375,1.0147369287109376
-0.20780638671875,0.1706550390625,1.0899415087890625
-0.26056875,0.097127939453125,1.01006736328125
-0.2133987109375,0.1505576318359375,1.0073639306640625
-0.21169669921875,0.1162449853515625,0.9759058056640625
-0.18446451171875,0.14418528320312501,0.9238032861328125
-0.21607330078125,0.1682041357421875,0.933879716796875
-0.1842213671875,0.1182057080078125,0.967303974609375
-0.19832375,0.1162449853515625,1.0314490576171875
-0.2328502734375,0.12433296630859375,1.0604495166015624
-0.1793584765625,0.05276658935546875,1.066593681640625
-0.24233291015625,0.150067451171875,1.0491442529296875
-0.18251935546875,0.13217585693359374,0.976151572265625
-0.25084296875,0.1191860693359375,0.964354775390625
-0.1958923046875,0.18805645263671875,1.021372626953125
-0.20148462890625,0.118695888671875,1.0093300634765625
-0.15382830078125,0.1436951025390625,1.047915419921875
-0.23503857421875,0.13609730224609376,1.091170341796875
-0.24184662109375,0.091245771484375,1.03661015625
-0.20926525390625,0.1549692578125,1.006626630859375
-0.24695265625,0.09296140380859375,0.9198710205078124
-0.26251390625,0.11550971435546875,0.9267524853515625
-0.16695810546875,0.132420947265625,0.87047193359375
-0.1239215234375,0.10619628173828125,0.844420673828125
-0.24865466796875,0.106931552734375,0.8948028271484375
-0.16112263671875,0.10619628173828125,1.0117877294921875
-0.2698082421875,0.15325362548828125,1.0778989453125
-0.286828359375,0.096147578125,1.073475146484375
-0.207076953125,0.18707609130859376,1.0661021484375
-0.175954453125,0.122617333984375,0.933879716796875
-0.23795630859375,0.11354899169921875,0.92355751953125
-0.0957167578125,0.15423398681640624,0.8893959619140624
-0.221665625,0.0936966748046875,0.8613785693359375
-0.20926525390625,0.14933218017578126,0.9439561474609375
-0.1657423828125,0.16991976806640624,0.9139726220703125
-0.2036729296875,0.0887948681640625,0.8834975634765625
-0.15577345703125,0.08903995849609375,0.9284728515625
-0.156502890625,0.13805802490234376,0.9115149560546875
-0.21412814453125,0.05913893798828125,0.83114927734375
-0.0966893359375,0.17335103271484376,0.8790737646484375
-0.210967265625,0.17237067138671874,0.9596852099609375
-0.24695265625,0.23805488037109374,1.0953483740234375
-0.26859251953125,0.23315307373046876,1.0904330419921875
-0.257651015625,0.18315464599609374,1.0088385302734375
-0.13680818359375,0.1976149755859375,1.001219765625
-0.174981875,0.07850107421875,1.05233921875
-0.2367405859375,0.06649164794921875,0.99433830078125
-0.181789921875,0.12090170166015625,0.8544971044921875
-0.15188314453125001,0.042227705078125,0.8871840625
-0.268349375,0.0721287255859375,0.955507177734375
-0.159420625,0.12825441162109374,0.9046334912109375
-0.1939471484375,0.2682009912109375,0.905370791015625
-0.234309140625,0.15325362548828125,0.906845390625
-0.23406599609375,0.13903838623046874,1.06905134765625
-0.22579908203125,0.19736988525390625,1.1835785839843749
-0.2717533984375,0.1397736572265625,1.2118417431640625
-0.25886673828125,0.1505576318359375,1.1730106201171875
-0.32889236328125,0.13413657958984376,1.1056705712890624
-0.37800755859375,-0.042083369140625,0.9292101513671875
-0.2133987109375,-0.068553125,0.7286646044921875
-0.21583015625000002,0.02139502685546875,0.5831707763671875
-0.09936392578125,-0.02223105224609375,0.45561791015625
-0.050491875000000006,-0.0621807763671875,0.42440555175781247
-0.01742421875,0.03266918212890625,0.4597959423828125
-0.14458880859375,0.10962754638671875,0.5128815283203125
-0.15236943359375,0.138303115234375,0.702859111328125
-0.21850474609375,0.15570452880859376,1.087238076171875
-0.32889236328125,0.2995725537109375,1.38756486328125
-0.3495596484375,0.40520648681640625,1.601381806640625
-0.442440859375,0.4449111206054687,1.53699095703125
-0.5294866015625,0.2547210229492187,1.1184504345703126
-0.21801845703125,0.18658591064453126,0.871946533203125
-0.07188859375000001,0.00963069091796875,0.5841538427734375
-0.03955037109375,0.1260485986328125,0.5925099072265625
-0.07164544921875,0.04835496337890625,0.7239950390625
0.03485185546875,0.03266918212890625,1.0358728564453126
-0.2396583203125,0.30618999267578123,1.5549319189453126
-0.458002109375,0.24687813232421876,1.779808359375
-0.415208671875,0.21942801513671875,1.8385465771484375
-0.55890708984375,0.39393233154296875,1.5922884423828125
-0.30555048828125,0.19810515625,1.22240970703125
-0.1968648828125,0.13707766357421874,1.0609410498046874
-0.28634207031250003,-0.0092412646484375,1.16342572265625
-0.23017568359375,0.01698340087890625,1.14671359375
-0.15869119140625,-0.057769150390625,1.095102607421875
-0.179844765625,0.0819323388671875,1.1096028369140625
-0.25497642578125,-0.023456503906250002,0.8731753662109375
-0.121490078125,0.09026541015625,0.8033776513671875
-0.097175625,0.04590406005859375,0.7414444677734375
-0.24816837890625,0.101049384765625,0.8844806298828125
-0.2717533984375,0.26280900390625,0.8520394384765625
-0.12221951171875,0.20717349853515626,0.8697346337890625
-0.1637972265625,0.2642795458984375,0.9670582080078125
-0.12951384765625001,0.269671533203125,1.1921804150390625
-0.11443888671875,0.2025167822265625,1.3956751611328124
-0.316005703125,0.24540759033203124,1.6778152197265626
-0.30871136718750003,0.10202974609375,1.55566921875
-0.366579765625,0.1495772705078125,1.260749296875
-0.19078626953125,0.0446786083984375,1.0943653076171875
-0.263486484375,0.116735166015625,1.1272980322265624
-0.2211793359375,0.1613416064453125,0.99040603515625
-0.20099833984375,0.12727405029296876,0.8584293701171875
-0.18884111328125,0.0897752294921875,0.788385888671875
-0.03031087890625,0.1652630517578125,0.883743330078125
-0.14629082031250001,0.0843832421875,1.0594664501953126
-0.2163164453125,0.18413500732421875,1.216019775390625
-0.3505322265625,0.248103583984375,1.4200060546875
-0.30871136718750003,0.16403760009765625,1.362496669921875
-0.3281629296875,0.21403602783203124,1.158018857421875
-0.19273142578125,0.05815857666015625,1.0034316650390624
-0.22190876953125,0.07874616455078125,0.986965302734375
-0.18592337890625,0.07482471923828125,0.8554801708984375
-0.09450103515625,0.08560869384765625,0.7517666650390625
-0.02131453125,0.07457962890625,0.7473428662109375
-0.0976619140625,0.10668646240234375,0.8240220458984375
-0.16841697265625,0.18070374267578124,0.98942296875
-0.181789921875,0.122617333984375,1.0835515771484374
-0.26470220703125,0.2221240087890625,1.11034013671875
-0.292663828125,0.22776108642578125,1.0503730859375
-0.30603677734375,0.16893940673828126,1.0255506591796875
-0.33375525390625,0.17040994873046875,0.9166760546875
-0.20148462890625,0.14394019287109375,0.913235322265625
-0.2620276171875,0.15717507080078125,0.891116328125
-0.26761994140625,0.07531489990234375,0.8884128955078126
-0.12829812499999999,0.0922261328125,0.9277355517578125
-0.13291787109375,0.057668395996093746,0.94518498046875
-0.15771861328125,0.08756941650390625,0.946168046875
-0.20440236328125,0.128499501953125,0.9768888720703125
-0.21412814453125,0.19197789794921874,0.9442019140625
-0.19078626953125,0.18952699462890624,0.881777197265625
-0.2085358203125,0.2231043701171875,0.859166669921875
-0.25157240234375,0.17286085205078125,0.93142205078125
-0.2484115234375,0.1780077490234375,1.0245675927734375
-0.24573693359375,0.1760470263671875,1.08871267578125
-0.2717533984375,0.1338914892578125,1.100017939453125
-0.2017277734375,0.20423241455078125,1.1041959716796874
-0.2668905078125,0.07090327392578125,0.97860923828125
-0.1477496875,0.2182025634765625,0.94715111328125
-0.21947732421875,0.11305881103515625,0.8702261669921875
-0.24938410156250002,0.06845237060546874,0.891607861328125
-0.18251935546875,0.2270258154296875,0.8869382958984375
-0.23114826171875,0.13266603759765624,0.796250419921875
-0.19953947265625,0.21011458251953125,0.8972604931640625
-0.24306234375,0.17506666503906249,0.9577190771484375
-0.20780638671875,0.136342392578125,0.969761640625
-0.1958923046875,0.155949619140625,1.006626630859375
-0.2698082421875,0.14884199951171875,1.0019570654296874
-0.2182616015625,0.1201664306640625,0.96484630859375
-0.269321953125,0.13315621826171875,1.0162115283203126
-0.1978374609375,0.2260454541015625,1.0619241162109374
-0.24962724609375,0.0593840283203125,0.99237216796875
-0.25254498046875,0.1819291943359375,0.99040603515625
-0.1540714453125,0.12041152099609376,0.9238032861328125
-0.2367405859375,0.1093824560546875,0.973202373046875
-0.20148462890625,0.17531175537109375,1.0176861279296876
-0.14458880859375,0.155949619140625,1.01989802734375
-0.205131796875,0.15325362548828125,1.009575830078125
-0.16306779296875,0.1485969091796875,1.039067822265625
-0.2464663671875,0.1544790771484375,1.034152490234375
-0.16549923828125,0.13217585693359374,0.9754142724609375
-0.2800203125,0.1897720849609375,0.9911433349609375
-0.19564916015625,0.161831787109375,0.961897109375
-0.17911533203125,0.12947986328125,0.966320908203125
-0.268349375,0.128499501953125,1.0112961962890625
-0.16063634765625,0.148106728515625,1.0157199951171876
-0.20099833984375,0.136342392578125,1.040050888671875
-0.1910294140625,0.18217428466796876,1.0648733154296874
-0.21558701171875,0.116735166015625,1.0575003173828126
-0.1477496875,0.199085517578125,1.06708521484375
-0.1735230078125,0.16942958740234376,0.93437125
-0.1073876953125,0.12090170166015625,0.9321593505859375
-0.17473873046875,0.18315464599609374,0.9238032861328125
-0.2279873828125,0.1436951025390625,0.979100771484375
-0.216802734375,0.2240847314453125,1.06708521484375
-0.25108611328125,0.161831787109375,0.9469053466796875
-0.22920310546875,0.221633828125,1.0953483740234375
-0.2367405859375,0.2231043701171875,1.121645400390625
-0.226528515625,0.19810515625,1.0110504296875
-0.1472633984375,0.15178308349609376,0.9159387548828125
-0.15820490234375,0.15325362548828125,0.9272440185546875
-0.22628537109375,0.18413500732421875,0.9921264013671875
-0.20780638671875,0.091245771484375,0.978117705078125
-0.1754681640625,0.21550656982421876,1.0014655322265624
-0.17862904296875,0.1809488330078125,0.92650671875
-0.255705859375,0.16207687744140625,0.9739396728515625
-0.2255559375,0.1231075146484375,0.9808211376953125
-0.24476435546875,0.20423241455078125,0.9896687353515625
-0.25473328125,0.1574201611328125,0.996795966796875
-0.2027003515625,0.13609730224609376,0.99237216796875
-0.23139140625,0.20398732421875,0.968287041015625
-0.24184662109375,0.1074217333984375,0.98647376953125
-0.19637859375,0.16501796142578126,0.91077765625
-0.2600824609375,0.1549692578125,0.9090572900390625
-0.24306234375,0.19491898193359375,1.007609697265625
-0.22482650390625,0.15619470947265626,0.9360916162109375
-0.2104809765625,0.17139031005859376,0.8972604931640625
-0.209022109375,0.10472573974609375,0.87243806640625
-0.17692703125,0.16893940673828126,0.948625712890625
-0.30360533203125,0.15300853515625001,0.950591845703125
-0.21266927734375,0.14443037353515625,0.967303974609375
-0.23455228515625,0.20227169189453126,0.930930517578125
-0.2406308984375,0.1642826904296875,0.985982236328125
-0.2892598046875,0.23707451904296875,1.0579918505859376
-0.27345541015625,0.15129290283203126,1.0280083251953125
-0.19856689453125,0.22334946044921875,1.1086197705078125
-0.27929087890625,0.057913486328125,1.04545775390625
-0.21704587890625,0.1760470263671875,1.0850261767578124
-0.1477496875,0.17580193603515626,0.9326508837890625
-0.18446451171875,0.14786163818359374,0.8638362353515625
-0.22239505859375,0.19638952392578124,0.9591936767578125
-0.28196546875,0.1593808837890625,0.9985163330078125
-0.29631099609375,0.1917328076171875,1.0501273193359375
-0.30749564453125,0.1652630517578125,0.9813126708984374
-0.2668905078125,0.17972338134765625,0.9174133544921875
-0.24087404296875,0.12972495361328126,0.8694888671875
-0.2980130078125,0.1633023291015625,1.032677890625
-0.3164919921875,0.19810515625,1.15752732421875
-0.21583015625000002,0.1784979296875,1.0781447119140626
-0.1803310546875,0.21011458251953125,0.98942296875
-0.2333365625,0.1329111279296875,1.0167030615234376
-0.30311904296875003,0.1603612451171875,1.1120605029296875
-0.18349193359375,0.14688127685546876,1.0668394482421875
-0.23017568359375,0.26795590087890625,1.014491162109375
-0.30895451171875,0.10202974609375,0.921099853515625
-0.19516287109375,0.12923477294921876,1.0201437939453124
-0.244034921875,0.1760470263671875,1.043000087890625
-0.2153438671875,0.1809488330078125,1.0869923095703125
-0.29193439453125003,0.214771298828125,1.098051806640625
-0.1725504296875,0.173596123046875,1.1132893359375
-0.2309051171875,0.13756784423828125,1.0029401318359374
-0.1706052734375,0.20129133056640625,1.06905134765625
-0.26056875,0.14418528320312501,1.090187275390625
-0.2260422265625,0.1314405859375,1.0661021484375
-0.2416034765625,0.18756627197265624,1.047915419921875
-0.282938046875,0.12947986328125,1.013508095703125
-0.19029998046875,0.1623219677734375,1.024321826171875
-0.22750109375,0.1505576318359375,0.987948369140625
-0.26810623046875,0.13070531494140625,1.0796193115234376
-0.23747001953125,0.17139031005859376,1.0189149609375
-0.23601115234375,0.12188206298828125,0.895540126953125
-0.12635296875,0.221633828125,0.8989808593749999
-0.183735078125,0.13805802490234376,0.9896687353515625
-0.23917203125,0.25104466796875,1.1194335009765626
-0.22093619140625,0.10521592041015625,1.070525947265625
-0.29509527343749997,0.20031096923828126,1.0614325830078124
-0.17765646484375,0.16207687744140625,0.9872110693359375
-0.2153438671875,0.21158512451171874,1.026287958984375
-0.26227076171875,0.19295825927734375,1.0786362451171876
-0.2406308984375,0.1740863037109375,1.068559814453125
-0.29436583984375,0.24320177734375,1.0747039794921875
-0.2328502734375,0.18462518798828126,1.0149826953125
-0.1472633984375,0.19197789794921874,0.965337841796875
-0.18932740234375,0.17727247802734375,1.0031858984375
-0.21607330078125,0.11379408203125,1.046932353515625
-0.22750109375,0.17040994873046875,1.0122792626953125
-0.25059982421875,0.2113400341796875,1.0117877294921875
-0.2328502734375,0.096147578125,0.9434646142578125
-0.27588685546875,0.16624341308593749,0.8879213623046875
-0.23212083984375,0.15619470947265626,0.913235322265625
-0.22190876953125,0.1628121484375,1.0044147314453125
-0.30652306640625,0.2211436474609375,0.9877026025390625
-0.224583359375,0.20864404052734375,0.9604225097656249
-0.24233291015625,0.17482157470703125,0.965829375
-0.21266927734375,0.17776265869140626,0.9402696484374999
-0.2814791796875,0.14001874755859375,0.943710380859375
-0.17814275390625,0.132420947265625,0.922574453125
-0.20391607421875,0.23021198974609375,0.9085657568359375
-0.2454937890625,0.18462518798828126,0.966320908203125
-0.11541146484375,0.26084828125,1.011541962890625
-0.32548833984375003,0.22580036376953125,0.938303515625
-0.14945169921875,0.1838899169921875,0.9862280029296875
-0.20877896484375,0.2015364208984375,0.8741584326171875
-0.20732009765625,0.1471263671875,0.8884128955078126
-0.23017568359375,0.21844765380859374,1.0692971142578125
-0.3019033203125,0.08462833251953125,1.0732293798828125
-0.2065906640625,0.21354584716796876,1.05725455078125
-0.16355408203125,0.216732021484375,0.97074470703125
-0.2766162890625,0.20227169189453126,0.9582106103515625
-0.14750654296875,0.16599832275390625,1.000728232421875
-0.2542469921875,0.189281904296875,0.924049052734375
-0.1633109375,0.18070374267578124,0.871455
-0.13948277343749999,0.1123235400390625,0.8481071728515625
-0.27515742187500003,0.11060790771484375,0.9321593505859375
-0.20877896484375,0.1201664306640625,0.9936010009765625
-0.302389609375,0.10202974609375,0.9262609521484375
-0.23406599609375,0.17261576171875,0.9375662158203125
-0.206104375,0.2142811181640625,0.8889044287109376
-0.230418828125,0.19589934326171876,0.9129895556640625
-0.249870390625,0.20423241455078125,0.9719735400390626
-0.2022140625,0.2177123828125,1.016948828125
-0.24865466796875,0.17678229736328124,0.9528037451171875
-0.170118984375,0.1260485986328125,0.9090572900390625
-0.23528171875,0.1878113623046875,0.9129895556640625
-0.24306234375,0.1887917236328125,0.9410069482421874
-0.32500205078125,0.17433139404296874,0.9473968798828125
-0.20732009765625,0.24320177734375,0.9405154150390624
-0.28172232421875,0.1642826904296875,0.922082919921875
-0.28561263671875,0.18830154296875,0.8997181591796874
-0.19759431640625,0.22383964111328125,0.872929599609375
-0.25449013671875,0.1387932958984375,0.8412257080078125
-0.2124261328125,0.165753232421875,0.91569298828125
-0.210967265625,0.16256705810546876,0.9604225097656249
-0.232363984375,0.14737145751953126,0.969761640625
-0.166228671875,0.18438009765625,0.925032119140625
-0.2411171875,0.13070531494140625,0.92552365234375
-0.22361078125,0.18952699462890624,1.0186691943359376
-0.3096839453125,0.20276187255859374,0.9677955078125
-0.27029453125,0.12433296630859375,0.9336339501953125
-0.1949197265625,0.22334946044921875,0.9916348681640625
-0.29096181640625,0.10129447509765625,0.95894791015625
-0.25983931640625,0.216732021484375,1.000728232421875
-0.251815546875,0.16501796142578126,0.9803296044921875
-0.24865466796875,0.12580350830078124,0.98942296875
-0.25011353515625,0.26942644287109374,1.03169482421875
-0.21072412109375,0.1544790771484375,0.99827056640625
-0.2707808203125,0.20619313720703125,0.9815584374999999
-0.2328502734375,0.22187891845703125,1.0179318945312499
-0.31308796875,0.18707609130859376,1.040050888671875
-0.23917203125,0.0883046875,0.95796484375
-0.17668388671875,0.28217114013671873,0.9419900146484375
-0.2980130078125,0.1672237744140625,0.95894791015625
-0.28074974609375003,0.17678229736328124,1.058729150390625
-0.2425760546875,0.20962440185546874,0.9360916162109375
-0.27029453125,0.17506666503906249,1.0550426513671876
-0.24914095703125,0.1338914892578125,1.108865537109375
-0.30652306640625,0.15521434814453125,1.1253318994140624
-0.10665826171875001,0.1863408203125,1.0501273193359375
-0.26275705078125,0.111833359375,1.026287958984375
-0.2581373046875,0.28315150146484375,1.1848074169921876
-0.24914095703125,0.0927163134765625,1.03366095703125
-0.23260712890625002,0.157910341796875,1.043983154296875
-0.26372962890625,0.22236909912109376,1.0014655322265624
-0.21169669921875,0.1182057080078125,1.0294829248046875
-0.240144609375,0.15717507080078125,1.0555341845703126
-0.22239505859375,0.1417343798828125,1.0334151904296875
-0.2347954296875,0.24589777099609375,1.060695283203125
-0.26227076171875,0.1936935302734375,1.1172216015625
-0.27248283203125,0.16942958740234376,1.1155012353515625
-0.13948277343749999,0.21648693115234374,1.0658563818359374
-0.27831830078124997,0.1319307666015625,1.012525029296875
-0.185680234375,0.148106728515625,0.9842618701171875
-0.18689595703125,0.16795904541015624,0.9872110693359375
-0.17084841796875,0.13315621826171875,1.038084755859375
-0.2800203125,0.20178151123046875,1.1211538671875
-0.19078626953125,0.163792509765625,1.0869923095703125
-0.27248283203125,0.1584005224609375,1.076424345703125
-0.27734572265625,0.21967310546875,1.0919076416015625
-0.195406015625,0.1427147412109375,0.9754142724609375
-0.20732009765625,0.15129290283203126,0.9616513427734374
-0.206104375,0.197124794921875,0.9990078662109375
-0.226528515625,0.16869431640625,1.0471781201171875
-0.20148462890625,0.1809488330078125,1.06020375
-0.2630001953125,0.1549692578125,0.9842618701171875
-0.16525609375,0.11771552734375,1.0579918505859376
-0.280992890625,0.21599675048828126,1.033169423828125
-0.17862904296875,0.127519140625,0.91765912109375
-0.25084296875,0.22040837646484374,1.01989802734375
-0.2843969140625,0.1510478125,1.0938737744140625
-0.1988100390625,0.17580193603515626,1.0447204541015624
-0.23503857421875,0.15570452880859376,0.888658662109375
-0.18592337890625,0.1378129345703125,0.9449392138671875
-0.23941517578125,0.175556845703125,0.9614055761718749
-0.21558701171875,0.15570452880859376,1.040050888671875
-0.2639727734375,0.203006962890625,1.09854333984375
-0.28172232421875,0.127519140625,1.05528841796875
-0.22336763671875,0.158890703125,1.06315294921875
-0.20780638671875,0.16869431640625,0.9599309765625
-0.19248828125,0.08511851318359374,0.92748978515625
-0.206104375,0.1966346142578125,1.0388220556640624
-0.26907880859375,0.15300853515625001,1.0122792626953125
-0.2036729296875,0.09590248779296875,1.028254091796875
-0.2367405859375,0.181439013671875,1.0226014599609374
-0.2425760546875,0.0995788427734375,0.98647376953125
-0.25473328125,0.14418528320312501,0.9483799462890625
-0.27977716796875,0.1515379931640625,0.8874298291015625
-0.2357680078125,0.15864561279296874,0.955507177734375
-0.23066197265625,0.13854820556640626,1.012525029296875
-0.23260712890625002,0.1603612451171875,0.936828916015625
-0.1803310546875,0.14050892822265626,0.92355751953125
-0.24330548828125,0.14197947021484375,0.9523122119140625
-0.25400384765625,0.16085142578125,0.9729566064453125
-0.22701480468750002,0.1701648583984375,1.0648733154296874
-0.21583015625000002,0.17825283935546876,1.1005094726562499
-0.3067662109375,0.191242626953125,1.072492080078125
-0.2133987109375,0.14884199951171875,0.998762099609375
-0.22579908203125,0.161831787109375,0.965337841796875
-0.24525064453125,0.12041152099609376,0.9591936767578125
-0.20099833984375,0.14908708984375,0.98057537109375
-0.26129818359375,0.12433296630859375,0.9744312060546875
-0.19248828125,0.1427147412109375,1.0130165625
-0.24136033203125,0.0711483642578125,0.993846767578125
-0.236254296875,0.13315621826171875,1.0466865869140625
-0.2022140625,0.126538779296875,1.007609697265625
-0.25497642578125,0.08953013916015624,0.9611598095703124
-0.15188314453125001,0.14933218017578126,0.9685328076171875
-0.2318776953125,0.07727562255859374,0.9690243408203125
-0.236254296875,0.061834931640625,1.0127707958984375
-0.18495080078125,0.10202974609375,0.98057537109375
-0.21996361328125,0.09149086181640625,0.937811982421875
-0.15917748046875,0.09296140380859375,0.950591845703125
-0.2289599609375,0.114774443359375,0.9992536328125
-0.222638203125,0.10276501708984374,0.971236240234375
-0.17084841796875,0.13903838623046874,1.016948828125
-0.22968939453125,0.12947986328125,1.025304892578125
-0.24184662109375,0.1231075146484375,1.101984072265625
-0.22871681640625,0.13560712158203125,1.09854333984375
-0.17230728515625,0.12384278564453124,0.942727314453125
-0.2036729296875,0.18511536865234374,0.928964384765625
-0.1608794921875,0.0765403515625,0.952557978515625
-0.30530734375,0.16795904541015624,1.0049062646484375
-0.18859796875,0.13609730224609376,0.9532952783203125
-0.28464005859375,0.06845237060546874,0.92552365234375
-0.2099946875,0.11060790771484375,0.9414984814453125
-0.24379177734375002,0.1407540185546875,0.9016842919921875
-0.2532744140625,0.0765403515625,0.948625712890625
-0.26956509765625,0.14688127685546876,1.0191607275390624
-0.22920310546875,0.06943273193359376,0.91077765625
-0.1725504296875,0.07825598388671876,0.89603166015625
-0.26567478515625,0.0765403515625,0.93338818359375
-0.20780638671875,0.09810830078125,0.9955671337890625
-0.21461443359375,0.11845079833984375,0.955507177734375
-0.19637859375,0.15521434814453125,1.0034316650390624
-0.209022109375,0.11894097900390625,0.944693447265625
-0.2114535546875,0.103010107421875,0.954524111328125
-0.206104375,0.09026541015625,0.9867195361328125
-0.2396583203125,0.12188206298828125,0.926998251953125
-0.1813036328125,0.148106728515625,0.906353857421875
-0.23406599609375,0.10399046875,0.9196252539062499
-0.271267109375,0.12629368896484375,1.022355693359375
-0.183735078125,0.18045865234375,1.0486527197265625
-0.21899103515625,0.06747200927734374,1.0004824658203124
-0.2299325390625,0.1280093212890625,1.032186357421875
-0.19078626953125,0.161831787109375,0.9842618701171875
-0.22920310546875,0.1084020947265625,0.894557060546875
-0.203186640625,0.138303115234375,0.977626171875
-0.22482650390625,0.12678386962890625,0.9795923046875
-0.2445212109375,0.1157548046875,0.9842618701171875
-0.22579908203125,0.11894097900390625,1.0181776611328126
-0.24768208984375,0.09639266845703125,0.9365831494140625
-0.160393203125,0.124578056640625,0.962388642578125
-0.24962724609375,0.06845237060546874,0.9449392138671875
-0.24087404296875,0.1427147412109375,0.994829833984375
-0.20391607421875,0.14639109619140625,0.990897568359375
-0.23892888671875,0.0633054736328125,1.0083469970703125
-0.228473671875,0.13854820556640626,1.0250591259765625
-0.18689595703125,0.1348718505859375,1.0157199951171876
-0.2056180859375,0.12629368896484375,1.03661015625
-0.27296912109375,0.12041152099609376,1.007609697265625
-0.22677166015625,0.06698182861328125,1.011541962890625
-0.205131796875,0.101049384765625,1.0058893310546875
-0.26761994140625,0.1054610107421875,1.0127707958984375
-0.22385392578125,0.04198261474609375,0.981066904296875
-0.22725794921875,0.13119549560546875,0.8889044287109376
-0.20829267578125,0.10717664306640624,0.871946533203125
-0.2104809765625,0.10595119140625,0.9729566064453125
-0.15236943359375,0.059874208984374996,0.94223578125
-0.23892888671875,0.11109808837890625,1.0174403613281249
-0.24670951171875,0.05080586669921875,1.0346440234375
-0.26154132812499997,0.083402880859375,1.0216183935546874
-0.2435486328125,0.04541387939453125,0.9778719384765625
-0.242089765625,0.126538779296875,1.0425085546875
-0.2396583203125,0.13560712158203125,1.0019570654296874
-0.2027003515625,0.08070688720703124,0.9665666748046875
-0.2104809765625,0.0731090869140625,1.007609697265625
-0.251815546875,0.09247122314453125,0.9793465380859375
-0.19953947265625,0.09026541015625,0.9798380712890625
-0.221665625,0.026051743164062502,0.9469053466796875
-0.18397822265625,0.026296833496093748,0.9881941357421875
-0.263486484375,0.05031568603515625,1.0560257177734376
-0.21996361328125,0.026541923828125,1.071509013671875
-0.27102396484375,0.0731090869140625,1.0643817822265624
-0.253760703125,0.09737302978515625,1.007609697265625
-0.242089765625,0.05325677001953125,0.977626171875
-0.22142248046875002,0.1093824560546875,1.0098215966796875
-0.23892888671875,0.06060947998046875,0.983033037109375
-0.24816837890625,0.0162481298828125,1.0014655322265624
-0.24330548828125,0.07678544189453125,0.994829833984375
-0.19637859375,0.081442158203125,1.0464408203125
-0.27880458984375,0.07065818359375,1.0503730859375
-0.2843969140625,0.08560869384765625,1.0353813232421876
-0.2610550390625,0.12874459228515625,0.9896687353515625
-0.2114535546875,0.08119706787109375,1.0034316650390624
-0.2542469921875,0.071638544921875,1.0407881884765624
-0.230418828125,0.00325834228515625,0.9827872705078124
-0.19175884765625,0.07065818359375,0.94321884765625
-0.24476435546875,0.096147578125,0.9129895556640625
-0.190543125,0.026051743164062502,0.9375662158203125
-0.2698082421875,0.03708080810546875,1.02383029296875
-0.25108611328125,0.07237381591796875,1.1073909375
-0.25886673828125,0.06894255126953125,1.1041959716796874
-0.26056875,0.03708080810546875,1.0584833837890626
-0.21850474609375,0.07874616455078125,1.0024485986328124
-0.2377131640625,0.004973974609375,0.963371708984375
-0.23455228515625,0.06281529296875,0.972219306640625
-0.18786853515625002,0.02752228515625,0.94518498046875
-0.2450075,-0.010221625976562499,0.94518498046875
-0.20586123046875,0.0652661962890625,0.9992536328125
-0.253760703125,0.049090234375,1.074458212890625
-0.23917203125,0.06894255126953125,1.1105859033203125
-0.23941517578125,0.0878145068359375,1.0756870458984376
-0.3077387890625,0.07090327392578125,1.0221099267578124
-0.21121041015625,0.04320806640625,0.9609140429687499
-0.2474389453125,0.05227640869140625,0.931913583984375
-0.19346085937500002,0.05472731201171875,0.9709904736328125
-0.2309051171875,0.06698182861328125,1.0444746875
-0.2630001953125,0.0686974609375,1.081339677734375
-0.218747890625,0.0544822216796875,1.0722463134765625
-0.21704587890625,0.034384814453125,0.9881941357421875
-0.25473328125,0.01845394287109375,0.9655836083984375
-0.1744955859375,-0.01879978759765625,0.91176072265625
-0.2338228515625,0.0280124658203125,0.9400238818359374
-0.21947732421875,0.024091020507812498,0.984999169921875
-0.24476435546875,0.0584036669921875,1.0417712548828124
-0.28026345703125,0.07727562255859374,1.0584833837890626
-0.20245720703125,0.08903995849609375,1.0073639306640625
-0.2416034765625,0.04247279541015625,0.9046334912109375
-0.16987583984375,0.069677822265625,0.9599309765625
-0.2289599609375,0.0309535498046875,0.9523122119140625
-0.25059982421875,0.05570767333984375,1.0093300634765625
-0.27345541015625,0.0456589697265625,1.036118623046875
-0.25205869140625,0.03561026611328125,1.0267794921875
-0.20780638671875,0.07825598388671876,0.9626344091796875
-0.26154132812499997,-0.008751083984375,0.8844806298828125
-0.20732009765625,0.06257020263671875,0.888658662109375
-0.2488978125,0.0133070458984375,0.91176072265625
-0.22750109375,0.0770305322265625,0.9852449365234375
-0.21753216796875,0.0270321044921875,0.954524111328125
-0.2289599609375,0.0451687890625,1.016948828125
-0.1968648828125,0.0740894482421875,1.0167030615234376
-0.259596171875,0.0686974609375,1.029237158203125
-0.1997826171875,0.064776015625,0.9815584374999999
-0.2386857421875,0.0525214990234375,0.9518206787109375
-0.23747001953125,0.0985984814453125,1.005643564453125
-0.22044990234375,0.07188363525390624,0.9872110693359375
-0.29169125,0.05276658935546875,0.9793465380859375
-0.22190876953125,0.0378160791015625,0.948625712890625
-0.2007551953125,0.04933532470703125,0.930930517578125
-0.205131796875,0.0486000537109375,0.971236240234375
-0.22336763671875,0.0456589697265625,0.9867195361328125
-0.28561263671875,0.0505607763671875,0.98254150390625
-0.24962724609375,-0.0001729223632812504,0.9931094677734374
-0.2824517578125,0.04639424072265625,0.947642646484375
-0.19029998046875,0.02923791748046875,0.906845390625
-0.25740787109375,0.09590248779296875,0.9095488232421876
-0.15674603515625,0.01649322021484375,0.9134810888671875
-0.245980078125,0.04443351806640625,1.0122792626953125
-0.2688356640625,0.08560869384765625,1.03169482421875
-0.2279873828125,0.028502646484374998,1.04152548828125
-0.20099833984375,0.055952763671875,1.0053977978515625
-0.22871681640625,0.0436982470703125,0.9768888720703125
-0.2411171875,0.04884514404296875,0.9680412744140625
-0.2085358203125,0.03806116943359375,0.9203625537109374
-0.2240970703125,0.05227640869140625,0.88816712890625
-0.1827625,0.03610044677734375,0.8805483642578125
-0.24573693359375,0.04051207275390625,0.953541044921875
-0.203186640625,0.03168882080078125,1.037101689453125
-0.2503566796875,0.12163697265625,1.06511908203125
-0.2357680078125,0.0530116796875,1.045949287109375
-0.2464663671875,0.1054610107421875,1.0398051220703124
-0.18106048828125,0.09786321044921875,1.069542880859375
-0.28391062499999997,0.0436982470703125,1.0009739990234374
-0.26421591796875,0.06673673828125,0.9611598095703124
-0.19078626953125,0.01845394287109375,0.8938197607421875
-0.24038775390625,0.06624655761718751,0.884726396484375
-0.19419029296875,0.04786478271484375,0.969270107421875
-0.2450075,0.01208159423828125,1.0201437939453124
-0.2454937890625,0.03806116943359375,1.0425085546875
-0.24816837890625,0.03168882080078125,1.0122792626953125
-0.24670951171875,0.010611052246093749,0.9611598095703124
-0.1754681640625,0.0338946337890625,0.969761640625
-0.23357970703125,0.009140510253906251,0.98057537109375
-0.24306234375,0.010856142578125,1.01203349609375
-0.25692158203125,0.03168882080078125,1.004660498046875
-0.20926525390625,0.044188427734375,1.0049062646484375
-0.20780638671875,-0.006790361328125,0.9397781152343749
-0.2172890234375,0.04541387939453125,0.977134638671875
-0.23917203125,0.03364954345703125,0.9931094677734374
-0.16525609375,0.03462990478515625,0.92945591796875
-0.24233291015625,0.09198104248046875,0.920116787109375
-0.183735078125,-0.024436865234375,0.9228202197265625
-0.2231244921875,0.0525214990234375,0.979100771484375
-0.2503566796875,0.03144373046875,0.9714820068359376
-0.2552195703125,0.028257556152343752,1.0137538623046876
-0.2999581640625,0.101049384765625,1.026287958984375
-0.2630001953125,0.0495804150390625,1.0127707958984375
-0.25473328125,0.0074248779296875,0.9990078662109375
-0.221665625,0.05962911865234375,1.06315294921875
-0.23601115234375,0.0015427099609375003,1.084288876953125
-0.23941517578125,0.07678544189453125,1.049881552734375
-0.1929745703125,0.0682072802734375,0.9717277734375
-0.2454937890625,0.010611052246093749,0.9877026025390625
-0.24962724609375,0.055462583007812497,0.99237216796875
-0.179844765625,0.03855135009765625,0.91077765625
-0.24038775390625,-0.00777072265625,0.850319072265625
-0.1832487890625,0.04443351806640625,0.9164302880859375
-0.24038775390625,0.056933125,0.996795966796875
-0.23139140625,0.0054641552734375,1.0737209130859375
-0.3067662109375,0.04345315673828125,1.116730068359375
-0.25473328125,0.04541387939453125,1.0855177099609374
-0.22239505859375,0.0397768017578125,1.0235845263671874
-0.23139140625,0.04198261474609375,0.97664310546875
-0.1540714453125,0.03217900146484375,0.9444476806640625
-0.23552486328125,0.01698340087890625,0.946659580078125
-0.26251390625,0.06649164794921875,1.0117877294921875
-0.2396583203125,0.03315936279296875,0.9972875
-0.26324333984375,0.05472731201171875,1.011541962890625
-0.2172890234375,0.05423713134765625,0.99827056640625
-0.20440236328125,0.08119706787109375,0.9677955078125
-0.24816837890625,0.04149243408203125,1.008592763671875
-0.26032560546875,0.04590406005859375,1.0543053515625
-0.25740787109375,0.0633054736328125,1.082322744140625
-0.2445212109375,0.010856142578125,0.9972875
-0.230418828125,0.0348749951171875,0.9601767431640625
-0.2099946875,0.0535018603515625,0.976151572265625
-0.21072412109375,0.040266982421875,0.9434646142578125
-0.2668905078125,0.0495804150390625,1.0692971142578125
-0.23552486328125,0.106931552734375,1.103950205078125
-0.22968939453125,0.0294830078125,1.0476696533203125
-0.22823052734375,0.0672269189453125,1.015474228515625
